%time,field.header.seq,field.header.stamp,field.header.frame_id,field.orientation.x,field.orientation.y,field.orientation.z,field.orientation.w,field.orientation_covariance0,field.orientation_covariance1,field.orientation_covariance2,field.orientation_covariance3,field.orientation_covariance4,field.orientation_covariance5,field.orientation_covariance6,field.orientation_covariance7,field.orientation_covariance8,field.angular_velocity.x,field.angular_velocity.y,field.angular_velocity.z,field.angular_velocity_covariance0,field.angular_velocity_covariance1,field.angular_velocity_covariance2,field.angular_velocity_covariance3,field.angular_velocity_covariance4,field.angular_velocity_covariance5,field.angular_velocity_covariance6,field.angular_velocity_covariance7,field.angular_velocity_covariance8,field.linear_acceleration.x,field.linear_acceleration.y,field.linear_acceleration.z,field.linear_acceleration_covariance0,field.linear_acceleration_covariance1,field.linear_acceleration_covariance2,field.linear_acceleration_covariance3,field.linear_acceleration_covariance4,field.linear_acceleration_covariance5,field.linear_acceleration_covariance6,field.linear_acceleration_covariance7,field.linear_acceleration_covariance8
1463846627286029080,201,1463846627283328749,,64.8657531738,9.53555870056,81.8077545166,0.0213980004191,1.0,0.0,0.0,0.0,1.0,0.0,0.0,0.0,1.0,-0.304878056049,2.56097555161,0.0609756112099,1.0,0.0,0.0,0.0,1.0,0.0,0.0,0.0,1.0,-1.00077629395,-0.857124194336,10.1083194092,1.0,0.0,0.0,0.0,1.0,0.0,0.0,0.0,1.0
1463846627298872748,202,1463846627296939312,,64.0399551392,8.96718502045,81.3165969849,0.0193860009313,1.0,0.0,0.0,0.0,1.0,0.0,0.0,0.0,1.0,-0.18292683363,2.31707310677,0.0609756112099,1.0,0.0,0.0,0.0,1.0,0.0,0.0,0.0,1.0,-1.06781401349,-0.727837304687,10.1418382324,1.0,0.0,0.0,0.0,1.0,0.0,0.0,0.0,1.0
1463846627318366172,203,1463846627316274659,,63.1650047302,8.43082618713,80.8596572876,0.020408000797,1.0,0.0,0.0,0.0,1.0,0.0,0.0,0.0,1.0,-0.18292683363,2.13414645195,0.18292683363,1.0,0.0,0.0,0.0,1.0,0.0,0.0,0.0,1.0,-0.957680664062,-0.651222851562,10.0412817627,1.0,0.0,0.0,0.0,1.0,0.0,0.0,0.0,1.0
1463846627339815533,204,1463846627337701051,,62.3013076782,7.91567659378,80.4222640991,0.0204329993576,1.0,0.0,0.0,0.0,1.0,0.0,0.0,0.0,1.0,-0.12195122242,2.07317066193,0.0609756112099,1.0,0.0,0.0,0.0,1.0,0.0,0.0,0.0,1.0,-1.07739082014,-0.708683691406,10.1945106689,1.0,0.0,0.0,0.0,1.0,0.0,0.0,0.0,1.0
1463846627359398751,205,1463846627357465628,,61.4370765686,7.40800333023,79.994972229,0.020408000797,1.0,0.0,0.0,0.0,1.0,0.0,0.0,0.0,1.0,-0.18292683363,1.64634156227,0.0609756112099,1.0,0.0,0.0,0.0,1.0,0.0,0.0,0.0,1.0,-1.02471831055,-0.799663354492,10.0412817627,1.0,0.0,0.0,0.0,1.0,0.0,0.0,0.0,1.0
1463846627380686702,206,1463846627378696494,,60.5408096313,6.9579577446,79.6163330078,0.0208880007267,1.0,0.0,0.0,0.0,1.0,0.0,0.0,0.0,1.0,0.18292683363,1.2804877758,0.18292683363,1.0,0.0,0.0,0.0,1.0,0.0,0.0,0.0,1.0,-0.890643017578,-0.694318481445,10.1131078125,1.0,0.0,0.0,0.0,1.0,0.0,0.0,0.0,1.0
1463846627410777642,207,1463846627398071634,,59.7046737671,6.53213644028,79.2715148926,0.0199909992516,1.0,0.0,0.0,0.0,1.0,0.0,0.0,0.0,1.0,-0.365853667259,1.34146344662,0.304878056049,1.0,0.0,0.0,0.0,1.0,0.0,0.0,0.0,1.0,-1.07739082014,-0.77093293457,10.1035310059,1.0,0.0,0.0,0.0,1.0,0.0,0.0,0.0,1.0
1463846627421176142,208,1463846627418659149,,58.8581085205,6.16338634491,78.9715118408,0.020361000672,1.0,0.0,0.0,0.0,1.0,0.0,0.0,0.0,1.0,0.0609756112099,1.58536589146,0.243902444839,1.0,0.0,0.0,0.0,1.0,0.0,0.0,0.0,1.0,-0.991199487305,-0.622492431641,10.0891657959,1.0,0.0,0.0,0.0,1.0,0.0,0.0,0.0,1.0
1463846627443952673,209,1463846627440537792,,57.985168457,5.77731370926,78.6653594971,0.0215670000762,1.0,0.0,0.0,0.0,1.0,0.0,0.0,0.0,1.0,-0.243902444839,1.95121955872,0.18292683363,1.0,0.0,0.0,0.0,1.0,0.0,0.0,0.0,1.0,-1.08696755371,-0.679953271484,10.1609918457,1.0,0.0,0.0,0.0,1.0,0.0,0.0,0.0,1.0
1463846627463542089,210,1463846627459911891,,57.1699867249,5.43506813049,78.3912811279,0.0197039991617,1.0,0.0,0.0,0.0,1.0,0.0,0.0,0.0,1.0,-0.12195122242,1.46341466904,-0.12195122242,1.0,0.0,0.0,0.0,1.0,0.0,0.0,0.0,1.0,-0.823605371094,-0.689530078125,10.2615483154,1.0,0.0,0.0,0.0,1.0,0.0,0.0,0.0,1.0
1463846627490527532,211,1463846627479647040,,56.3649864197,5.11011981964,78.1301269531,0.0199170000851,1.0,0.0,0.0,0.0,1.0,0.0,0.0,0.0,1.0,0.243902444839,1.8292683363,0.0609756112099,1.0,0.0,0.0,0.0,1.0,0.0,0.0,0.0,1.0,-0.852335791016,-0.737414111328,10.1035310059,1.0,0.0,0.0,0.0,1.0,0.0,0.0,0.0,1.0
1463846627501780690,212,1463846627500145283,,55.5507583618,4.80424833298,77.90184021,0.0204319991171,1.0,0.0,0.0,0.0,1.0,0.0,0.0,0.0,1.0,-0.487804889679,1.8292683363,0.243902444839,1.0,0.0,0.0,0.0,1.0,0.0,0.0,0.0,1.0,-0.92416184082,-0.646434448242,10.1562034424,1.0,0.0,0.0,0.0,1.0,0.0,0.0,0.0,1.0
1463846627523666989,213,1463846627520518157,,54.7566871643,4.51089906693,77.6756820679,0.0203850008547,1.0,0.0,0.0,0.0,1.0,0.0,0.0,0.0,1.0,0.0,2.13414645195,0.0609756112099,1.0,0.0,0.0,0.0,1.0,0.0,0.0,0.0,1.0,-0.952892260742,-0.694318481445,10.1705686523,1.0,0.0,0.0,0.0,1.0,0.0,0.0,0.0,1.0
1463846627562686287,214,1463846627541056505,,53.9760246277,4.23618268967,77.4671630859,0.0204169992357,1.0,0.0,0.0,0.0,1.0,0.0,0.0,0.0,1.0,-0.0609756112099,2.37804889679,0.0,1.0,0.0,0.0,0.0,1.0,0.0,0.0,0.0,1.0,-0.948103857422,-0.651222851562,10.0412817627,1.0,0.0,0.0,0.0,1.0,0.0,0.0,0.0,1.0
1463846627562992388,215,1463846627561717876,,53.2060699463,3.97742199898,77.2768173218,0.020524000749,1.0,0.0,0.0,0.0,1.0,0.0,0.0,0.0,1.0,-0.12195122242,2.68292689323,0.18292683363,1.0,0.0,0.0,0.0,1.0,0.0,0.0,0.0,1.0,-0.952892260742,-0.660799658203,10.1514150391,1.0,0.0,0.0,0.0,1.0,0.0,0.0,0.0,1.0
1463846627603285834,216,1463846627581948768,,52.4537963867,3.72821593285,77.0982589722,0.0203089993447,1.0,0.0,0.0,0.0,1.0,0.0,0.0,0.0,1.0,-0.426829278469,2.56097555161,0.0,1.0,0.0,0.0,0.0,1.0,0.0,0.0,0.0,1.0,-0.995987890625,-0.632069238281,10.2088758789,1.0,0.0,0.0,0.0,1.0,0.0,0.0,0.0,1.0
1463846627632947336,217,1463846627605556726,,51.5830764771,3.46665048599,76.9115219116,0.0235939994454,1.0,0.0,0.0,0.0,1.0,0.0,0.0,0.0,1.0,-0.304878056049,2.25609779358,-0.0609756112099,1.0,0.0,0.0,0.0,1.0,0.0,0.0,0.0,1.0,-0.981622680664,-0.560243188477,10.0843773926,1.0,0.0,0.0,0.0,1.0,0.0,0.0,0.0,1.0
1463846627633012806,218,1463846627622597691,,50.957660675,3.2571811676,76.7652053833,0.0172019992024,1.0,0.0,0.0,0.0,1.0,0.0,0.0,0.0,1.0,-0.609756112099,2.19512200356,-0.12195122242,1.0,0.0,0.0,0.0,1.0,0.0,0.0,0.0,1.0,-0.981622680664,-0.703895288086,10.1466266357,1.0,0.0,0.0,0.0,1.0,0.0,0.0,0.0,1.0
1463846627648220859,219,1463846627643066089,,50.2313499451,3.0321855545,76.6082229614,0.0204009991139,1.0,0.0,0.0,0.0,1.0,0.0,0.0,0.0,1.0,-0.304878056049,2.62195134163,0.0,1.0,0.0,0.0,0.0,1.0,0.0,0.0,0.0,1.0,-0.948103857422,-0.670376464844,9.97424411621,1.0,0.0,0.0,0.0,1.0,0.0,0.0,0.0,1.0
1463846627665381722,220,1463846627663494798,,49.50340271,2.79461050034,76.4450759888,0.0204290002584,1.0,0.0,0.0,0.0,1.0,0.0,0.0,0.0,1.0,-0.609756112099,2.07317066193,-0.18292683363,1.0,0.0,0.0,0.0,1.0,0.0,0.0,0.0,1.0,-0.967257470703,-0.742202514648,10.1370498291,1.0,0.0,0.0,0.0,1.0,0.0,0.0,0.0,1.0
1463846627690697382,221,1463846627683857047,,48.789478302,2.59406876564,76.3112716675,0.0203910004348,1.0,0.0,0.0,0.0,1.0,0.0,0.0,0.0,1.0,-0.487804889679,2.13414645195,-0.0609756112099,1.0,0.0,0.0,0.0,1.0,0.0,0.0,0.0,1.0,-1.00077629395,-0.61770402832,10.1226846191,1.0,0.0,0.0,0.0,1.0,0.0,0.0,0.0,1.0
1463846627706628682,222,1463846627704288986,,48.0827102661,2.41772603989,76.1977233887,0.0204150006175,1.0,0.0,0.0,0.0,1.0,0.0,0.0,0.0,1.0,-0.487804889679,2.01219511032,0.0,1.0,0.0,0.0,0.0,1.0,0.0,0.0,0.0,1.0,-1.01992990723,-0.531512805087,10.1562034424,1.0,0.0,0.0,0.0,1.0,0.0,0.0,0.0,1.0
1463846627726648839,223,1463846627724740092,,47.3724403381,2.22771954536,76.0765686035,0.0204050000757,1.0,0.0,0.0,0.0,1.0,0.0,0.0,0.0,1.0,-0.487804889679,1.76829278469,0.12195122242,1.0,0.0,0.0,0.0,1.0,0.0,0.0,0.0,1.0,-0.881066210937,-0.660799658203,10.0029745361,1.0,0.0,0.0,0.0,1.0,0.0,0.0,0.0,1.0
1463846627746659204,224,1463846627745057392,,46.6830978394,2.07479476929,75.9809875488,0.0204070005566,1.0,0.0,0.0,0.0,1.0,0.0,0.0,0.0,1.0,-0.12195122242,1.8902438879,0.304878056049,1.0,0.0,0.0,0.0,1.0,0.0,0.0,0.0,1.0,-0.986411083984,-0.550666381836,9.95509050293,1.0,0.0,0.0,0.0,1.0,0.0,0.0,0.0,1.0
1463846627767298648,225,1463846627765450892,,45.9952507019,1.91638350487,75.8898773193,0.0204310007393,1.0,0.0,0.0,0.0,1.0,0.0,0.0,0.0,1.0,-0.731707334518,1.8902438879,0.18292683363,1.0,0.0,0.0,0.0,1.0,0.0,0.0,0.0,1.0,-0.905008227539,-0.531512805087,10.0364933594,1.0,0.0,0.0,0.0,1.0,0.0,0.0,0.0,1.0
1463846627808898690,226,1463846627788151952,,45.2707290649,1.718796134,75.7670059204,0.0214789994061,1.0,0.0,0.0,0.0,1.0,0.0,0.0,0.0,1.0,-0.609756112099,1.46341466904,-0.0609756112099,1.0,0.0,0.0,0.0,1.0,0.0,0.0,0.0,1.0,-0.861912597656,-0.737414111328,10.1131078125,1.0,0.0,0.0,0.0,1.0,0.0,0.0,0.0,1.0
1463846627816424563,227,1463846627807749077,,44.6285705566,1.57155811787,75.6860809326,0.019339999184,1.0,0.0,0.0,0.0,1.0,0.0,0.0,0.0,1.0,-0.731707334518,1.70731711388,0.304878056049,1.0,0.0,0.0,0.0,1.0,0.0,0.0,0.0,1.0,-0.828393774414,-0.61770402832,10.2232410889,1.0,0.0,0.0,0.0,1.0,0.0,0.0,0.0,1.0
1463846627832777229,228,1463846627828689258,,43.9451560974,1.38288760185,75.5730819702,0.0216530002654,1.0,0.0,0.0,0.0,1.0,0.0,0.0,0.0,1.0,-0.670731723309,1.8902438879,-0.0609756112099,1.0,0.0,0.0,0.0,1.0,0.0,0.0,0.0,1.0,-1.04387185076,-0.756567724609,10.1705686523,1.0,0.0,0.0,0.0,1.0,0.0,0.0,0.0,1.0
1463846627851750952,229,1463846627848035647,,43.3352088928,1.23755908012,75.489944458,0.0191380009055,1.0,0.0,0.0,0.0,1.0,0.0,0.0,0.0,1.0,-0.609756112099,1.70731711388,0.0609756112099,1.0,0.0,0.0,0.0,1.0,0.0,0.0,0.0,1.0,-0.905008227539,-0.675164868164,10.2088758789,1.0,0.0,0.0,0.0,1.0,0.0,0.0,0.0,1.0
1463846627877539749,230,1463846627867570167,,42.7042922974,1.08324158192,75.4079360962,0.0204039998353,1.0,0.0,0.0,0.0,1.0,0.0,0.0,0.0,1.0,-0.792682945728,2.01219511032,0.243902444839,1.0,0.0,0.0,0.0,1.0,0.0,0.0,0.0,1.0,-0.938527050781,-0.699106884766,10.1274730225,1.0,0.0,0.0,0.0,1.0,0.0,0.0,0.0,1.0
1463846627891049632,231,1463846627887914394,,42.0933151245,0.926470756531,75.3242340088,0.020428000018,1.0,0.0,0.0,0.0,1.0,0.0,0.0,0.0,1.0,-0.853658556938,2.37804889679,0.12195122242,1.0,0.0,0.0,0.0,1.0,0.0,0.0,0.0,1.0,-0.976834277344,-0.727837304687,10.1514150391,1.0,0.0,0.0,0.0,1.0,0.0,0.0,0.0,1.0
1463846627913938718,232,1463846627908481909,,41.4799079895,0.785397529602,75.2516937256,0.0203949995339,1.0,0.0,0.0,0.0,1.0,0.0,0.0,0.0,1.0,-0.975609779358,2.01219511032,0.0,1.0,0.0,0.0,0.0,1.0,0.0,0.0,0.0,1.0,-0.9193734375,-0.627280834961,10.1466266357,1.0,0.0,0.0,0.0,1.0,0.0,0.0,0.0,1.0
1463846627933401569,233,1463846627928746291,,40.8929977417,0.677581787109,75.2058944702,0.0204169992357,1.0,0.0,0.0,0.0,1.0,0.0,0.0,0.0,1.0,-0.853658556938,2.43902444839,0.365853667259,1.0,0.0,0.0,0.0,1.0,0.0,0.0,0.0,1.0,-1.01514150391,-0.493205541992,10.0795889893,1.0,0.0,0.0,0.0,1.0,0.0,0.0,0.0,1.0
1463846627951546313,234,1463846627949113072,,40.3269615173,0.561883985996,75.1517562866,0.0204060003161,1.0,0.0,0.0,0.0,1.0,0.0,0.0,0.0,1.0,-0.792682945728,2.68292689323,0.18292683363,1.0,0.0,0.0,0.0,1.0,0.0,0.0,0.0,1.0,-1.08696755371,-0.560243188477,10.1562034424,1.0,0.0,0.0,0.0,1.0,0.0,0.0,0.0,1.0
1463846628004286124,235,1463846627969741005,,39.7578353882,0.419600576162,75.0775222778,0.0206160005182,1.0,0.0,0.0,0.0,1.0,0.0,0.0,0.0,1.0,-0.670731723309,2.19512200356,0.0609756112099,1.0,0.0,0.0,0.0,1.0,0.0,0.0,0.0,1.0,-1.10133276367,-0.751779321289,10.0652237793,1.0,0.0,0.0,0.0,1.0,0.0,0.0,0.0,1.0
1463846628006061847,236,1463846627990020909,,39.1999168396,0.266098290682,74.990814209,0.0202060006559,1.0,0.0,0.0,0.0,1.0,0.0,0.0,0.0,1.0,-0.670731723309,2.19512200356,-0.304878056049,1.0,0.0,0.0,0.0,1.0,0.0,0.0,0.0,1.0,-1.01035310059,-0.847547387695,10.2040874756,1.0,0.0,0.0,0.0,1.0,0.0,0.0,0.0,1.0
1463846628041925222,237,1463846628010342375,,38.6508522034,0.132612541318,74.9265594482,0.0203879997134,1.0,0.0,0.0,0.0,1.0,0.0,0.0,0.0,1.0,-0.914634168148,2.43902444839,0.0609756112099,1.0,0.0,0.0,0.0,1.0,0.0,0.0,0.0,1.0,-1.01035310059,-0.737414111328,10.1705686523,1.0,0.0,0.0,0.0,1.0,0.0,0.0,0.0,1.0
1463846628042063298,238,1463846628030930302,,38.1101951599,-0.00185549352318,74.8558502197,0.0204179994762,1.0,0.0,0.0,0.0,1.0,0.0,0.0,0.0,1.0,-0.487804889679,2.01219511032,0.0,1.0,0.0,0.0,0.0,1.0,0.0,0.0,0.0,1.0,-1.09654436035,-0.823605371094,10.1466266357,1.0,0.0,0.0,0.0,1.0,0.0,0.0,0.0,1.0
1463846628054234133,239,1463846628051239993,,37.5635986328,-0.14279486239,74.7795639038,0.0204050000757,1.0,0.0,0.0,0.0,1.0,0.0,0.0,0.0,1.0,-0.304878056049,2.01219511032,0.0,1.0,0.0,0.0,0.0,1.0,0.0,0.0,0.0,1.0,-0.928950244141,-0.92416184082,10.1514150391,1.0,0.0,0.0,0.0,1.0,0.0,0.0,0.0,1.0
1463846628089268110,240,1463846628071819379,,37.0273361206,-0.262391895056,74.7225494385,0.0204179994762,1.0,0.0,0.0,0.0,1.0,0.0,0.0,0.0,1.0,-0.426829278469,1.95121955872,0.243902444839,1.0,0.0,0.0,0.0,1.0,0.0,0.0,0.0,1.0,-0.952892260742,-0.804451757813,10.0508585693,1.0,0.0,0.0,0.0,1.0,0.0,0.0,0.0,1.0
1463846628096882265,241,1463846628092173915,,36.5088043213,-0.392335385084,74.6563949585,0.0204230006784,1.0,0.0,0.0,0.0,1.0,0.0,0.0,0.0,1.0,-0.304878056049,1.8292683363,0.12195122242,1.0,0.0,0.0,0.0,1.0,0.0,0.0,0.0,1.0,-1.06781401349,-0.909796630859,10.0748005859,1.0,0.0,0.0,0.0,1.0,0.0,0.0,0.0,1.0
1463846628115593842,242,1463846628112494856,,35.9906311035,-0.507405638695,74.596572876,0.0203879997134,1.0,0.0,0.0,0.0,1.0,0.0,0.0,0.0,1.0,-0.12195122242,1.76829278469,0.0609756112099,1.0,0.0,0.0,0.0,1.0,0.0,0.0,0.0,1.0,-1.00556469727,-0.866701000977,10.2519715088,1.0,0.0,0.0,0.0,1.0,0.0,0.0,0.0,1.0
1463846628137716392,243,1463846628132845225,,35.4782714844,-0.618427813053,74.5402374268,0.0204109996557,1.0,0.0,0.0,0.0,1.0,0.0,0.0,0.0,1.0,-0.243902444839,1.76829278469,0.0,1.0,0.0,0.0,0.0,1.0,0.0,0.0,0.0,1.0,-0.976834277344,-0.833182177734,10.2136642822,1.0,0.0,0.0,0.0,1.0,0.0,0.0,0.0,1.0
1463846628166698755,244,1463846628153200698,,34.9682388306,-0.721832036972,74.4974517822,0.0203949995339,1.0,0.0,0.0,0.0,1.0,0.0,0.0,0.0,1.0,-0.365853667259,1.70731711388,0.426829278469,1.0,0.0,0.0,0.0,1.0,0.0,0.0,0.0,1.0,-0.905008227539,-0.818816967773,10.0939541992,1.0,0.0,0.0,0.0,1.0,0.0,0.0,0.0,1.0
1463846628177219027,245,1463846628173667581,,34.4667053223,-0.819364368916,74.459602356,0.0204429998994,1.0,0.0,0.0,0.0,1.0,0.0,0.0,0.0,1.0,-0.365853667259,1.8902438879,0.487804889679,1.0,0.0,0.0,0.0,1.0,0.0,0.0,0.0,1.0,-0.885854614258,-0.809240161133,10.1945106689,1.0,0.0,0.0,0.0,1.0,0.0,0.0,0.0,1.0
1463846628202596140,246,1463846628194055659,,33.9725646973,-0.918986558914,74.4122085571,0.0203770007938,1.0,0.0,0.0,0.0,1.0,0.0,0.0,0.0,1.0,-0.304878056049,1.58536589146,0.0,1.0,0.0,0.0,0.0,1.0,0.0,0.0,0.0,1.0,-0.92416184082,-0.809240161133,10.2280294922,1.0,0.0,0.0,0.0,1.0,0.0,0.0,0.0,1.0
1463846628221498972,247,1463846628214552751,,33.4936180115,-1.02035820484,74.3725280762,0.0204070005566,1.0,0.0,0.0,0.0,1.0,0.0,0.0,0.0,1.0,-0.487804889679,1.76829278469,0.365853667259,1.0,0.0,0.0,0.0,1.0,0.0,0.0,0.0,1.0,-0.952892260742,-0.847547387695,10.180145459,1.0,0.0,0.0,0.0,1.0,0.0,0.0,0.0,1.0
1463846628243033642,248,1463846628234832597,,33.0467834473,-1.12568378448,74.3298492432,0.020422000438,1.0,0.0,0.0,0.0,1.0,0.0,0.0,0.0,1.0,-0.304878056049,2.31707310677,0.426829278469,1.0,0.0,0.0,0.0,1.0,0.0,0.0,0.0,1.0,-1.07739082014,-0.928950244141,10.1609918457,1.0,0.0,0.0,0.0,1.0,0.0,0.0,0.0,1.0
1463846628288762583,249,1463846628255345106,,32.5934333801,-1.21223819256,74.2915420532,0.0205160006881,1.0,0.0,0.0,0.0,1.0,0.0,0.0,0.0,1.0,0.0,2.07317066193,0.243902444839,1.0,0.0,0.0,0.0,1.0,0.0,0.0,0.0,1.0,-1.01035310059,-0.837970581055,10.1992990723,1.0,0.0,0.0,0.0,1.0,0.0,0.0,0.0,1.0
1463846628289107644,250,1463846628275586618,,32.1581268311,-1.30017805099,74.2557830811,0.0202959999442,1.0,0.0,0.0,0.0,1.0,0.0,0.0,0.0,1.0,-0.18292683363,2.25609779358,0.304878056049,1.0,0.0,0.0,0.0,1.0,0.0,0.0,0.0,1.0,-1.01992990723,-0.847547387695,10.1609918457,1.0,0.0,0.0,0.0,1.0,0.0,0.0,0.0,1.0
1463846628319136388,251,1463846628296070220,,31.7419338226,-1.36752557755,74.236114502,0.0204050000757,1.0,0.0,0.0,0.0,1.0,0.0,0.0,0.0,1.0,0.0609756112099,2.25609779358,0.731707334518,1.0,0.0,0.0,0.0,1.0,0.0,0.0,0.0,1.0,-1.13963999023,-0.775721337891,10.0364933594,1.0,0.0,0.0,0.0,1.0,0.0,0.0,0.0,1.0
1463846628319446240,252,1463846628316678252,,31.3316898346,-1.4538462162,74.2040710449,0.0204199999571,1.0,0.0,0.0,0.0,1.0,0.0,0.0,0.0,1.0,-0.18292683363,2.37804889679,0.426829278469,1.0,0.0,0.0,0.0,1.0,0.0,0.0,0.0,1.0,-1.09175595703,-0.857124194336,9.95509050293,1.0,0.0,0.0,0.0,1.0,0.0,0.0,0.0,1.0
1463846628343724314,253,1463846628336943619,,30.921037674,-1.54750204086,74.168838501,0.0204070005566,1.0,0.0,0.0,0.0,1.0,0.0,0.0,0.0,1.0,-0.304878056049,2.31707310677,0.365853667259,1.0,0.0,0.0,0.0,1.0,0.0,0.0,0.0,1.0,-1.02471831055,-0.905008227539,9.95987890625,1.0,0.0,0.0,0.0,1.0,0.0,0.0,0.0,1.0
1463846628365299142,254,1463846628357457429,,30.5235271454,-1.61271166801,74.1503219604,0.0204160008579,1.0,0.0,0.0,0.0,1.0,0.0,0.0,0.0,1.0,-0.0609756112099,2.31707310677,0.609756112099,1.0,0.0,0.0,0.0,1.0,0.0,0.0,0.0,1.0,-1.10133276367,-0.780509741211,10.1131078125,1.0,0.0,0.0,0.0,1.0,0.0,0.0,0.0,1.0
1463846628381978844,255,1463846628377668889,,30.1218547821,-1.6709382534,74.1350860596,0.0203910004348,1.0,0.0,0.0,0.0,1.0,0.0,0.0,0.0,1.0,0.12195122242,1.76829278469,0.670731723309,1.0,0.0,0.0,0.0,1.0,0.0,0.0,0.0,1.0,-1.10133276367,-0.780509741211,10.180145459,1.0,0.0,0.0,0.0,1.0,0.0,0.0,0.0,1.0
1463846628412026911,256,1463846628398140823,,29.7348632812,-1.73066878319,74.1212387085,0.0204099994153,1.0,0.0,0.0,0.0,1.0,0.0,0.0,0.0,1.0,-0.0609756112099,1.8292683363,0.670731723309,1.0,0.0,0.0,0.0,1.0,0.0,0.0,0.0,1.0,-1.15879360352,-0.77093293457,10.1370498291,1.0,0.0,0.0,0.0,1.0,0.0,0.0,0.0,1.0
1463846628423720234,257,1463846628418496036,,29.3466510773,-1.78195762634,74.1072235107,0.0204000007361,1.0,0.0,0.0,0.0,1.0,0.0,0.0,0.0,1.0,0.18292683363,1.76829278469,0.548780500889,1.0,0.0,0.0,0.0,1.0,0.0,0.0,0.0,1.0,-1.07739082014,-0.737414111328,10.0412817627,1.0,0.0,0.0,0.0,1.0,0.0,0.0,0.0,1.0
1463846628444587699,258,1463846628439069745,,28.9556465149,-1.84663927555,74.0845336914,0.0204189997166,1.0,0.0,0.0,0.0,1.0,0.0,0.0,0.0,1.0,0.0,1.58536589146,0.304878056049,1.0,0.0,0.0,0.0,1.0,0.0,0.0,0.0,1.0,-1.03429511719,-0.809240161133,10.1609918457,1.0,0.0,0.0,0.0,1.0,0.0,0.0,0.0,1.0
1463846628461958408,259,1463846628459383446,,28.5771713257,-1.89672827721,74.0700073242,0.0204039998353,1.0,0.0,0.0,0.0,1.0,0.0,0.0,0.0,1.0,0.12195122242,1.8292683363,0.426829278469,1.0,0.0,0.0,0.0,1.0,0.0,0.0,0.0,1.0,-1.03429511719,-0.737414111328,10.1562034424,1.0,0.0,0.0,0.0,1.0,0.0,0.0,0.0,1.0
1463846628487328178,260,1463846628480036062,,28.2041130066,-1.9389976263,74.066116333,0.0204199999571,1.0,0.0,0.0,0.0,1.0,0.0,0.0,0.0,1.0,0.0,1.8292683363,0.731707334518,1.0,0.0,0.0,0.0,1.0,0.0,0.0,0.0,1.0,-1.01514150391,-0.689530078125,10.1131078125,1.0,0.0,0.0,0.0,1.0,0.0,0.0,0.0,1.0
1463846628507932095,261,1463846628500142884,,27.8348464966,-1.9939391613,74.0520629883,0.0203920006752,1.0,0.0,0.0,0.0,1.0,0.0,0.0,0.0,1.0,0.0,1.70731711388,0.487804889679,1.0,0.0,0.0,0.0,1.0,0.0,0.0,0.0,1.0,-1.01035310059,-0.780509741211,10.1705686523,1.0,0.0,0.0,0.0,1.0,0.0,0.0,0.0,1.0
1463846628535968861,262,1463846628520657944,,27.4720783234,-2.03861451149,74.044883728,0.0204189997166,1.0,0.0,0.0,0.0,1.0,0.0,0.0,0.0,1.0,0.243902444839,2.07317066193,0.731707334518,1.0,0.0,0.0,0.0,1.0,0.0,0.0,0.0,1.0,-0.928950244141,-0.76135612793,10.0843773926,1.0,0.0,0.0,0.0,1.0,0.0,0.0,0.0,1.0
1463846628544646689,263,1463846628541185245,,27.1141223907,-2.07381677628,74.0378417969,0.0204109996557,1.0,0.0,0.0,0.0,1.0,0.0,0.0,0.0,1.0,0.18292683363,1.34146344662,0.426829278469,1.0,0.0,0.0,0.0,1.0,0.0,0.0,0.0,1.0,-1.05823706072,-0.665588061523,10.1226846191,1.0,0.0,0.0,0.0,1.0,0.0,0.0,0.0,1.0
1463846628564180266,264,1463846628561506343,,26.7579574585,-2.11208677292,74.0282440186,0.0204000007361,1.0,0.0,0.0,0.0,1.0,0.0,0.0,0.0,1.0,-0.0609756112099,1.76829278469,0.243902444839,1.0,0.0,0.0,0.0,1.0,0.0,0.0,0.0,1.0,-0.928950244141,-0.641646044922,10.1370498291,1.0,0.0,0.0,0.0,1.0,0.0,0.0,0.0,1.0
1463846628586344276,265,1463846628581928953,,26.404176712,-2.13836765289,74.0235748291,0.0204189997166,1.0,0.0,0.0,0.0,1.0,0.0,0.0,0.0,1.0,0.243902444839,1.76829278469,0.365853667259,1.0,0.0,0.0,0.0,1.0,0.0,0.0,0.0,1.0,-0.890643017578,-0.612915625,10.1418382324,1.0,0.0,0.0,0.0,1.0,0.0,0.0,0.0,1.0
1463846628605286014,266,1463846628602275468,,26.0549621582,-2.16726064682,74.0111236572,0.0204210001975,1.0,0.0,0.0,0.0,1.0,0.0,0.0,0.0,1.0,0.12195122242,1.8292683363,-0.0609756112099,1.0,0.0,0.0,0.0,1.0,0.0,0.0,0.0,1.0,-0.861912597656,-0.584185168546,10.1370498291,1.0,0.0,0.0,0.0,1.0,0.0,0.0,0.0,1.0
1463846628640701304,267,1463846628622697193,,25.7140522003,-2.20833206177,73.9938583374,0.0203789994121,1.0,0.0,0.0,0.0,1.0,0.0,0.0,0.0,1.0,0.0609756112099,1.95121955872,-0.0609756112099,1.0,0.0,0.0,0.0,1.0,0.0,0.0,0.0,1.0,-0.837970581055,-0.670376464844,10.0364933594,1.0,0.0,0.0,0.0,1.0,0.0,0.0,0.0,1.0
1463846628661099955,268,1463846628643031572,,25.3841075897,-2.24793171883,73.9849090576,0.0204150006175,1.0,0.0,0.0,0.0,1.0,0.0,0.0,0.0,1.0,-0.0609756112099,2.31707310677,0.304878056049,1.0,0.0,0.0,0.0,1.0,0.0,0.0,0.0,1.0,-0.828393774414,-0.684741674805,10.2040874756,1.0,0.0,0.0,0.0,1.0,0.0,0.0,0.0,1.0
1463846628679287352,269,1463846628663414859,,25.0482616425,-2.30371403694,73.9710922241,0.0204029995948,1.0,0.0,0.0,0.0,1.0,0.0,0.0,0.0,1.0,-0.487804889679,1.70731711388,0.18292683363,1.0,0.0,0.0,0.0,1.0,0.0,0.0,0.0,1.0,-0.814028564453,-0.732625708008,10.0317049561,1.0,0.0,0.0,0.0,1.0,0.0,0.0,0.0,1.0
1463846628702310186,270,1463846628683888773,,24.7216682434,-2.34274053574,73.9549942017,0.0204819999635,1.0,0.0,0.0,0.0,1.0,0.0,0.0,0.0,1.0,-0.0609756112099,1.95121955872,-0.12195122242,1.0,0.0,0.0,0.0,1.0,0.0,0.0,0.0,1.0,-0.818816967773,-0.660799658203,10.1370498291,1.0,0.0,0.0,0.0,1.0,0.0,0.0,0.0,1.0
1463846628714634566,271,1463846628704323311,,24.426530838,-2.39332747459,73.93800354,0.0203380007297,1.0,0.0,0.0,0.0,1.0,0.0,0.0,0.0,1.0,-0.304878056049,2.5,0.0,1.0,0.0,0.0,0.0,1.0,0.0,0.0,0.0,1.0,-0.92416184082,-0.727837304687,10.0843773926,1.0,0.0,0.0,0.0,1.0,0.0,0.0,0.0,1.0
1463846628735896730,272,1463846628724681805,,24.1378211975,-2.42202210426,73.9343109131,0.0203980002552,1.0,0.0,0.0,0.0,1.0,0.0,0.0,0.0,1.0,-0.243902444839,2.37804889679,0.243902444839,1.0,0.0,0.0,0.0,1.0,0.0,0.0,0.0,1.0,-0.952892260742,-0.584185168546,10.0029745361,1.0,0.0,0.0,0.0,1.0,0.0,0.0,0.0,1.0
1463846628753765212,273,1463846628745061966,,23.8584365845,-2.44768953323,73.9286575317,0.0204680003226,1.0,0.0,0.0,0.0,1.0,0.0,0.0,0.0,1.0,-0.426829278469,2.68292689323,0.0,1.0,0.0,0.0,0.0,1.0,0.0,0.0,0.0,1.0,-0.943315454102,-0.517147558594,10.0221281494,1.0,0.0,0.0,0.0,1.0,0.0,0.0,0.0,1.0
1463846628781783279,274,1463846628765540047,,23.5952892303,-2.47888231277,73.9272079468,0.020367000252,1.0,0.0,0.0,0.0,1.0,0.0,0.0,0.0,1.0,-0.365853667259,2.43902444839,0.365853667259,1.0,0.0,0.0,0.0,1.0,0.0,0.0,0.0,1.0,-1.07260241682,-0.603338854892,10.0077629395,1.0,0.0,0.0,0.0,1.0,0.0,0.0,0.0,1.0
1463846628799763118,275,1463846628785853019,,23.3169078827,-2.50111579895,73.9301376343,0.0203990004957,1.0,0.0,0.0,0.0,1.0,0.0,0.0,0.0,1.0,-0.426829278469,2.19512200356,0.365853667259,1.0,0.0,0.0,0.0,1.0,0.0,0.0,0.0,1.0,-0.933738647461,-0.526724328702,9.99818613281,1.0,0.0,0.0,0.0,1.0,0.0,0.0,0.0,1.0
1463846628830874130,276,1463846628806805175,,23.0380687714,-2.52560710907,73.9307174683,0.0204199999571,1.0,0.0,0.0,0.0,1.0,0.0,0.0,0.0,1.0,-0.487804889679,1.8292683363,0.243902444839,1.0,0.0,0.0,0.0,1.0,0.0,0.0,0.0,1.0,-0.972045874023,-0.541089611728,10.1897222656,1.0,0.0,0.0,0.0,1.0,0.0,0.0,0.0,1.0
1463846628831439978,277,1463846628829628785,,22.7347354889,-2.5864739418,73.9098587036,0.0226349998266,1.0,0.0,0.0,0.0,1.0,0.0,0.0,0.0,1.0,-0.548780500889,1.76829278469,-0.18292683363,1.0,0.0,0.0,0.0,1.0,0.0,0.0,0.0,1.0,-0.981622680664,-0.751779321289,10.1562034424,1.0,0.0,0.0,0.0,1.0,0.0,0.0,0.0,1.0
1463846628853981653,278,1463846628847024442,,22.4947719574,-2.62457299232,73.8995437622,0.0181660000235,1.0,0.0,0.0,0.0,1.0,0.0,0.0,0.0,1.0,-0.426829278469,1.76829278469,0.0,1.0,0.0,0.0,0.0,1.0,0.0,0.0,0.0,1.0,-0.957680664062,-0.694318481445,10.1131078125,1.0,0.0,0.0,0.0,1.0,0.0,0.0,0.0,1.0
1463846628879531011,279,1463846628867722060,,22.2294540405,-2.66696548462,73.8880691528,0.0204169992357,1.0,0.0,0.0,0.0,1.0,0.0,0.0,0.0,1.0,-0.426829278469,1.8902438879,0.0,1.0,0.0,0.0,0.0,1.0,0.0,0.0,0.0,1.0,-0.948103857422,-0.708683691406,10.2759135254,1.0,0.0,0.0,0.0,1.0,0.0,0.0,0.0,1.0
1463846628903271884,280,1463846628887876955,,21.9530639648,-2.71567344666,73.8761291504,0.0204019993544,1.0,0.0,0.0,0.0,1.0,0.0,0.0,0.0,1.0,-0.792682945728,1.70731711388,-0.0609756112099,1.0,0.0,0.0,0.0,1.0,0.0,0.0,0.0,1.0,-0.823605371094,-0.699106884766,10.2088758789,1.0,0.0,0.0,0.0,1.0,0.0,0.0,0.0,1.0
1463846628923310682,281,1463846628908329723,,21.6930408478,-2.75581932068,73.8688049316,0.0204169992357,1.0,0.0,0.0,0.0,1.0,0.0,0.0,0.0,1.0,-0.670731723309,1.70731711388,0.0609756112099,1.0,0.0,0.0,0.0,1.0,0.0,0.0,0.0,1.0,-0.9193734375,-0.660799658203,10.1274730225,1.0,0.0,0.0,0.0,1.0,0.0,0.0,0.0,1.0
1463846628951435836,282,1463846628928717853,,21.4494972229,-2.78475618362,73.864654541,0.0204019993544,1.0,0.0,0.0,0.0,1.0,0.0,0.0,0.0,1.0,-0.548780500889,1.76829278469,0.0609756112099,1.0,0.0,0.0,0.0,1.0,0.0,0.0,0.0,1.0,-1.01514150391,-0.598550451572,10.1609918457,1.0,0.0,0.0,0.0,1.0,0.0,0.0,0.0,1.0
1463846628952159448,283,1463846628949099838,,21.2099647522,-2.81600093842,73.8623199463,0.0204140003771,1.0,0.0,0.0,0.0,1.0,0.0,0.0,0.0,1.0,-0.609756112099,1.8902438879,0.18292683363,1.0,0.0,0.0,0.0,1.0,0.0,0.0,0.0,1.0,-0.981622680664,-0.61770402832,10.1226846191,1.0,0.0,0.0,0.0,1.0,0.0,0.0,0.0,1.0
1463846628979977302,284,1463846628971527396,,20.9750137329,-2.86714243889,73.8470306396,0.0206000003964,1.0,0.0,0.0,0.0,1.0,0.0,0.0,0.0,1.0,-0.426829278469,1.64634156227,-0.0609756112099,1.0,0.0,0.0,0.0,1.0,0.0,0.0,0.0,1.0,-1.04866025408,-0.799663354492,10.1274730225,1.0,0.0,0.0,0.0,1.0,0.0,0.0,0.0,1.0
1463846629014961485,285,1463846628991200873,,20.7377929688,-2.91855311394,73.8338928223,0.0206439998001,1.0,0.0,0.0,0.0,1.0,0.0,0.0,0.0,1.0,-0.426829278469,1.8292683363,0.0609756112099,1.0,0.0,0.0,0.0,1.0,0.0,0.0,0.0,1.0,-0.962469067383,-0.823605371094,10.2040874756,1.0,0.0,0.0,0.0,1.0,0.0,0.0,0.0,1.0
1463846629015435872,286,1463846629010648250,,20.5231323242,-2.96919584274,73.8210449219,0.0199730005115,1.0,0.0,0.0,0.0,1.0,0.0,0.0,0.0,1.0,-0.670731723309,2.31707310677,0.0,1.0,0.0,0.0,0.0,1.0,0.0,0.0,0.0,1.0,-0.957680664062,-0.785298144531,10.0939541992,1.0,0.0,0.0,0.0,1.0,0.0,0.0,0.0,1.0
1463846629054779430,287,1463846629032498964,,20.3128814697,-3.00630664825,73.8162155151,0.0204109996557,1.0,0.0,0.0,0.0,1.0,0.0,0.0,0.0,1.0,-0.609756112099,2.25609779358,0.18292683363,1.0,0.0,0.0,0.0,1.0,0.0,0.0,0.0,1.0,-1.01035310059,-0.694318481445,10.0748005859,1.0,0.0,0.0,0.0,1.0,0.0,0.0,0.0,1.0
1463846629055193295,288,1463846629051236892,,20.107175827,-3.06397223473,73.802444458,0.0204089991748,1.0,0.0,0.0,0.0,1.0,0.0,0.0,0.0,1.0,-0.670731723309,2.13414645195,0.0609756112099,1.0,0.0,0.0,0.0,1.0,0.0,0.0,0.0,1.0,-1.04866025408,-0.861912597656,10.1753570557,1.0,0.0,0.0,0.0,1.0,0.0,0.0,0.0,1.0
1463846629104394241,289,1463846629072295138,,19.9041786194,-3.10430502892,73.7912063599,0.0205339994282,1.0,0.0,0.0,0.0,1.0,0.0,0.0,0.0,1.0,-0.670731723309,2.13414645195,-0.12195122242,1.0,0.0,0.0,0.0,1.0,0.0,0.0,0.0,1.0,-1.04866025408,-0.713472094727,10.165780249,1.0,0.0,0.0,0.0,1.0,0.0,0.0,0.0,1.0
1463846629105793443,290,1463846629094014600,,19.6731491089,-3.15120172501,73.7818450928,0.0216830000281,1.0,0.0,0.0,0.0,1.0,0.0,0.0,0.0,1.0,-0.548780500889,2.25609779358,0.12195122242,1.0,0.0,0.0,0.0,1.0,0.0,0.0,0.0,1.0,-0.842758984375,-0.790086547852,10.1705686523,1.0,0.0,0.0,0.0,1.0,0.0,0.0,0.0,1.0
1463846629178441551,291,1463846629113575830,,19.4924736023,-3.20020627975,73.7744293213,0.01900799945,1.0,0.0,0.0,0.0,1.0,0.0,0.0,0.0,1.0,-0.609756112099,2.43902444839,0.304878056049,1.0,0.0,0.0,0.0,1.0,0.0,0.0,0.0,1.0,-0.976834277344,-0.866701000977,10.1322614258,1.0,0.0,0.0,0.0,1.0,0.0,0.0,0.0,1.0
1463846629179016202,292,1463846629132727101,,19.297088623,-3.24715328217,73.762512207,0.0203949995339,1.0,0.0,0.0,0.0,1.0,0.0,0.0,0.0,1.0,-0.365853667259,2.01219511032,0.0609756112099,1.0,0.0,0.0,0.0,1.0,0.0,0.0,0.0,1.0,-1.00077629395,-0.847547387695,10.0221281494,1.0,0.0,0.0,0.0,1.0,0.0,0.0,0.0,1.0
1463846629179285948,293,1463846629156050614,,19.0890960693,-3.28642106056,73.753036499,0.0215460006148,1.0,0.0,0.0,0.0,1.0,0.0,0.0,0.0,1.0,0.0,2.19512200356,0.18292683363,1.0,0.0,0.0,0.0,1.0,0.0,0.0,0.0,1.0,-0.933738647461,-0.857124194336,10.1897222656,1.0,0.0,0.0,0.0,1.0,0.0,0.0,0.0,1.0
1463846629179676844,294,1463846629175115841,,18.9046955109,-3.32549166679,73.7432250977,0.0202060006559,1.0,0.0,0.0,0.0,1.0,0.0,0.0,0.0,1.0,-0.304878056049,2.13414645195,0.0609756112099,1.0,0.0,0.0,0.0,1.0,0.0,0.0,0.0,1.0,-1.00077629395,-0.818816967773,10.1226846191,1.0,0.0,0.0,0.0,1.0,0.0,0.0,0.0,1.0
1463846629292914688,295,1463846629193961948,,18.724407196,-3.3718214035,73.7324676514,0.0194789990783,1.0,0.0,0.0,0.0,1.0,0.0,0.0,0.0,1.0,-0.365853667259,2.13414645195,0.12195122242,1.0,0.0,0.0,0.0,1.0,0.0,0.0,0.0,1.0,-0.943315454102,-0.895431420898,10.1274730225,1.0,0.0,0.0,0.0,1.0,0.0,0.0,0.0,1.0
1463846629293261832,296,1463846629214365856,,18.5534648895,-3.40877628326,73.719581604,0.0204009991139,1.0,0.0,0.0,0.0,1.0,0.0,0.0,0.0,1.0,0.0609756112099,2.31707310677,0.0,1.0,0.0,0.0,0.0,1.0,0.0,0.0,0.0,1.0,-1.05823706072,-0.885854614258,10.285490332,1.0,0.0,0.0,0.0,1.0,0.0,0.0,0.0,1.0
1463846629293677676,297,1463846629234788149,,18.378194809,-3.44455361366,73.7068634033,0.0204240009189,1.0,0.0,0.0,0.0,1.0,0.0,0.0,0.0,1.0,-0.0609756112099,2.19512200356,-0.0609756112099,1.0,0.0,0.0,0.0,1.0,0.0,0.0,0.0,1.0,-1.00556469727,-0.852335791016,10.2184526855,1.0,0.0,0.0,0.0,1.0,0.0,0.0,0.0,1.0
1463846629294249253,298,1463846629255198463,,18.2074012756,-3.4722635746,73.7093276978,0.0204029995948,1.0,0.0,0.0,0.0,1.0,0.0,0.0,0.0,1.0,-0.365853667259,2.19512200356,0.487804889679,1.0,0.0,0.0,0.0,1.0,0.0,0.0,0.0,1.0,-1.01514150391,-0.775721337891,10.299855542,1.0,0.0,0.0,0.0,1.0,0.0,0.0,0.0,1.0
1463846629296414205,299,1463846629278676147,,18.053319931,-3.50270223618,73.7040863037,0.0214060004801,1.0,0.0,0.0,0.0,1.0,0.0,0.0,0.0,1.0,0.12195122242,2.5,0.304878056049,1.0,0.0,0.0,0.0,1.0,0.0,0.0,0.0,1.0,-1.12527478027,-0.847547387695,10.0843773926,1.0,0.0,0.0,0.0,1.0,0.0,0.0,0.0,1.0
1463846629386830788,300,1463846629298519258,,17.8936538696,-3.52774333954,73.7027359009,0.0200500003994,1.0,0.0,0.0,0.0,1.0,0.0,0.0,0.0,1.0,-0.12195122242,1.70731711388,0.304878056049,1.0,0.0,0.0,0.0,1.0,0.0,0.0,0.0,1.0,-1.09654436035,-0.780509741211,10.0364933594,1.0,0.0,0.0,0.0,1.0,0.0,0.0,0.0,1.0
1463846629387145067,301,1463846629320439611,,17.7394580841,-3.53293180466,73.7086486816,0.0198079999536,1.0,0.0,0.0,0.0,1.0,0.0,0.0,0.0,1.0,0.0,2.01219511032,0.426829278469,1.0,0.0,0.0,0.0,1.0,0.0,0.0,0.0,1.0,-1.04866025408,-0.646434448242,10.0891657959,1.0,0.0,0.0,0.0,1.0,0.0,0.0,0.0,1.0
1463846629388492133,302,1463846629336939512,,17.5857219696,-3.54831194878,73.7128601074,0.0203779991716,1.0,0.0,0.0,0.0,1.0,0.0,0.0,0.0,1.0,0.18292683363,2.01219511032,0.548780500889,1.0,0.0,0.0,0.0,1.0,0.0,0.0,0.0,1.0,-1.08696755371,-0.785298144531,10.2950671387,1.0,0.0,0.0,0.0,1.0,0.0,0.0,0.0,1.0
1463846629389964931,303,1463846629357272063,,17.4403915405,-3.55824112892,73.7113952637,0.0203980002552,1.0,0.0,0.0,0.0,1.0,0.0,0.0,0.0,1.0,0.487804889679,1.64634156227,0.243902444839,1.0,0.0,0.0,0.0,1.0,0.0,0.0,0.0,1.0,-1.19710090314,-0.77093293457,10.1897222656,1.0,0.0,0.0,0.0,1.0,0.0,0.0,0.0,1.0
1463846629391505335,304,1463846629377754462,,17.2954654694,-3.57332634926,73.7135543823,0.0204099994153,1.0,0.0,0.0,0.0,1.0,0.0,0.0,0.0,1.0,0.0,1.8292683363,0.365853667259,1.0,0.0,0.0,0.0,1.0,0.0,0.0,0.0,1.0,-1.11569797363,-0.723048901367,9.98382092285,1.0,0.0,0.0,0.0,1.0,0.0,0.0,0.0,1.0
1463846629572900808,305,1463846629400295664,,17.1252422333,-3.5682926178,73.7181777954,0.0204240009189,1.0,0.0,0.0,0.0,1.0,0.0,0.0,0.0,1.0,0.18292683363,1.8902438879,0.243902444839,1.0,0.0,0.0,0.0,1.0,0.0,0.0,0.0,1.0,-0.857124194336,-0.584185168546,10.0125513428,1.0,0.0,0.0,0.0,1.0,0.0,0.0,0.0,1.0
1463846629573229983,306,1463846629418655925,,16.9794902802,-3.5767531395,73.7220001221,0.0205099992454,1.0,0.0,0.0,0.0,1.0,0.0,0.0,0.0,1.0,-0.12195122242,1.76829278469,0.304878056049,1.0,0.0,0.0,0.0,1.0,0.0,0.0,0.0,1.0,-1.09654436035,-0.660799658203,10.2232410889,1.0,0.0,0.0,0.0,1.0,0.0,0.0,0.0,1.0
1463846629574550850,307,1463846629438916808,,16.8412723541,-3.58088898659,73.7245254517,0.0202990006655,1.0,0.0,0.0,0.0,1.0,0.0,0.0,0.0,1.0,0.243902444839,2.01219511032,0.304878056049,1.0,0.0,0.0,0.0,1.0,0.0,0.0,0.0,1.0,-1.05823706072,-0.675164868164,10.0221281494,1.0,0.0,0.0,0.0,1.0,0.0,0.0,0.0,1.0
1463846629574917005,308,1463846629459311288,,16.6883678436,-3.5951359272,73.724822998,0.0204029995948,1.0,0.0,0.0,0.0,1.0,0.0,0.0,0.0,1.0,0.365853667259,1.8292683363,0.365853667259,1.0,0.0,0.0,0.0,1.0,0.0,0.0,0.0,1.0,-0.948103857422,-0.790086547852,10.0891657959,1.0,0.0,0.0,0.0,1.0,0.0,0.0,0.0,1.0
1463846629576115942,309,1463846629480366045,,16.5446777344,-3.59426927567,73.724571228,0.0205119997263,1.0,0.0,0.0,0.0,1.0,0.0,0.0,0.0,1.0,0.304878056049,2.25609779358,0.12195122242,1.0,0.0,0.0,0.0,1.0,0.0,0.0,0.0,1.0,-0.943315454102,-0.646434448242,10.180145459,1.0,0.0,0.0,0.0,1.0,0.0,0.0,0.0,1.0
1463846629576499650,310,1463846629500234730,,16.4136123657,-3.60011959076,73.7259902954,0.0202939994633,1.0,0.0,0.0,0.0,1.0,0.0,0.0,0.0,1.0,0.12195122242,2.13414645195,0.243902444839,1.0,0.0,0.0,0.0,1.0,0.0,0.0,0.0,1.0,-1.03429511719,-0.675164868164,10.1274730225,1.0,0.0,0.0,0.0,1.0,0.0,0.0,0.0,1.0
1463846629577678482,311,1463846629522199667,,16.27368927,-3.59463000298,73.7262268066,0.0208689998835,1.0,0.0,0.0,0.0,1.0,0.0,0.0,0.0,1.0,0.426829278469,2.31707310677,0.12195122242,1.0,0.0,0.0,0.0,1.0,0.0,0.0,0.0,1.0,-0.933738647461,-0.627280834961,10.1370498291,1.0,0.0,0.0,0.0,1.0,0.0,0.0,0.0,1.0
1463846629578088857,312,1463846629542805819,,16.1329574585,-3.58714008331,73.7324447632,0.020646000281,1.0,0.0,0.0,0.0,1.0,0.0,0.0,0.0,1.0,-0.12195122242,2.5,0.243902444839,1.0,0.0,0.0,0.0,1.0,0.0,0.0,0.0,1.0,-0.847547387695,-0.517147558594,10.0843773926,1.0,0.0,0.0,0.0,1.0,0.0,0.0,0.0,1.0
1463846629672056469,313,1463846629561535101,,16.001039505,-3.58385801315,73.7297973633,0.0197260007262,1.0,0.0,0.0,0.0,1.0,0.0,0.0,0.0,1.0,-0.0609756112099,1.70731711388,-0.18292683363,1.0,0.0,0.0,0.0,1.0,0.0,0.0,0.0,1.0,-0.986411083984,-0.536301208408,9.99339772949,1.0,0.0,0.0,0.0,1.0,0.0,0.0,0.0,1.0
1463846629672559295,314,1463846629582049427,,15.862370491,-3.57397794724,73.7312088013,0.0204009991139,1.0,0.0,0.0,0.0,1.0,0.0,0.0,0.0,1.0,0.0609756112099,2.13414645195,0.0,1.0,0.0,0.0,0.0,1.0,0.0,0.0,0.0,1.0,-0.876277807617,-0.517147558594,10.1322614258,1.0,0.0,0.0,0.0,1.0,0.0,0.0,0.0,1.0
1463846629672887272,315,1463846629602134524,,15.7330036163,-3.56719708443,73.7351913452,0.0204050000757,1.0,0.0,0.0,0.0,1.0,0.0,0.0,0.0,1.0,0.243902444839,2.37804889679,0.243902444839,1.0,0.0,0.0,0.0,1.0,0.0,0.0,0.0,1.0,-0.895431420898,-0.588973571866,10.2088758789,1.0,0.0,0.0,0.0,1.0,0.0,0.0,0.0,1.0
1463846629673222437,316,1463846629622588537,,15.6131343842,-3.56618618965,73.7366485596,0.0204089991748,1.0,0.0,0.0,0.0,1.0,0.0,0.0,0.0,1.0,-0.243902444839,2.43902444839,0.0609756112099,1.0,0.0,0.0,0.0,1.0,0.0,0.0,0.0,1.0,-0.9193734375,-0.526724328702,9.90720646973,1.0,0.0,0.0,0.0,1.0,0.0,0.0,0.0,1.0
1463846629805309253,317,1463846629642969371,,15.4715719223,-3.56486940384,73.7332763672,0.0204050000757,1.0,0.0,0.0,0.0,1.0,0.0,0.0,0.0,1.0,-0.0609756112099,1.70731711388,-0.18292683363,1.0,0.0,0.0,0.0,1.0,0.0,0.0,0.0,1.0,-0.857124194336,-0.555454785156,10.0843773926,1.0,0.0,0.0,0.0,1.0,0.0,0.0,0.0,1.0
1463846629806631734,318,1463846629663836676,,15.3381843567,-3.58959984779,73.7269363403,0.0204070005566,1.0,0.0,0.0,0.0,1.0,0.0,0.0,0.0,1.0,-0.18292683363,1.8902438879,0.0,1.0,0.0,0.0,0.0,1.0,0.0,0.0,0.0,1.0,-0.885854614258,-0.775721337891,10.2519715088,1.0,0.0,0.0,0.0,1.0,0.0,0.0,0.0,1.0
1463846629807750565,319,1463846629685557804,,15.2131843567,-3.58659076691,73.729133606,0.0204130001366,1.0,0.0,0.0,0.0,1.0,0.0,0.0,0.0,1.0,0.0,2.07317066193,0.12195122242,1.0,0.0,0.0,0.0,1.0,0.0,0.0,0.0,1.0,-0.895431420898,-0.574608398438,10.180145459,1.0,0.0,0.0,0.0,1.0,0.0,0.0,0.0,1.0
1463846629808065313,320,1463846629704229011,,15.0803642273,-3.61070275307,73.7197341919,0.0204050000757,1.0,0.0,0.0,0.0,1.0,0.0,0.0,0.0,1.0,-0.426829278469,1.70731711388,-0.243902444839,1.0,0.0,0.0,0.0,1.0,0.0,0.0,0.0,1.0,-0.871489404297,-0.713472094727,10.1514150391,1.0,0.0,0.0,0.0,1.0,0.0,0.0,0.0,1.0
1463846629809290344,321,1463846629728355357,,14.9459161758,-3.62462520599,73.7183837891,0.0231350008398,1.0,0.0,0.0,0.0,1.0,0.0,0.0,0.0,1.0,-0.365853667259,2.13414645195,0.0609756112099,1.0,0.0,0.0,0.0,1.0,0.0,0.0,0.0,1.0,-0.895431420898,-0.641646044922,10.1705686523,1.0,0.0,0.0,0.0,1.0,0.0,0.0,0.0,1.0
1463846629809612748,322,1463846629745088806,,14.8521547318,-3.61585307121,73.7294464111,0.0176849998534,1.0,0.0,0.0,0.0,1.0,0.0,0.0,0.0,1.0,-0.365853667259,2.31707310677,0.487804889679,1.0,0.0,0.0,0.0,1.0,0.0,0.0,0.0,1.0,-0.890643017578,-0.45489831543,9.81143840332,1.0,0.0,0.0,0.0,1.0,0.0,0.0,0.0,1.0
1463846629809886766,323,1463846629765611154,,14.7523803711,-3.61591219902,73.742767334,0.0204179994762,1.0,0.0,0.0,0.0,1.0,0.0,0.0,0.0,1.0,-0.487804889679,2.19512200356,0.609756112099,1.0,0.0,0.0,0.0,1.0,0.0,0.0,0.0,1.0,-0.986411083984,-0.531512805087,9.97903251953,1.0,0.0,0.0,0.0,1.0,0.0,0.0,0.0,1.0
1463846629810179794,324,1463846629786684662,,14.6575975418,-3.62511658669,73.7483978271,0.0211779996753,1.0,0.0,0.0,0.0,1.0,0.0,0.0,0.0,1.0,-0.548780500889,2.13414645195,0.304878056049,1.0,0.0,0.0,0.0,1.0,0.0,0.0,0.0,1.0,-1.06302561017,-0.584185168546,10.0269165527,1.0,0.0,0.0,0.0,1.0,0.0,0.0,0.0,1.0
1463846629921324304,325,1463846629806286674,,14.5421485901,-3.63106179237,73.751083374,0.0196330007166,1.0,0.0,0.0,0.0,1.0,0.0,0.0,0.0,1.0,-0.304878056049,1.8292683363,0.18292683363,1.0,0.0,0.0,0.0,1.0,0.0,0.0,0.0,1.0,-0.852335791016,-0.603338854892,10.0748005859,1.0,0.0,0.0,0.0,1.0,0.0,0.0,0.0,1.0
1463846629921614676,326,1463846629827455027,,14.4333257675,-3.63424134254,73.7543334961,0.0206359997392,1.0,0.0,0.0,0.0,1.0,0.0,0.0,0.0,1.0,-0.487804889679,1.8902438879,0.12195122242,1.0,0.0,0.0,0.0,1.0,0.0,0.0,0.0,1.0,-0.943315454102,-0.550666381836,10.1992990723,1.0,0.0,0.0,0.0,1.0,0.0,0.0,0.0,1.0
1463846629921895516,327,1463846629847272461,,14.3376750946,-3.65981793404,73.7574768066,0.0201859995723,1.0,0.0,0.0,0.0,1.0,0.0,0.0,0.0,1.0,-0.731707334518,2.19512200356,0.365853667259,1.0,0.0,0.0,0.0,1.0,0.0,0.0,0.0,1.0,-0.976834277344,-0.723048901367,10.3285859619,1.0,0.0,0.0,0.0,1.0,0.0,0.0,0.0,1.0
1463846629922174377,328,1463846629868638946,,14.2378635406,-3.67989635468,73.7545166016,0.020571000874,1.0,0.0,0.0,0.0,1.0,0.0,0.0,0.0,1.0,-0.548780500889,1.70731711388,0.0,1.0,0.0,0.0,0.0,1.0,0.0,0.0,0.0,1.0,-1.00556469727,-0.675164868164,10.060435376,1.0,0.0,0.0,0.0,1.0,0.0,0.0,0.0,1.0
1463846629922474281,329,1463846629888679562,,14.1287727356,-3.70027923584,73.7475357056,0.0204910002649,1.0,0.0,0.0,0.0,1.0,0.0,0.0,0.0,1.0,-0.487804889679,1.70731711388,-0.18292683363,1.0,0.0,0.0,0.0,1.0,0.0,0.0,0.0,1.0,-0.92416184082,-0.699106884766,10.2759135254,1.0,0.0,0.0,0.0,1.0,0.0,0.0,0.0,1.0
1463846629923779158,330,1463846629908561425,,14.0310182571,-3.70910286903,73.7431716919,0.0201559998095,1.0,0.0,0.0,0.0,1.0,0.0,0.0,0.0,1.0,-0.487804889679,1.8902438879,-0.18292683363,1.0,0.0,0.0,0.0,1.0,0.0,0.0,0.0,1.0,-0.933738647461,-0.588973571866,10.0269165527,1.0,0.0,0.0,0.0,1.0,0.0,0.0,0.0,1.0
1463846630015340822,331,1463846629928730743,,13.9403657913,-3.70302391052,73.7510299683,0.0204029995948,1.0,0.0,0.0,0.0,1.0,0.0,0.0,0.0,1.0,-0.365853667259,2.19512200356,0.304878056049,1.0,0.0,0.0,0.0,1.0,0.0,0.0,0.0,1.0,-0.943315454102,-0.512359155273,10.180145459,1.0,0.0,0.0,0.0,1.0,0.0,0.0,0.0,1.0
1463846630015682809,332,1463846629949087930,,13.8547143936,-3.73681712151,73.7464828491,0.0204089991748,1.0,0.0,0.0,0.0,1.0,0.0,0.0,0.0,1.0,-0.731707334518,1.95121955872,0.0609756112099,1.0,0.0,0.0,0.0,1.0,0.0,0.0,0.0,1.0,-1.01514150391,-0.775721337891,10.1178962158,1.0,0.0,0.0,0.0,1.0,0.0,0.0,0.0,1.0
1463846630015956566,333,1463846629969597309,,13.7680912018,-3.76432299614,73.7368240356,0.0204099994153,1.0,0.0,0.0,0.0,1.0,0.0,0.0,0.0,1.0,-0.365853667259,1.95121955872,-0.18292683363,1.0,0.0,0.0,0.0,1.0,0.0,0.0,0.0,1.0,-1.00556469727,-0.790086547852,10.2328178955,1.0,0.0,0.0,0.0,1.0,0.0,0.0,0.0,1.0
1463846630016265376,334,1463846629990154450,,13.6829366684,-3.80410456657,73.7317810059,0.0204169992357,1.0,0.0,0.0,0.0,1.0,0.0,0.0,0.0,1.0,-0.914634168148,1.8902438879,0.0609756112099,1.0,0.0,0.0,0.0,1.0,0.0,0.0,0.0,1.0,-1.01035310059,-0.814028564453,10.2184526855,1.0,0.0,0.0,0.0,1.0,0.0,0.0,0.0,1.0
1463846630095076853,335,1463846630010726486,,13.6010780334,-3.83824777603,73.7250366211,0.0204809997231,1.0,0.0,0.0,0.0,1.0,0.0,0.0,0.0,1.0,-0.609756112099,2.13414645195,0.0,1.0,0.0,0.0,0.0,1.0,0.0,0.0,0.0,1.0,-0.967257470703,-0.809240161133,10.060435376,1.0,0.0,0.0,0.0,1.0,0.0,0.0,0.0,1.0
1463846630095390767,336,1463846630030898820,,13.5267438889,-3.86254906654,73.721031189,0.0203249994665,1.0,0.0,0.0,0.0,1.0,0.0,0.0,0.0,1.0,-0.487804889679,2.25609779358,0.0609756112099,1.0,0.0,0.0,0.0,1.0,0.0,0.0,0.0,1.0,-0.991199487305,-0.756567724609,10.060435376,1.0,0.0,0.0,0.0,1.0,0.0,0.0,0.0,1.0
1463846630095687962,337,1463846630051683357,,13.4439678192,-3.8885614872,73.7155303955,0.0204259995371,1.0,0.0,0.0,0.0,1.0,0.0,0.0,0.0,1.0,-0.426829278469,1.95121955872,0.0,1.0,0.0,0.0,0.0,1.0,0.0,0.0,0.0,1.0,-0.976834277344,-0.794874951172,10.2088758789,1.0,0.0,0.0,0.0,1.0,0.0,0.0,0.0,1.0
1463846630095959948,338,1463846630071683239,,13.3553476334,-3.9223947525,73.7074966431,0.0203930009156,1.0,0.0,0.0,0.0,1.0,0.0,0.0,0.0,1.0,-0.792682945728,1.95121955872,-0.12195122242,1.0,0.0,0.0,0.0,1.0,0.0,0.0,0.0,1.0,-0.900219824219,-0.790086547852,10.1083194092,1.0,0.0,0.0,0.0,1.0,0.0,0.0,0.0,1.0
1463846630157149311,339,1463846630092397774,,13.2698516846,-3.95819115639,73.7071685791,0.0204050000757,1.0,0.0,0.0,0.0,1.0,0.0,0.0,0.0,1.0,-0.426829278469,1.76829278469,0.365853667259,1.0,0.0,0.0,0.0,1.0,0.0,0.0,0.0,1.0,-0.948103857422,-0.905008227539,10.1897222656,1.0,0.0,0.0,0.0,1.0,0.0,0.0,0.0,1.0
1463846630157435308,340,1463846630112480627,,13.1981449127,-3.98773169518,73.7041244507,0.0204150006175,1.0,0.0,0.0,0.0,1.0,0.0,0.0,0.0,1.0,-0.426829278469,2.13414645195,0.18292683363,1.0,0.0,0.0,0.0,1.0,0.0,0.0,0.0,1.0,-0.991199487305,-0.847547387695,10.180145459,1.0,0.0,0.0,0.0,1.0,0.0,0.0,0.0,1.0
1463846630207300791,341,1463846630132866925,,13.1282577515,-4.01833963394,73.7010879517,0.0203939992934,1.0,0.0,0.0,0.0,1.0,0.0,0.0,0.0,1.0,-0.243902444839,2.19512200356,0.243902444839,1.0,0.0,0.0,0.0,1.0,0.0,0.0,0.0,1.0,-0.991199487305,-0.905008227539,10.2711251221,1.0,0.0,0.0,0.0,1.0,0.0,0.0,0.0,1.0
1463846630208534103,342,1463846630153260254,,13.0541305542,-4.05311727524,73.6962051392,0.0204140003771,1.0,0.0,0.0,0.0,1.0,0.0,0.0,0.0,1.0,-0.0609756112099,2.19512200356,0.243902444839,1.0,0.0,0.0,0.0,1.0,0.0,0.0,0.0,1.0,-0.933738647461,-0.972045874023,10.1945106689,1.0,0.0,0.0,0.0,1.0,0.0,0.0,0.0,1.0
1463846630208943072,343,1463846630173657178,,12.9812059402,-4.08456802368,73.6904830933,0.0204130001366,1.0,0.0,0.0,0.0,1.0,0.0,0.0,0.0,1.0,-0.18292683363,2.01219511032,0.12195122242,1.0,0.0,0.0,0.0,1.0,0.0,0.0,0.0,1.0,-0.972045874023,-0.928950244141,10.2567599121,1.0,0.0,0.0,0.0,1.0,0.0,0.0,0.0,1.0
1463846630209282716,344,1463846630194138113,,12.9172210693,-4.10700273514,73.6890182495,0.0203920006752,1.0,0.0,0.0,0.0,1.0,0.0,0.0,0.0,1.0,-0.18292683363,2.13414645195,0.243902444839,1.0,0.0,0.0,0.0,1.0,0.0,0.0,0.0,1.0,-1.01035310059,-0.857124194336,10.2136642822,1.0,0.0,0.0,0.0,1.0,0.0,0.0,0.0,1.0
1463846630288494046,345,1463846630214528005,,12.8568439484,-4.13384866714,73.6870956421,0.0204179994762,1.0,0.0,0.0,0.0,1.0,0.0,0.0,0.0,1.0,-0.304878056049,2.13414645195,0.243902444839,1.0,0.0,0.0,0.0,1.0,0.0,0.0,0.0,1.0,-1.02471831055,-0.871489404297,10.1418382324,1.0,0.0,0.0,0.0,1.0,0.0,0.0,0.0,1.0
1463846630288928797,346,1463846630234837322,,12.8042058945,-4.16196155548,73.6825408936,0.0204089991748,1.0,0.0,0.0,0.0,1.0,0.0,0.0,0.0,1.0,-0.0609756112099,2.13414645195,0.18292683363,1.0,0.0,0.0,0.0,1.0,0.0,0.0,0.0,1.0,-1.09654436035,-0.938527050781,10.2567599121,1.0,0.0,0.0,0.0,1.0,0.0,0.0,0.0,1.0
1463846630289234117,347,1463846630255326331,,12.7456827164,-4.1753115654,73.6864929199,0.020422000438,1.0,0.0,0.0,0.0,1.0,0.0,0.0,0.0,1.0,0.12195122242,2.13414645195,0.487804889679,1.0,0.0,0.0,0.0,1.0,0.0,0.0,0.0,1.0,-1.01514150391,-0.847547387695,10.1178962158,1.0,0.0,0.0,0.0,1.0,0.0,0.0,0.0,1.0
1463846630291185208,348,1463846630275754348,,12.6922149658,-4.18181371689,73.6879196167,0.0204119998962,1.0,0.0,0.0,0.0,1.0,0.0,0.0,0.0,1.0,0.0,1.95121955872,0.243902444839,1.0,0.0,0.0,0.0,1.0,0.0,0.0,0.0,1.0,-1.08696755371,-0.76135612793,10.1322614258,1.0,0.0,0.0,0.0,1.0,0.0,0.0,0.0,1.0
1463846630344795161,349,1463846630296205596,,12.6405267715,-4.18026399612,73.6890029907,0.0203920006752,1.0,0.0,0.0,0.0,1.0,0.0,0.0,0.0,1.0,0.487804889679,1.8902438879,0.243902444839,1.0,0.0,0.0,0.0,1.0,0.0,0.0,0.0,1.0,-1.10612116699,-0.780509741211,10.1514150391,1.0,0.0,0.0,0.0,1.0,0.0,0.0,0.0,1.0
1463846630345151941,350,1463846630316482516,,12.5834112167,-4.19405698776,73.6938552856,0.020408000797,1.0,0.0,0.0,0.0,1.0,0.0,0.0,0.0,1.0,0.0,1.8292683363,0.487804889679,1.0,0.0,0.0,0.0,1.0,0.0,0.0,0.0,1.0,-1.05823706072,-0.837970581055,10.165780249,1.0,0.0,0.0,0.0,1.0,0.0,0.0,0.0,1.0
1463846630382869563,351,1463846630337100643,,12.5306787491,-4.1931977272,73.6974716187,0.0204179994762,1.0,0.0,0.0,0.0,1.0,0.0,0.0,0.0,1.0,0.365853667259,2.07317066193,0.365853667259,1.0,0.0,0.0,0.0,1.0,0.0,0.0,0.0,1.0,-1.04866025408,-0.775721337891,10.2088758789,1.0,0.0,0.0,0.0,1.0,0.0,0.0,0.0,1.0
1463846630383173217,352,1463846630357411991,,12.4816303253,-4.19630765915,73.6983108521,0.0203920006752,1.0,0.0,0.0,0.0,1.0,0.0,0.0,0.0,1.0,0.487804889679,2.19512200356,0.304878056049,1.0,0.0,0.0,0.0,1.0,0.0,0.0,0.0,1.0,-1.02471831055,-0.809240161133,9.96466730957,1.0,0.0,0.0,0.0,1.0,0.0,0.0,0.0,1.0
1463846630421031624,353,1463846630377661827,,12.4346475601,-4.19388628006,73.6960144043,0.0204089991748,1.0,0.0,0.0,0.0,1.0,0.0,0.0,0.0,1.0,0.487804889679,1.8292683363,0.0609756112099,1.0,0.0,0.0,0.0,1.0,0.0,0.0,0.0,1.0,-1.10612116699,-0.756567724609,9.99339772949,1.0,0.0,0.0,0.0,1.0,0.0,0.0,0.0,1.0
1463846630421323663,354,1463846630398263130,,12.3807411194,-4.18548965454,73.7015609741,0.0204300004989,1.0,0.0,0.0,0.0,1.0,0.0,0.0,0.0,1.0,0.365853667259,1.8902438879,0.365853667259,1.0,0.0,0.0,0.0,1.0,0.0,0.0,0.0,1.0,-1.03429511719,-0.703895288086,10.1131078125,1.0,0.0,0.0,0.0,1.0,0.0,0.0,0.0,1.0
1463846630449188952,355,1463846630419099804,,12.328546524,-4.18241691589,73.7031173706,0.0204000007361,1.0,0.0,0.0,0.0,1.0,0.0,0.0,0.0,1.0,0.12195122242,2.07317066193,0.18292683363,1.0,0.0,0.0,0.0,1.0,0.0,0.0,0.0,1.0,-1.01035310059,-0.699106884766,10.1322614258,1.0,0.0,0.0,0.0,1.0,0.0,0.0,0.0,1.0
1463846630449489064,356,1463846630439014319,,12.2773065567,-4.17422819138,73.707069397,0.0203939992934,1.0,0.0,0.0,0.0,1.0,0.0,0.0,0.0,1.0,0.12195122242,2.01219511032,0.243902444839,1.0,0.0,0.0,0.0,1.0,0.0,0.0,0.0,1.0,-1.01035310059,-0.651222851562,10.046070166,1.0,0.0,0.0,0.0,1.0,0.0,0.0,0.0,1.0
1463846630482817721,357,1463846630459376554,,12.2155132294,-4.16075897217,73.7137374878,0.0205129999667,1.0,0.0,0.0,0.0,1.0,0.0,0.0,0.0,1.0,0.365853667259,1.8902438879,0.365853667259,1.0,0.0,0.0,0.0,1.0,0.0,0.0,0.0,1.0,-0.928950244141,-0.651222851562,10.0221281494,1.0,0.0,0.0,0.0,1.0,0.0,0.0,0.0,1.0
1463846630483184554,358,1463846630479926971,,12.1580638885,-4.15414476395,73.7167510986,0.0203079991043,1.0,0.0,0.0,0.0,1.0,0.0,0.0,0.0,1.0,0.18292683363,2.25609779358,0.243902444839,1.0,0.0,0.0,0.0,1.0,0.0,0.0,0.0,1.0,-0.895431420898,-0.675164868164,10.1131078125,1.0,0.0,0.0,0.0,1.0,0.0,0.0,0.0,1.0
1463846630503327564,359,1463846630500095868,,12.0979356766,-4.12835407257,73.7253189087,0.0204009991139,1.0,0.0,0.0,0.0,1.0,0.0,0.0,0.0,1.0,0.18292683363,2.07317066193,0.304878056049,1.0,0.0,0.0,0.0,1.0,0.0,0.0,0.0,1.0,-0.895431420898,-0.512359155273,10.1226846191,1.0,0.0,0.0,0.0,1.0,0.0,0.0,0.0,1.0
1463846630522737743,360,1463846630520538156,,12.0444097519,-4.11001443863,73.7356185913,0.0204109996557,1.0,0.0,0.0,0.0,1.0,0.0,0.0,0.0,1.0,0.304878056049,1.95121955872,0.487804889679,1.0,0.0,0.0,0.0,1.0,0.0,0.0,0.0,1.0,-0.952892260742,-0.593762048251,10.0077629395,1.0,0.0,0.0,0.0,1.0,0.0,0.0,0.0,1.0
1463846630543424205,361,1463846630540962737,,11.9914798737,-4.09419155121,73.7403717041,0.0204210001975,1.0,0.0,0.0,0.0,1.0,0.0,0.0,0.0,1.0,0.0,2.13414645195,0.18292683363,1.0,0.0,0.0,0.0,1.0,0.0,0.0,0.0,1.0,-0.933738647461,-0.555454785156,10.1562034424,1.0,0.0,0.0,0.0,1.0,0.0,0.0,0.0,1.0
1463846630565603726,362,1463846630561460496,,11.9293193817,-4.07801055908,73.749458313,0.0204099994153,1.0,0.0,0.0,0.0,1.0,0.0,0.0,0.0,1.0,-0.0609756112099,1.8902438879,0.365853667259,1.0,0.0,0.0,0.0,1.0,0.0,0.0,0.0,1.0,-0.890643017578,-0.550666381836,10.2376062988,1.0,0.0,0.0,0.0,1.0,0.0,0.0,0.0,1.0
1463846630585182399,363,1463846630581904347,,11.8731222153,-4.05688428879,73.752456665,0.0204460006207,1.0,0.0,0.0,0.0,1.0,0.0,0.0,0.0,1.0,0.12195122242,2.07317066193,0.0609756112099,1.0,0.0,0.0,0.0,1.0,0.0,0.0,0.0,1.0,-0.881066210937,-0.512359155273,9.98382092285,1.0,0.0,0.0,0.0,1.0,0.0,0.0,0.0,1.0
1463846630616290323,364,1463846630602253248,,11.8172979355,-4.02527856827,73.7612686157,0.0203479994088,1.0,0.0,0.0,0.0,1.0,0.0,0.0,0.0,1.0,0.12195122242,2.07317066193,0.243902444839,1.0,0.0,0.0,0.0,1.0,0.0,0.0,0.0,1.0,-0.881066210937,-0.430956298828,10.1178962158,1.0,0.0,0.0,0.0,1.0,0.0,0.0,0.0,1.0
1463846630634459012,365,1463846630622590066,,11.7567548752,-4.01872491837,73.7618713379,0.0204199999571,1.0,0.0,0.0,0.0,1.0,0.0,0.0,0.0,1.0,-0.304878056049,2.07317066193,0.0,1.0,0.0,0.0,0.0,1.0,0.0,0.0,0.0,1.0,-0.823605371094,-0.550666381836,9.98382092285,1.0,0.0,0.0,0.0,1.0,0.0,0.0,0.0,1.0
1463846630646960475,366,1463846630643993681,,11.7034044266,-4.01375818253,73.76197052,0.020875999704,1.0,0.0,0.0,0.0,1.0,0.0,0.0,0.0,1.0,-0.0609756112099,2.31707310677,0.0609756112099,1.0,0.0,0.0,0.0,1.0,0.0,0.0,0.0,1.0,-0.842758984375,-0.60812722168,9.98860932617,1.0,0.0,0.0,0.0,1.0,0.0,0.0,0.0,1.0
1463846630689325090,367,1463846630663418705,,11.6431627274,-4.01333141327,73.7602157593,0.0199410002679,1.0,0.0,0.0,0.0,1.0,0.0,0.0,0.0,1.0,-0.243902444839,1.8292683363,-0.0609756112099,1.0,0.0,0.0,0.0,1.0,0.0,0.0,0.0,1.0,-0.842758984375,-0.612915625,10.0364933594,1.0,0.0,0.0,0.0,1.0,0.0,0.0,0.0,1.0
1463846630690807993,368,1463846630683834222,,11.5748329163,-4.01782512665,73.7540664673,0.0204039998353,1.0,0.0,0.0,0.0,1.0,0.0,0.0,0.0,1.0,-0.0609756112099,1.95121955872,-0.18292683363,1.0,0.0,0.0,0.0,1.0,0.0,0.0,0.0,1.0,-0.76135612793,-0.689530078125,10.1418382324,1.0,0.0,0.0,0.0,1.0,0.0,0.0,0.0,1.0
1463846630752106838,369,1463846630704323335,,11.5149555206,-4.02132463455,73.7541351318,0.0204000007361,1.0,0.0,0.0,0.0,1.0,0.0,0.0,0.0,1.0,-0.304878056049,1.8292683363,0.0609756112099,1.0,0.0,0.0,0.0,1.0,0.0,0.0,0.0,1.0,-0.847547387695,-0.651222851562,10.1945106689,1.0,0.0,0.0,0.0,1.0,0.0,0.0,0.0,1.0
1463846630752526901,370,1463846630724698122,,11.4644823074,-4.01800584793,73.7523956299,0.0204199999571,1.0,0.0,0.0,0.0,1.0,0.0,0.0,0.0,1.0,-0.487804889679,2.01219511032,-0.12195122242,1.0,0.0,0.0,0.0,1.0,0.0,0.0,0.0,1.0,-0.885854614258,-0.550666381836,10.1514150391,1.0,0.0,0.0,0.0,1.0,0.0,0.0,0.0,1.0
1463846630754627058,371,1463846630745038169,,11.4281597137,-4.0054473877,73.7627716064,0.0204089991748,1.0,0.0,0.0,0.0,1.0,0.0,0.0,0.0,1.0,-0.365853667259,2.13414645195,0.426829278469,1.0,0.0,0.0,0.0,1.0,0.0,0.0,0.0,1.0,-0.957680664062,-0.502782348633,9.99339772949,1.0,0.0,0.0,0.0,1.0,0.0,0.0,0.0,1.0
1463846630782870690,372,1463846630767452383,,11.3918962479,-4.00851297379,73.7698745728,0.0204249992967,1.0,0.0,0.0,0.0,1.0,0.0,0.0,0.0,1.0,-0.365853667259,2.25609779358,0.426829278469,1.0,0.0,0.0,0.0,1.0,0.0,0.0,0.0,1.0,-0.928950244141,-0.632069238281,9.96945571289,1.0,0.0,0.0,0.0,1.0,0.0,0.0,0.0,1.0
1463846630832681067,373,1463846630786005145,,11.3586778641,-4.01105833054,73.7826080322,0.0204300004989,1.0,0.0,0.0,0.0,1.0,0.0,0.0,0.0,1.0,-0.548780500889,2.31707310677,0.670731723309,1.0,0.0,0.0,0.0,1.0,0.0,0.0,0.0,1.0,-0.948103857422,-0.612915625,10.1035310059,1.0,0.0,0.0,0.0,1.0,0.0,0.0,0.0,1.0
1463846630833198320,374,1463846630806437069,,11.3070116043,-4.00876903534,73.7884674072,0.0203699991107,1.0,0.0,0.0,0.0,1.0,0.0,0.0,0.0,1.0,-0.426829278469,1.46341466904,0.243902444839,1.0,0.0,0.0,0.0,1.0,0.0,0.0,0.0,1.0,-0.943315454102,-0.584185168546,10.1753570557,1.0,0.0,0.0,0.0,1.0,0.0,0.0,0.0,1.0
1463846630835412699,375,1463846630826918421,,11.2426214218,-4.01613140106,73.7897415161,0.0204169992357,1.0,0.0,0.0,0.0,1.0,0.0,0.0,0.0,1.0,-0.365853667259,1.46341466904,0.12195122242,1.0,0.0,0.0,0.0,1.0,0.0,0.0,0.0,1.0,-0.818816967773,-0.670376464844,10.1178962158,1.0,0.0,0.0,0.0,1.0,0.0,0.0,0.0,1.0
1463846630876261391,376,1463846630847240291,,11.1980895996,-4.01801347733,73.8026657104,0.0204019993544,1.0,0.0,0.0,0.0,1.0,0.0,0.0,0.0,1.0,-0.731707334518,1.8902438879,0.609756112099,1.0,0.0,0.0,0.0,1.0,0.0,0.0,0.0,1.0,-0.905008227539,-0.579396801758,10.180145459,1.0,0.0,0.0,0.0,1.0,0.0,0.0,0.0,1.0
1463846630877619706,377,1463846630867583671,,11.1557073593,-4.0252790451,73.8035888672,0.020408000797,1.0,0.0,0.0,0.0,1.0,0.0,0.0,0.0,1.0,-0.609756112099,1.52439022064,0.0609756112099,1.0,0.0,0.0,0.0,1.0,0.0,0.0,0.0,1.0,-0.986411083984,-0.627280834961,10.1418382324,1.0,0.0,0.0,0.0,1.0,0.0,0.0,0.0,1.0
1463846630916652414,378,1463846630887888717,,11.0993976593,-4.02039194107,73.8082427979,0.0203949995339,1.0,0.0,0.0,0.0,1.0,0.0,0.0,0.0,1.0,-0.365853667259,1.58536589146,0.18292683363,1.0,0.0,0.0,0.0,1.0,0.0,0.0,0.0,1.0,-0.847547387695,-0.574608398438,10.2136642822,1.0,0.0,0.0,0.0,1.0,0.0,0.0,0.0,1.0
1463846630917117322,379,1463846630908358975,,11.0573472977,-4.02135705948,73.8149185181,0.0204620007426,1.0,0.0,0.0,0.0,1.0,0.0,0.0,0.0,1.0,-0.609756112099,1.76829278469,0.304878056049,1.0,0.0,0.0,0.0,1.0,0.0,0.0,0.0,1.0,-0.91458503418,-0.574608398438,10.0317049561,1.0,0.0,0.0,0.0,1.0,0.0,0.0,0.0,1.0
1463846630961236617,380,1463846630928708449,,11.0199518204,-4.02954530716,73.8149337769,0.0203590001911,1.0,0.0,0.0,0.0,1.0,0.0,0.0,0.0,1.0,-0.853658556938,1.8292683363,0.0,1.0,0.0,0.0,0.0,1.0,0.0,0.0,0.0,1.0,-0.948103857422,-0.588973571866,10.1226846191,1.0,0.0,0.0,0.0,1.0,0.0,0.0,0.0,1.0
1463846630961725484,381,1463846630949275845,,10.9778490067,-4.05990028381,73.8134155273,0.020422000438,1.0,0.0,0.0,0.0,1.0,0.0,0.0,0.0,1.0,-0.975609779358,1.95121955872,0.12195122242,1.0,0.0,0.0,0.0,1.0,0.0,0.0,0.0,1.0,-0.885854614258,-0.77093293457,10.2088758789,1.0,0.0,0.0,0.0,1.0,0.0,0.0,0.0,1.0
1463846630987038886,382,1463846630969607142,,10.9516305923,-4.08721351624,73.8053665161,0.0204189997166,1.0,0.0,0.0,0.0,1.0,0.0,0.0,0.0,1.0,-0.487804889679,2.13414645195,-0.12195122242,1.0,0.0,0.0,0.0,1.0,0.0,0.0,0.0,1.0,-0.991199487305,-0.828393774414,10.2136642822,1.0,0.0,0.0,0.0,1.0,0.0,0.0,0.0,1.0
1463846631009467892,383,1463846630990421211,,10.9253520966,-4.10853481293,73.8005523682,0.0203980002552,1.0,0.0,0.0,0.0,1.0,0.0,0.0,0.0,1.0,-0.731707334518,2.19512200356,-0.0609756112099,1.0,0.0,0.0,0.0,1.0,0.0,0.0,0.0,1.0,-0.976834277344,-0.742202514648,10.2519715088,1.0,0.0,0.0,0.0,1.0,0.0,0.0,0.0,1.0
1463846631017133657,384,1463846631010394165,,10.8933849335,-4.13895320892,73.7948226929,0.0204039998353,1.0,0.0,0.0,0.0,1.0,0.0,0.0,0.0,1.0,-0.914634168148,2.07317066193,-0.0609756112099,1.0,0.0,0.0,0.0,1.0,0.0,0.0,0.0,1.0,-0.933738647461,-0.785298144531,10.1466266357,1.0,0.0,0.0,0.0,1.0,0.0,0.0,0.0,1.0
1463846631035800011,385,1463846631030684831,,10.8686695099,-4.17857408524,73.7915344238,0.020408000797,1.0,0.0,0.0,0.0,1.0,0.0,0.0,0.0,1.0,-0.792682945728,2.19512200356,0.18292683363,1.0,0.0,0.0,0.0,1.0,0.0,0.0,0.0,1.0,-0.962469067383,-0.895431420898,10.0891657959,1.0,0.0,0.0,0.0,1.0,0.0,0.0,0.0,1.0
1463846631060737929,386,1463846631051258316,,10.8476419449,-4.19799757004,73.7873153687,0.020408000797,1.0,0.0,0.0,0.0,1.0,0.0,0.0,0.0,1.0,-0.609756112099,2.43902444839,0.0,1.0,0.0,0.0,0.0,1.0,0.0,0.0,0.0,1.0,-0.952892260742,-0.756567724609,10.1370498291,1.0,0.0,0.0,0.0,1.0,0.0,0.0,0.0,1.0
1463846631073610440,387,1463846631071717788,,10.8272037506,-4.22198200226,73.7785263062,0.0204070005566,1.0,0.0,0.0,0.0,1.0,0.0,0.0,0.0,1.0,-0.609756112099,2.43902444839,-0.18292683363,1.0,0.0,0.0,0.0,1.0,0.0,0.0,0.0,1.0,-0.952892260742,-0.790086547852,10.0939541992,1.0,0.0,0.0,0.0,1.0,0.0,0.0,0.0,1.0
1463846631112763610,388,1463846631092141686,,10.8019704819,-4.24175262451,73.7803344727,0.0204060003161,1.0,0.0,0.0,0.0,1.0,0.0,0.0,0.0,1.0,-0.487804889679,2.07317066193,0.304878056049,1.0,0.0,0.0,0.0,1.0,0.0,0.0,0.0,1.0,-0.981622680664,-0.809240161133,10.2519715088,1.0,0.0,0.0,0.0,1.0,0.0,0.0,0.0,1.0
1463846631122767091,389,1463846631112568241,,10.778544426,-4.2695555687,73.7729492188,0.0204150006175,1.0,0.0,0.0,0.0,1.0,0.0,0.0,0.0,1.0,-0.426829278469,2.13414645195,-0.0609756112099,1.0,0.0,0.0,0.0,1.0,0.0,0.0,0.0,1.0,-0.981622680664,-0.876277807617,10.1897222656,1.0,0.0,0.0,0.0,1.0,0.0,0.0,0.0,1.0
1463846631136395870,390,1463846631132794686,,10.7539129257,-4.29992866516,73.7694091797,0.0204179994762,1.0,0.0,0.0,0.0,1.0,0.0,0.0,0.0,1.0,-0.609756112099,2.13414645195,0.12195122242,1.0,0.0,0.0,0.0,1.0,0.0,0.0,0.0,1.0,-0.957680664062,-0.871489404297,10.1226846191,1.0,0.0,0.0,0.0,1.0,0.0,0.0,0.0,1.0
1463846631161806300,391,1463846631153294003,,10.7156419754,-4.32555484772,73.7641220093,0.0203850008547,1.0,0.0,0.0,0.0,1.0,0.0,0.0,0.0,1.0,-0.12195122242,1.8292683363,0.0609756112099,1.0,0.0,0.0,0.0,1.0,0.0,0.0,0.0,1.0,-0.890643017578,-0.92416184082,10.1562034424,1.0,0.0,0.0,0.0,1.0,0.0,0.0,0.0,1.0
1463846631178872249,392,1463846631173618472,,10.6800041199,-4.36416053772,73.7577133179,0.0204140003771,1.0,0.0,0.0,0.0,1.0,0.0,0.0,0.0,1.0,-0.548780500889,2.01219511032,0.0609756112099,1.0,0.0,0.0,0.0,1.0,0.0,0.0,0.0,1.0,-0.881066210937,-0.972045874023,10.2280294922,1.0,0.0,0.0,0.0,1.0,0.0,0.0,0.0,1.0
1463846631198231538,393,1463846631194169977,,10.6487560272,-4.38170671463,73.7552490234,0.0204070005566,1.0,0.0,0.0,0.0,1.0,0.0,0.0,0.0,1.0,-0.243902444839,2.01219511032,0.12195122242,1.0,0.0,0.0,0.0,1.0,0.0,0.0,0.0,1.0,-0.9193734375,-0.857124194336,10.3046439453,1.0,0.0,0.0,0.0,1.0,0.0,0.0,0.0,1.0
1463846631217787289,394,1463846631214539030,,10.6188364029,-4.39032077789,73.754776001,0.0204249992967,1.0,0.0,0.0,0.0,1.0,0.0,0.0,0.0,1.0,0.0609756112099,1.8292683363,0.18292683363,1.0,0.0,0.0,0.0,1.0,0.0,0.0,0.0,1.0,-0.957680664062,-0.837970581055,10.2950671387,1.0,0.0,0.0,0.0,1.0,0.0,0.0,0.0,1.0
1463846631244659683,395,1463846631234904021,,10.6035337448,-4.40874481201,73.7569732666,0.0204050000757,1.0,0.0,0.0,0.0,1.0,0.0,0.0,0.0,1.0,0.0609756112099,2.07317066193,0.426829278469,1.0,0.0,0.0,0.0,1.0,0.0,0.0,0.0,1.0,-1.01992990723,-0.9193734375,10.1322614258,1.0,0.0,0.0,0.0,1.0,0.0,0.0,0.0,1.0
1463846631300120658,396,1463846631255212916,,10.5857877731,-4.41788101196,73.7638549805,0.0204009991139,1.0,0.0,0.0,0.0,1.0,0.0,0.0,0.0,1.0,-0.0609756112099,2.01219511032,0.548780500889,1.0,0.0,0.0,0.0,1.0,0.0,0.0,0.0,1.0,-1.01514150391,-0.833182177734,10.2423947021,1.0,0.0,0.0,0.0,1.0,0.0,0.0,0.0,1.0
1463846631301279542,397,1463846631275796714,,10.5724592209,-4.42128133774,73.7663269043,0.0204019993544,1.0,0.0,0.0,0.0,1.0,0.0,0.0,0.0,1.0,0.12195122242,1.95121955872,0.304878056049,1.0,0.0,0.0,0.0,1.0,0.0,0.0,0.0,1.0,-1.0534486574,-0.799663354492,10.1226846191,1.0,0.0,0.0,0.0,1.0,0.0,0.0,0.0,1.0
1463846631301825753,398,1463846631296270926,,10.5669202805,-4.42385053635,73.7680511475,0.0204310007393,1.0,0.0,0.0,0.0,1.0,0.0,0.0,0.0,1.0,0.304878056049,2.07317066193,0.304878056049,1.0,0.0,0.0,0.0,1.0,0.0,0.0,0.0,1.0,-1.09654436035,-0.823605371094,10.1035310059,1.0,0.0,0.0,0.0,1.0,0.0,0.0,0.0,1.0
1463846631348742244,399,1463846631316587687,,10.5514278412,-4.43055057526,73.7697677612,0.0203910004348,1.0,0.0,0.0,0.0,1.0,0.0,0.0,0.0,1.0,0.18292683363,1.8902438879,0.304878056049,1.0,0.0,0.0,0.0,1.0,0.0,0.0,0.0,1.0,-1.06302561017,-0.857124194336,10.3237975586,1.0,0.0,0.0,0.0,1.0,0.0,0.0,0.0,1.0
1463846631351332361,400,1463846631336877206,,10.5521688461,-4.43908691406,73.7708282471,0.0204050000757,1.0,0.0,0.0,0.0,1.0,0.0,0.0,0.0,1.0,0.18292683363,2.07317066193,0.304878056049,1.0,0.0,0.0,0.0,1.0,0.0,0.0,0.0,1.0,-1.14442839355,-0.852335791016,10.0652237793,1.0,0.0,0.0,0.0,1.0,0.0,0.0,0.0,1.0
1463846631389241125,401,1463846631357379023,,10.5450534821,-4.42882061005,73.7728881836,0.0204579997808,1.0,0.0,0.0,0.0,1.0,0.0,0.0,0.0,1.0,0.487804889679,2.13414645195,0.243902444839,1.0,0.0,0.0,0.0,1.0,0.0,0.0,0.0,1.0,-1.06302561017,-0.742202514648,10.0556469727,1.0,0.0,0.0,0.0,1.0,0.0,0.0,0.0,1.0
1463846631389287116,402,1463846631377770994,,10.5387582779,-4.41671991348,73.7780303955,0.0203460007906,1.0,0.0,0.0,0.0,1.0,0.0,0.0,0.0,1.0,0.487804889679,1.95121955872,0.365853667259,1.0,0.0,0.0,0.0,1.0,0.0,0.0,0.0,1.0,-1.10612116699,-0.732625708008,10.1131078125,1.0,0.0,0.0,0.0,1.0,0.0,0.0,0.0,1.0
1463846631424151325,403,1463846631398085202,,10.5317430496,-4.40503406525,73.7878341675,0.0204189997166,1.0,0.0,0.0,0.0,1.0,0.0,0.0,0.0,1.0,0.18292683363,2.01219511032,0.548780500889,1.0,0.0,0.0,0.0,1.0,0.0,0.0,0.0,1.0,-1.08217922346,-0.684741674805,10.0891657959,1.0,0.0,0.0,0.0,1.0,0.0,0.0,0.0,1.0
1463846631424307735,404,1463846631418479151,,10.5296640396,-4.39294624329,73.7872924805,0.0204160008579,1.0,0.0,0.0,0.0,1.0,0.0,0.0,0.0,1.0,0.609756112099,2.19512200356,0.12195122242,1.0,0.0,0.0,0.0,1.0,0.0,0.0,0.0,1.0,-1.10133276367,-0.742202514648,10.1178962158,1.0,0.0,0.0,0.0,1.0,0.0,0.0,0.0,1.0
1463846631486959829,405,1463846631439201911,,10.5159292221,-4.37134695053,73.7891311646,0.0204160008579,1.0,0.0,0.0,0.0,1.0,0.0,0.0,0.0,1.0,0.548780500889,1.95121955872,0.12195122242,1.0,0.0,0.0,0.0,1.0,0.0,0.0,0.0,1.0,-1.03908344744,-0.646434448242,10.1035310059,1.0,0.0,0.0,0.0,1.0,0.0,0.0,0.0,1.0
1463846631487535677,406,1463846631459463826,,10.4923887253,-4.3434677124,73.7954330444,0.020386999473,1.0,0.0,0.0,0.0,1.0,0.0,0.0,0.0,1.0,0.548780500889,2.19512200356,0.304878056049,1.0,0.0,0.0,0.0,1.0,0.0,0.0,0.0,1.0,-0.895431420898,-0.588973571866,10.0269165527,1.0,0.0,0.0,0.0,1.0,0.0,0.0,0.0,1.0
1463846631489310253,407,1463846631479797566,,10.4689083099,-4.31783246994,73.7979202271,0.020408000797,1.0,0.0,0.0,0.0,1.0,0.0,0.0,0.0,1.0,0.487804889679,2.19512200356,0.12195122242,1.0,0.0,0.0,0.0,1.0,0.0,0.0,0.0,1.0,-0.905008227539,-0.593762048251,10.1418382324,1.0,0.0,0.0,0.0,1.0,0.0,0.0,0.0,1.0
1463846631646147316,408,1463846631500247611,,10.4444541931,-4.30938243866,73.8034667969,0.0204050000757,1.0,0.0,0.0,0.0,1.0,0.0,0.0,0.0,1.0,0.243902444839,1.95121955872,0.365853667259,1.0,0.0,0.0,0.0,1.0,0.0,0.0,0.0,1.0,-0.933738647461,-0.703895288086,10.1418382324,1.0,0.0,0.0,0.0,1.0,0.0,0.0,0.0,1.0
1463846631646437531,409,1463846631520871358,,10.4164886475,-4.29596376419,73.8134155273,0.0204189997166,1.0,0.0,0.0,0.0,1.0,0.0,0.0,0.0,1.0,-0.0609756112099,2.01219511032,0.487804889679,1.0,0.0,0.0,0.0,1.0,0.0,0.0,0.0,1.0,-0.876277807617,-0.603338854892,10.046070166,1.0,0.0,0.0,0.0,1.0,0.0,0.0,0.0,1.0
1463846631646707226,410,1463846631541048323,,10.4012889862,-4.27018785477,73.8207778931,0.0204119998962,1.0,0.0,0.0,0.0,1.0,0.0,0.0,0.0,1.0,0.18292683363,2.19512200356,0.304878056049,1.0,0.0,0.0,0.0,1.0,0.0,0.0,0.0,1.0,-0.962469067383,-0.536301208408,10.1466266357,1.0,0.0,0.0,0.0,1.0,0.0,0.0,0.0,1.0
1463846631647092965,411,1463846631561822594,,10.3832120895,-4.22952699661,73.8331756592,0.0205010008067,1.0,0.0,0.0,0.0,1.0,0.0,0.0,0.0,1.0,0.0,1.95121955872,0.365853667259,1.0,0.0,0.0,0.0,1.0,0.0,0.0,0.0,1.0,-0.962469067383,-0.368707055664,10.0029745361,1.0,0.0,0.0,0.0,1.0,0.0,0.0,0.0,1.0
1463846631647400316,412,1463846631581901328,,10.3490486145,-4.19917011261,73.8386459351,0.020325999707,1.0,0.0,0.0,0.0,1.0,0.0,0.0,0.0,1.0,0.0,2.07317066193,0.12195122242,1.0,0.0,0.0,0.0,1.0,0.0,0.0,0.0,1.0,-0.809240161133,-0.445321508789,10.1322614258,1.0,0.0,0.0,0.0,1.0,0.0,0.0,0.0,1.0
1463846631647686886,413,1463846631602464500,,10.3208589554,-4.17827415466,73.8384857178,0.0204550009221,1.0,0.0,0.0,0.0,1.0,0.0,0.0,0.0,1.0,-0.18292683363,1.8902438879,-0.12195122242,1.0,0.0,0.0,0.0,1.0,0.0,0.0,0.0,1.0,-0.885854614258,-0.478840332031,10.0364933594,1.0,0.0,0.0,0.0,1.0,0.0,0.0,0.0,1.0
1463846631727422950,414,1463846631622696623,,10.2946052551,-4.16685628891,73.8318328857,0.0203310009092,1.0,0.0,0.0,0.0,1.0,0.0,0.0,0.0,1.0,0.0609756112099,2.07317066193,-0.304878056049,1.0,0.0,0.0,0.0,1.0,0.0,0.0,0.0,1.0,-0.861912597656,-0.588973571866,9.97903251953,1.0,0.0,0.0,0.0,1.0,0.0,0.0,0.0,1.0
1463846631727812075,415,1463846631642983695,,10.2812976837,-4.16083240509,73.830581665,0.0204150006175,1.0,0.0,0.0,0.0,1.0,0.0,0.0,0.0,1.0,-0.426829278469,2.25609779358,-0.0609756112099,1.0,0.0,0.0,0.0,1.0,0.0,0.0,0.0,1.0,-0.943315454102,-0.560243188477,10.060435376,1.0,0.0,0.0,0.0,1.0,0.0,0.0,0.0,1.0
1463846631728101197,416,1463846631663607806,,10.2515630722,-4.17727136612,73.8256988525,0.0204109996557,1.0,0.0,0.0,0.0,1.0,0.0,0.0,0.0,1.0,-0.487804889679,2.13414645195,-0.0609756112099,1.0,0.0,0.0,0.0,1.0,0.0,0.0,0.0,1.0,-0.818816967773,-0.742202514648,10.0556469727,1.0,0.0,0.0,0.0,1.0,0.0,0.0,0.0,1.0
1463846631728401100,417,1463846631683752062,,10.2214136124,-4.16805410385,73.8275146484,0.0204039998353,1.0,0.0,0.0,0.0,1.0,0.0,0.0,0.0,1.0,-0.0609756112099,2.13414645195,0.12195122242,1.0,0.0,0.0,0.0,1.0,0.0,0.0,0.0,1.0,-0.804451757813,-0.603338854892,10.0317049561,1.0,0.0,0.0,0.0,1.0,0.0,0.0,0.0,1.0
1463846631793964152,418,1463846631704131741,,10.2080783844,-4.16678333282,73.8217468262,0.0204109996557,1.0,0.0,0.0,0.0,1.0,0.0,0.0,0.0,1.0,-0.12195122242,2.31707310677,-0.18292683363,1.0,0.0,0.0,0.0,1.0,0.0,0.0,0.0,1.0,-0.91458503418,-0.646434448242,9.98860932617,1.0,0.0,0.0,0.0,1.0,0.0,0.0,0.0,1.0
1463846631794259889,419,1463846631724917158,,10.1862258911,-4.15972948074,73.8248291016,0.0204140003771,1.0,0.0,0.0,0.0,1.0,0.0,0.0,0.0,1.0,-0.487804889679,2.07317066193,0.12195122242,1.0,0.0,0.0,0.0,1.0,0.0,0.0,0.0,1.0,-0.881066210937,-0.545877978516,10.0412817627,1.0,0.0,0.0,0.0,1.0,0.0,0.0,0.0,1.0
1463846631796290409,420,1463846631745148343,,10.1691427231,-4.14082336426,73.8279876709,0.0204000007361,1.0,0.0,0.0,0.0,1.0,0.0,0.0,0.0,1.0,-0.365853667259,2.31707310677,0.0609756112099,1.0,0.0,0.0,0.0,1.0,0.0,0.0,0.0,1.0,-0.881066210937,-0.46447512207,10.1035310059,1.0,0.0,0.0,0.0,1.0,0.0,0.0,0.0,1.0
1463846631796647553,421,1463846631765437603,,10.159743309,-4.13632726669,73.8358764648,0.0204119998962,1.0,0.0,0.0,0.0,1.0,0.0,0.0,0.0,1.0,-0.609756112099,2.13414645195,0.365853667259,1.0,0.0,0.0,0.0,1.0,0.0,0.0,0.0,1.0,-0.972045874023,-0.550666381836,10.0652237793,1.0,0.0,0.0,0.0,1.0,0.0,0.0,0.0,1.0
1463846631911561897,422,1463846631785867855,,10.1436357498,-4.13697433472,73.8359985352,0.0204470008612,1.0,0.0,0.0,0.0,1.0,0.0,0.0,0.0,1.0,-0.670731723309,1.95121955872,0.0,1.0,0.0,0.0,0.0,1.0,0.0,0.0,0.0,1.0,-0.952892260742,-0.574608398438,10.1035310059,1.0,0.0,0.0,0.0,1.0,0.0,0.0,0.0,1.0
1463846631911609971,423,1463846631806246075,,10.1272563934,-4.14218473434,73.8360443115,0.0203699991107,1.0,0.0,0.0,0.0,1.0,0.0,0.0,0.0,1.0,-0.609756112099,2.13414645195,0.0609756112099,1.0,0.0,0.0,0.0,1.0,0.0,0.0,0.0,1.0,-0.91458503418,-0.627280834961,10.1131078125,1.0,0.0,0.0,0.0,1.0,0.0,0.0,0.0,1.0
1463846631911648357,424,1463846631826710704,,10.1084413528,-4.15280532837,73.8380432129,0.020408000797,1.0,0.0,0.0,0.0,1.0,0.0,0.0,0.0,1.0,-0.548780500889,1.64634156227,0.18292683363,1.0,0.0,0.0,0.0,1.0,0.0,0.0,0.0,1.0,-0.995987890625,-0.703895288086,10.3046439453,1.0,0.0,0.0,0.0,1.0,0.0,0.0,0.0,1.0
1463846631911684765,425,1463846631847097935,,10.0818538666,-4.17079305649,73.8403091431,0.0204109996557,1.0,0.0,0.0,0.0,1.0,0.0,0.0,0.0,1.0,-0.792682945728,2.01219511032,0.243902444839,1.0,0.0,0.0,0.0,1.0,0.0,0.0,0.0,1.0,-0.842758984375,-0.718260498047,10.165780249,1.0,0.0,0.0,0.0,1.0,0.0,0.0,0.0,1.0
1463846631911720651,426,1463846631867582303,,10.0772752762,-4.17573547363,73.8417892456,0.0204150006175,1.0,0.0,0.0,0.0,1.0,0.0,0.0,0.0,1.0,-0.670731723309,2.13414645195,0.12195122242,1.0,0.0,0.0,0.0,1.0,0.0,0.0,0.0,1.0,-1.00077629395,-0.61770402832,10.046070166,1.0,0.0,0.0,0.0,1.0,0.0,0.0,0.0,1.0
1463846631911757110,427,1463846631888002555,,10.0542612076,-4.1787443161,73.8442764282,0.0204099994153,1.0,0.0,0.0,0.0,1.0,0.0,0.0,0.0,1.0,-0.487804889679,1.2195122242,0.12195122242,1.0,0.0,0.0,0.0,1.0,0.0,0.0,0.0,1.0,-1.01035310059,-0.641646044922,10.1322614258,1.0,0.0,0.0,0.0,1.0,0.0,0.0,0.0,1.0
1463846632200866096,428,1463846631908411505,,10.0448198318,-4.17367124557,73.8468704224,0.0204130001366,1.0,0.0,0.0,0.0,1.0,0.0,0.0,0.0,1.0,-0.426829278469,1.95121955872,0.12195122242,1.0,0.0,0.0,0.0,1.0,0.0,0.0,0.0,1.0,-0.991199487305,-0.579396801758,10.1035310059,1.0,0.0,0.0,0.0,1.0,0.0,0.0,0.0,1.0
1463846632201426474,429,1463846631928715244,,10.0338077545,-4.18195772171,73.8518371582,0.0203939992934,1.0,0.0,0.0,0.0,1.0,0.0,0.0,0.0,1.0,-0.792682945728,2.13414645195,0.304878056049,1.0,0.0,0.0,0.0,1.0,0.0,0.0,0.0,1.0,-0.943315454102,-0.636857641602,10.1322614258,1.0,0.0,0.0,0.0,1.0,0.0,0.0,0.0,1.0
1463846632201712263,430,1463846631949295344,,10.0199232101,-4.18522644043,73.8536682129,0.0203990004957,1.0,0.0,0.0,0.0,1.0,0.0,0.0,0.0,1.0,-0.18292683363,1.70731711388,0.18292683363,1.0,0.0,0.0,0.0,1.0,0.0,0.0,0.0,1.0,-1.00077629395,-0.703895288086,10.1897222656,1.0,0.0,0.0,0.0,1.0,0.0,0.0,0.0,1.0
1463846632201979665,431,1463846631969502258,,10.0182275772,-4.20433521271,73.8562469482,0.0204119998962,1.0,0.0,0.0,0.0,1.0,0.0,0.0,0.0,1.0,-0.731707334518,2.31707310677,0.304878056049,1.0,0.0,0.0,0.0,1.0,0.0,0.0,0.0,1.0,-1.00077629395,-0.751779321289,10.2471831055,1.0,0.0,0.0,0.0,1.0,0.0,0.0,0.0,1.0
1463846632203629029,432,1463846631990152047,,10.0132579803,-4.21889686584,73.8571777344,0.0204349998385,1.0,0.0,0.0,0.0,1.0,0.0,0.0,0.0,1.0,-0.670731723309,2.13414645195,0.18292683363,1.0,0.0,0.0,0.0,1.0,0.0,0.0,0.0,1.0,-0.986411083984,-0.708683691406,10.0508585693,1.0,0.0,0.0,0.0,1.0,0.0,0.0,0.0,1.0
1463846632204032320,433,1463846632010438026,,9.99603843689,-4.22662830353,73.8569564819,0.0203889999539,1.0,0.0,0.0,0.0,1.0,0.0,0.0,0.0,1.0,-0.548780500889,1.76829278469,0.0609756112099,1.0,0.0,0.0,0.0,1.0,0.0,0.0,0.0,1.0,-0.943315454102,-0.670376464844,10.0412817627,1.0,0.0,0.0,0.0,1.0,0.0,0.0,0.0,1.0
1463846632204375298,434,1463846632030905722,,9.98579120636,-4.23710107803,73.8587493896,0.020408000797,1.0,0.0,0.0,0.0,1.0,0.0,0.0,0.0,1.0,-0.426829278469,2.25609779358,0.243902444839,1.0,0.0,0.0,0.0,1.0,0.0,0.0,0.0,1.0,-0.91458503418,-0.723048901367,10.0652237793,1.0,0.0,0.0,0.0,1.0,0.0,0.0,0.0,1.0
1463846632206673844,435,1463846632051251697,,9.97895812988,-4.2544426918,73.8600616455,0.0204050000757,1.0,0.0,0.0,0.0,1.0,0.0,0.0,0.0,1.0,-0.609756112099,2.19512200356,0.243902444839,1.0,0.0,0.0,0.0,1.0,0.0,0.0,0.0,1.0,-0.972045874023,-0.76614453125,10.2519715088,1.0,0.0,0.0,0.0,1.0,0.0,0.0,0.0,1.0
1463846632207749548,436,1463846632071824031,,9.95901679993,-4.27261829376,73.8617477417,0.0204329993576,1.0,0.0,0.0,0.0,1.0,0.0,0.0,0.0,1.0,-0.18292683363,1.64634156227,0.304878056049,1.0,0.0,0.0,0.0,1.0,0.0,0.0,0.0,1.0,-0.943315454102,-0.847547387695,10.1466266357,1.0,0.0,0.0,0.0,1.0,0.0,0.0,0.0,1.0
1463846632208077213,437,1463846632092129432,,9.94985198975,-4.28528261185,73.861907959,0.020386999473,1.0,0.0,0.0,0.0,1.0,0.0,0.0,0.0,1.0,-0.365853667259,2.07317066193,0.18292683363,1.0,0.0,0.0,0.0,1.0,0.0,0.0,0.0,1.0,-0.972045874023,-0.775721337891,10.2807019287,1.0,0.0,0.0,0.0,1.0,0.0,0.0,0.0,1.0
1463846632209206928,438,1463846632112463011,,9.93319129944,-4.31113004684,73.8573150635,0.0204070005566,1.0,0.0,0.0,0.0,1.0,0.0,0.0,0.0,1.0,-0.365853667259,2.07317066193,0.0609756112099,1.0,0.0,0.0,0.0,1.0,0.0,0.0,0.0,1.0,-0.895431420898,-0.881066210937,10.1705686523,1.0,0.0,0.0,0.0,1.0,0.0,0.0,0.0,1.0
1463846632209543655,439,1463846632132856852,,9.92357063293,-4.34178876877,73.8533782959,0.0204039998353,1.0,0.0,0.0,0.0,1.0,0.0,0.0,0.0,1.0,-0.426829278469,2.01219511032,0.12195122242,1.0,0.0,0.0,0.0,1.0,0.0,0.0,0.0,1.0,-0.986411083984,-0.938527050781,10.3860468018,1.0,0.0,0.0,0.0,1.0,0.0,0.0,0.0,1.0
1463846632209822881,440,1463846632153244078,,9.90189743042,-4.35201120377,73.8547668457,0.0204140003771,1.0,0.0,0.0,0.0,1.0,0.0,0.0,0.0,1.0,-0.243902444839,2.01219511032,0.243902444839,1.0,0.0,0.0,0.0,1.0,0.0,0.0,0.0,1.0,-0.852335791016,-0.780509741211,10.1514150391,1.0,0.0,0.0,0.0,1.0,0.0,0.0,0.0,1.0
1463846632210107419,441,1463846632173748702,,9.88957595825,-4.35708332062,73.8578720093,0.0204160008579,1.0,0.0,0.0,0.0,1.0,0.0,0.0,0.0,1.0,-0.243902444839,2.25609779358,0.304878056049,1.0,0.0,0.0,0.0,1.0,0.0,0.0,0.0,1.0,-0.890643017578,-0.742202514648,10.1992990723,1.0,0.0,0.0,0.0,1.0,0.0,0.0,0.0,1.0
1463846632619455728,442,1463846632194087802,,9.88454818726,-4.38063144684,73.8556976318,0.0203939992934,1.0,0.0,0.0,0.0,1.0,0.0,0.0,0.0,1.0,-0.487804889679,2.56097555161,0.18292683363,1.0,0.0,0.0,0.0,1.0,0.0,0.0,0.0,1.0,-0.895431420898,-0.852335791016,10.1418382324,1.0,0.0,0.0,0.0,1.0,0.0,0.0,0.0,1.0
1463846632619496666,443,1463846632214556176,,9.89491844177,-4.37929773331,73.8519592285,0.0204160008579,1.0,0.0,0.0,0.0,1.0,0.0,0.0,0.0,1.0,0.18292683363,2.43902444839,0.0,1.0,0.0,0.0,0.0,1.0,0.0,0.0,0.0,1.0,-1.0534486574,-0.751779321289,10.1226846191,1.0,0.0,0.0,0.0,1.0,0.0,0.0,0.0,1.0
1463846632620776594,444,1463846632234864754,,9.88875389099,-4.3787779808,73.8517227173,0.0204259995371,1.0,0.0,0.0,0.0,1.0,0.0,0.0,0.0,1.0,0.0,2.07317066193,0.12195122242,1.0,0.0,0.0,0.0,1.0,0.0,0.0,0.0,1.0,-0.981622680664,-0.737414111328,10.2136642822,1.0,0.0,0.0,0.0,1.0,0.0,0.0,0.0,1.0
1463846632620847273,445,1463846632255255365,,9.89621925354,-4.3812661171,73.8583450317,0.020372999832,1.0,0.0,0.0,0.0,1.0,0.0,0.0,0.0,1.0,-0.0609756112099,2.19512200356,0.487804889679,1.0,0.0,0.0,0.0,1.0,0.0,0.0,0.0,1.0,-1.05823706072,-0.751779321289,10.0508585693,1.0,0.0,0.0,0.0,1.0,0.0,0.0,0.0,1.0
1463846632621329108,446,1463846632275806085,,9.91538333893,-4.38856887817,73.8622360229,0.0204409994185,1.0,0.0,0.0,0.0,1.0,0.0,0.0,0.0,1.0,-0.243902444839,2.25609779358,0.365853667259,1.0,0.0,0.0,0.0,1.0,0.0,0.0,0.0,1.0,-1.14442839355,-0.751779321289,9.97424411621,1.0,0.0,0.0,0.0,1.0,0.0,0.0,0.0,1.0
1463846632621383901,447,1463846632296524100,,9.92359161377,-4.38420915604,73.8661804199,0.0204249992967,1.0,0.0,0.0,0.0,1.0,0.0,0.0,0.0,1.0,-0.0609756112099,2.31707310677,0.304878056049,1.0,0.0,0.0,0.0,1.0,0.0,0.0,0.0,1.0,-1.04387185076,-0.684741674805,9.99818613281,1.0,0.0,0.0,0.0,1.0,0.0,0.0,0.0,1.0
1463846632621420725,448,1463846632316883201,,9.92683506012,-4.38592243195,73.87159729,0.0204460006207,1.0,0.0,0.0,0.0,1.0,0.0,0.0,0.0,1.0,0.0,2.13414645195,0.426829278469,1.0,0.0,0.0,0.0,1.0,0.0,0.0,0.0,1.0,-1.03429511719,-0.751779321289,10.0077629395,1.0,0.0,0.0,0.0,1.0,0.0,0.0,0.0,1.0
1463846632622731018,449,1463846632336903699,,9.91826343536,-4.38134908676,73.8766937256,0.0203230008483,1.0,0.0,0.0,0.0,1.0,0.0,0.0,0.0,1.0,0.18292683363,1.8292683363,0.365853667259,1.0,0.0,0.0,0.0,1.0,0.0,0.0,0.0,1.0,-0.991199487305,-0.732625708008,10.060435376,1.0,0.0,0.0,0.0,1.0,0.0,0.0,0.0,1.0
1463846632622797842,450,1463846632357311811,,9.90864944458,-4.36849021912,73.8813171387,0.0204050000757,1.0,0.0,0.0,0.0,1.0,0.0,0.0,0.0,1.0,0.0609756112099,1.76829278469,0.243902444839,1.0,0.0,0.0,0.0,1.0,0.0,0.0,0.0,1.0,-1.01035310059,-0.646434448242,10.2376062988,1.0,0.0,0.0,0.0,1.0,0.0,0.0,0.0,1.0
1463846632623144257,451,1463846632377836800,,9.89623165131,-4.36737680435,73.8824310303,0.0204179994762,1.0,0.0,0.0,0.0,1.0,0.0,0.0,0.0,1.0,-0.18292683363,1.70731711388,0.12195122242,1.0,0.0,0.0,0.0,1.0,0.0,0.0,0.0,1.0,-0.981622680664,-0.689530078125,10.0843773926,1.0,0.0,0.0,0.0,1.0,0.0,0.0,0.0,1.0
1463846632623458484,452,1463846632398066262,,9.88820075989,-4.36046886444,73.8858795166,0.0204130001366,1.0,0.0,0.0,0.0,1.0,0.0,0.0,0.0,1.0,0.0,2.01219511032,0.243902444839,1.0,0.0,0.0,0.0,1.0,0.0,0.0,0.0,1.0,-0.962469067383,-0.675164868164,10.0939541992,1.0,0.0,0.0,0.0,1.0,0.0,0.0,0.0,1.0
1463846632624605075,453,1463846632418665993,,9.87001514435,-4.34926223755,73.8905792236,0.0204109996557,1.0,0.0,0.0,0.0,1.0,0.0,0.0,0.0,1.0,-0.0609756112099,1.8292683363,0.243902444839,1.0,0.0,0.0,0.0,1.0,0.0,0.0,0.0,1.0,-0.905008227539,-0.627280834961,10.1083194092,1.0,0.0,0.0,0.0,1.0,0.0,0.0,0.0,1.0
1463846632624938989,454,1463846632439080251,,9.85050392151,-4.32994318008,73.8898010254,0.020428000018,1.0,0.0,0.0,0.0,1.0,0.0,0.0,0.0,1.0,0.18292683363,1.76829278469,-0.0609756112099,1.0,0.0,0.0,0.0,1.0,0.0,0.0,0.0,1.0,-0.905008227539,-0.588973571866,10.1083194092,1.0,0.0,0.0,0.0,1.0,0.0,0.0,0.0,1.0
1463846632625203840,455,1463846632459468102,,9.83063602448,-4.31651210785,73.896987915,0.020386999473,1.0,0.0,0.0,0.0,1.0,0.0,0.0,0.0,1.0,-0.0609756112099,2.07317066193,0.365853667259,1.0,0.0,0.0,0.0,1.0,0.0,0.0,0.0,1.0,-0.847547387695,-0.612915625,10.2280294922,1.0,0.0,0.0,0.0,1.0,0.0,0.0,0.0,1.0
1463846632625486711,456,1463846632479871005,,9.81182479858,-4.29914665222,73.8992767334,0.0203939992934,1.0,0.0,0.0,0.0,1.0,0.0,0.0,0.0,1.0,0.243902444839,1.8292683363,0.12195122242,1.0,0.0,0.0,0.0,1.0,0.0,0.0,0.0,1.0,-0.885854614258,-0.612915625,10.0556469727,1.0,0.0,0.0,0.0,1.0,0.0,0.0,0.0,1.0
1463846632625806719,457,1463846632500435892,,9.80002498627,-4.27595233917,73.9048614502,0.0204119998962,1.0,0.0,0.0,0.0,1.0,0.0,0.0,0.0,1.0,0.426829278469,2.31707310677,0.304878056049,1.0,0.0,0.0,0.0,1.0,0.0,0.0,0.0,1.0,-0.871489404297,-0.60812722168,10.2519715088,1.0,0.0,0.0,0.0,1.0,0.0,0.0,0.0,1.0
1463846632626445641,458,1463846632520676031,,9.78449440002,-4.262550354,73.906791687,0.0204329993576,1.0,0.0,0.0,0.0,1.0,0.0,0.0,0.0,1.0,0.0609756112099,2.07317066193,0.12195122242,1.0,0.0,0.0,0.0,1.0,0.0,0.0,0.0,1.0,-0.866701000977,-0.60812722168,10.0652237793,1.0,0.0,0.0,0.0,1.0,0.0,0.0,0.0,1.0
1463846632626547519,459,1463846632541040183,,9.77872276306,-4.24236059189,73.9108657837,0.0203879997134,1.0,0.0,0.0,0.0,1.0,0.0,0.0,0.0,1.0,0.0,2.37804889679,0.18292683363,1.0,0.0,0.0,0.0,1.0,0.0,0.0,0.0,1.0,-0.900219824219,-0.541089611728,10.1370498291,1.0,0.0,0.0,0.0,1.0,0.0,0.0,0.0,1.0
1463846632626586061,460,1463846632561609133,,9.77245807648,-4.22049713135,73.9135131836,0.0204390008003,1.0,0.0,0.0,0.0,1.0,0.0,0.0,0.0,1.0,-0.12195122242,2.19512200356,0.0609756112099,1.0,0.0,0.0,0.0,1.0,0.0,0.0,0.0,1.0,-0.9193734375,-0.493205541992,10.0317049561,1.0,0.0,0.0,0.0,1.0,0.0,0.0,0.0,1.0
1463846632626852526,461,1463846632581905731,,9.76666545868,-4.20938014984,73.9142456055,0.0203930009156,1.0,0.0,0.0,0.0,1.0,0.0,0.0,0.0,1.0,-0.12195122242,2.25609779358,0.0609756112099,1.0,0.0,0.0,0.0,1.0,0.0,0.0,0.0,1.0,-0.92416184082,-0.588973571866,10.1609918457,1.0,0.0,0.0,0.0,1.0,0.0,0.0,0.0,1.0
1463846632626903621,462,1463846632602195715,,9.75808143616,-4.18474674225,73.9203186035,0.0203889999539,1.0,0.0,0.0,0.0,1.0,0.0,0.0,0.0,1.0,-0.12195122242,1.8902438879,0.18292683363,1.0,0.0,0.0,0.0,1.0,0.0,0.0,0.0,1.0,-0.943315454102,-0.46447512207,9.96945571289,1.0,0.0,0.0,0.0,1.0,0.0,0.0,0.0,1.0
1463846633473036490,463,1463846632622628463,,9.73871135712,-4.1718583107,73.9221115112,0.0204089991748,1.0,0.0,0.0,0.0,1.0,0.0,0.0,0.0,1.0,-0.243902444839,2.07317066193,0.0609756112099,1.0,0.0,0.0,0.0,1.0,0.0,0.0,0.0,1.0,-0.833182177734,-0.545877978516,10.1562034424,1.0,0.0,0.0,0.0,1.0,0.0,0.0,0.0,1.0
1463846633473310768,464,1463846632642934593,,9.72628593445,-4.17451810837,73.92137146,0.0203930009156,1.0,0.0,0.0,0.0,1.0,0.0,0.0,0.0,1.0,-0.304878056049,2.13414645195,0.0609756112099,1.0,0.0,0.0,0.0,1.0,0.0,0.0,0.0,1.0,-0.871489404297,-0.660799658203,10.046070166,1.0,0.0,0.0,0.0,1.0,0.0,0.0,0.0,1.0
1463846633473593379,465,1463846632664765605,,9.72241306305,-4.17889785767,73.9213256836,0.0212890002877,1.0,0.0,0.0,0.0,1.0,0.0,0.0,0.0,1.0,-0.548780500889,2.07317066193,0.0609756112099,1.0,0.0,0.0,0.0,1.0,0.0,0.0,0.0,1.0,-0.972045874023,-0.641646044922,10.2040874756,1.0,0.0,0.0,0.0,1.0,0.0,0.0,0.0,1.0
1463846633473877605,466,1463846632684972462,,9.70837116241,-4.19090175629,73.9164962769,0.0196250006557,1.0,0.0,0.0,0.0,1.0,0.0,0.0,0.0,1.0,-0.18292683363,1.95121955872,-0.0609756112099,1.0,0.0,0.0,0.0,1.0,0.0,0.0,0.0,1.0,-0.885854614258,-0.76614453125,10.060435376,1.0,0.0,0.0,0.0,1.0,0.0,0.0,0.0,1.0
1463846633475119875,467,1463846632708454192,,9.71621894836,-4.20589542389,73.9186630249,0.0203520003706,1.0,0.0,0.0,0.0,1.0,0.0,0.0,0.0,1.0,-0.670731723309,2.07317066193,0.243902444839,1.0,0.0,0.0,0.0,1.0,0.0,0.0,0.0,1.0,-1.06302561017,-0.718260498047,10.1322614258,1.0,0.0,0.0,0.0,1.0,0.0,0.0,0.0,1.0
1463846633475479675,468,1463846632724599281,,9.71321296692,-4.20674657822,73.9152374268,0.0203740000725,1.0,0.0,0.0,0.0,1.0,0.0,0.0,0.0,1.0,-0.487804889679,2.07317066193,-0.12195122242,1.0,0.0,0.0,0.0,1.0,0.0,0.0,0.0,1.0,-0.962469067383,-0.612915625,10.0364933594,1.0,0.0,0.0,0.0,1.0,0.0,0.0,0.0,1.0
1463846633475818538,469,1463846632745070936,,9.71051597595,-4.20517015457,73.9187774658,0.0204319991171,1.0,0.0,0.0,0.0,1.0,0.0,0.0,0.0,1.0,-0.914634168148,1.95121955872,0.12195122242,1.0,0.0,0.0,0.0,1.0,0.0,0.0,0.0,1.0,-0.986411083984,-0.526724328702,10.0748005859,1.0,0.0,0.0,0.0,1.0,0.0,0.0,0.0,1.0
1463846633476160578,470,1463846632765570873,,9.70009231567,-4.19747495651,73.9243011475,0.0204070005566,1.0,0.0,0.0,0.0,1.0,0.0,0.0,0.0,1.0,-0.548780500889,2.13414645195,0.243902444839,1.0,0.0,0.0,0.0,1.0,0.0,0.0,0.0,1.0,-0.890643017578,-0.545877978516,10.1562034424,1.0,0.0,0.0,0.0,1.0,0.0,0.0,0.0,1.0
1463846633476459595,471,1463846632785866534,,9.70079231262,-4.21724653244,73.9242324829,0.0204019993544,1.0,0.0,0.0,0.0,1.0,0.0,0.0,0.0,1.0,-0.975609779358,2.07317066193,0.12195122242,1.0,0.0,0.0,0.0,1.0,0.0,0.0,0.0,1.0,-1.00077629395,-0.703895288086,10.1466266357,1.0,0.0,0.0,0.0,1.0,0.0,0.0,0.0,1.0
1463846633478351309,472,1463846632806296730,,9.69010829926,-4.22490358353,73.9282989502,0.0204000007361,1.0,0.0,0.0,0.0,1.0,0.0,0.0,0.0,1.0,-0.487804889679,2.01219511032,0.304878056049,1.0,0.0,0.0,0.0,1.0,0.0,0.0,0.0,1.0,-0.91458503418,-0.699106884766,10.2184526855,1.0,0.0,0.0,0.0,1.0,0.0,0.0,0.0,1.0
1463846633478688192,473,1463846632826702134,,9.67679977417,-4.23966550827,73.9292373657,0.0204249992967,1.0,0.0,0.0,0.0,1.0,0.0,0.0,0.0,1.0,-0.670731723309,2.07317066193,0.18292683363,1.0,0.0,0.0,0.0,1.0,0.0,0.0,0.0,1.0,-0.876277807617,-0.723048901367,10.1753570557,1.0,0.0,0.0,0.0,1.0,0.0,0.0,0.0,1.0
1463846633478992210,474,1463846632847028629,,9.67249774933,-4.25650310516,73.9308013916,0.0203990004957,1.0,0.0,0.0,0.0,1.0,0.0,0.0,0.0,1.0,-0.548780500889,1.95121955872,0.243902444839,1.0,0.0,0.0,0.0,1.0,0.0,0.0,0.0,1.0,-0.967257470703,-0.76135612793,10.0891657959,1.0,0.0,0.0,0.0,1.0,0.0,0.0,0.0,1.0
1463846633479354719,475,1463846632867441428,,9.67092227936,-4.26235675812,73.9309463501,0.0203939992934,1.0,0.0,0.0,0.0,1.0,0.0,0.0,0.0,1.0,-0.731707334518,2.07317066193,0.0609756112099,1.0,0.0,0.0,0.0,1.0,0.0,0.0,0.0,1.0,-0.972045874023,-0.632069238281,10.1083194092,1.0,0.0,0.0,0.0,1.0,0.0,0.0,0.0,1.0
1463846633480833036,476,1463846632888048920,,9.67340373993,-4.26336193085,73.9315490723,0.0204210001975,1.0,0.0,0.0,0.0,1.0,0.0,0.0,0.0,1.0,-0.731707334518,2.31707310677,0.0609756112099,1.0,0.0,0.0,0.0,1.0,0.0,0.0,0.0,1.0,-0.976834277344,-0.598550451572,10.2471831055,1.0,0.0,0.0,0.0,1.0,0.0,0.0,0.0,1.0
1463846633482712718,477,1463846632908244787,,9.67250728607,-4.27002668381,73.9300079346,0.0204000007361,1.0,0.0,0.0,0.0,1.0,0.0,0.0,0.0,1.0,-0.609756112099,2.01219511032,0.0,1.0,0.0,0.0,0.0,1.0,0.0,0.0,0.0,1.0,-0.991199487305,-0.660799658203,10.1178962158,1.0,0.0,0.0,0.0,1.0,0.0,0.0,0.0,1.0
1463846633483039497,478,1463846632928726651,,9.68671512604,-4.27528810501,73.9305114746,0.0204160008579,1.0,0.0,0.0,0.0,1.0,0.0,0.0,0.0,1.0,-0.670731723309,2.56097555161,0.12195122242,1.0,0.0,0.0,0.0,1.0,0.0,0.0,0.0,1.0,-1.02471831055,-0.641646044922,10.1226846191,1.0,0.0,0.0,0.0,1.0,0.0,0.0,0.0,1.0
1463846633483329035,479,1463846632949108043,,9.69642353058,-4.2998213768,73.928237915,0.0204329993576,1.0,0.0,0.0,0.0,1.0,0.0,0.0,0.0,1.0,-0.731707334518,2.37804889679,0.12195122242,1.0,0.0,0.0,0.0,1.0,0.0,0.0,0.0,1.0,-1.01514150391,-0.794874951172,10.060435376,1.0,0.0,0.0,0.0,1.0,0.0,0.0,0.0,1.0
1463846633483614772,480,1463846632969546937,,9.70624732971,-4.31423902512,73.9220581055,0.0204380005598,1.0,0.0,0.0,0.0,1.0,0.0,0.0,0.0,1.0,-0.426829278469,2.13414645195,-0.12195122242,1.0,0.0,0.0,0.0,1.0,0.0,0.0,0.0,1.0,-1.08217922346,-0.77093293457,10.2232410889,1.0,0.0,0.0,0.0,1.0,0.0,0.0,0.0,1.0
1463846633483881341,481,1463846632990019217,,9.70422744751,-4.34283638,73.9213943481,0.0203620009124,1.0,0.0,0.0,0.0,1.0,0.0,0.0,0.0,1.0,-0.548780500889,2.01219511032,0.243902444839,1.0,0.0,0.0,0.0,1.0,0.0,0.0,0.0,1.0,-0.981622680664,-0.876277807617,10.0795889893,1.0,0.0,0.0,0.0,1.0,0.0,0.0,0.0,1.0
1463846633485393513,482,1463846633010324879,,9.69544506073,-4.36326646805,73.9147415161,0.0204179994762,1.0,0.0,0.0,0.0,1.0,0.0,0.0,0.0,1.0,-0.548780500889,2.01219511032,-0.12195122242,1.0,0.0,0.0,0.0,1.0,0.0,0.0,0.0,1.0,-0.938527050781,-0.809240161133,10.2136642822,1.0,0.0,0.0,0.0,1.0,0.0,0.0,0.0,1.0
1463846633485753366,483,1463846633030798820,,9.69263362885,-4.37617969513,73.909828186,0.0203770007938,1.0,0.0,0.0,0.0,1.0,0.0,0.0,0.0,1.0,-0.365853667259,2.07317066193,-0.0609756112099,1.0,0.0,0.0,0.0,1.0,0.0,0.0,0.0,1.0,-0.976834277344,-0.780509741211,10.1992990723,1.0,0.0,0.0,0.0,1.0,0.0,0.0,0.0,1.0
1463846633486027175,484,1463846633051106508,,9.70322132111,-4.39110136032,73.9070587158,0.0204160008579,1.0,0.0,0.0,0.0,1.0,0.0,0.0,0.0,1.0,-0.243902444839,1.76829278469,0.0609756112099,1.0,0.0,0.0,0.0,1.0,0.0,0.0,0.0,1.0,-1.13963999023,-0.818816967773,10.1035310059,1.0,0.0,0.0,0.0,1.0,0.0,0.0,0.0,1.0
1463846633486278744,485,1463846633071690453,,9.69064998627,-4.41144275665,73.9113922119,0.0204060003161,1.0,0.0,0.0,0.0,1.0,0.0,0.0,0.0,1.0,-0.304878056049,1.46341466904,0.426829278469,1.0,0.0,0.0,0.0,1.0,0.0,0.0,0.0,1.0,-1.01035310059,-0.890643017578,10.3477395752,1.0,0.0,0.0,0.0,1.0,0.0,0.0,0.0,1.0
1463846633486559688,486,1463846633092141165,,9.66402626038,-4.41696119308,73.9148178101,0.020422000438,1.0,0.0,0.0,0.0,1.0,0.0,0.0,0.0,1.0,-0.243902444839,1.15853655338,0.243902444839,1.0,0.0,0.0,0.0,1.0,0.0,0.0,0.0,1.0,-0.92416184082,-0.756567724609,10.1897222656,1.0,0.0,0.0,0.0,1.0,0.0,0.0,0.0,1.0
1463846633486818080,487,1463846633112497605,,9.60449695587,-4.3868932724,73.9411315918,0.0204070005566,1.0,0.0,0.0,0.0,1.0,0.0,0.0,0.0,1.0,-0.487804889679,-0.487804889679,0.914634168148,1.0,0.0,0.0,0.0,1.0,0.0,0.0,0.0,1.0,-0.900219824219,-0.421379492187,10.060435376,1.0,0.0,0.0,0.0,1.0,0.0,0.0,0.0,1.0
1463846633487076732,488,1463846633133004100,,9.51044082642,-4.27354478836,74.0224380493,0.0203959997743,1.0,0.0,0.0,0.0,1.0,0.0,0.0,0.0,1.0,2.19512200356,1.03658533096,3.53658556938,1.0,0.0,0.0,0.0,1.0,0.0,0.0,0.0,1.0,-0.258573779297,-0.229843359375,9.47146118306,1.0,0.0,0.0,0.0,1.0,0.0,0.0,0.0,1.0
1463846633487349864,489,1463846633153160586,,9.42612838745,-4.06933355331,74.0492782593,0.0204150006175,1.0,0.0,0.0,0.0,1.0,0.0,0.0,0.0,1.0,3.84146332741,2.86585378647,0.487804889679,1.0,0.0,0.0,0.0,1.0,0.0,0.0,0.0,1.0,-0.0478840332031,0.339976635742,9.43315395649,1.0,0.0,0.0,0.0,1.0,0.0,0.0,0.0,1.0
1463846633487664507,490,1463846633173675154,,9.41729164124,-3.96214056015,74.0478057861,0.0204050000757,1.0,0.0,0.0,0.0,1.0,0.0,0.0,0.0,1.0,5.24390268326,6.58536624908,0.365853667259,1.0,0.0,0.0,0.0,1.0,0.0,0.0,0.0,1.0,-0.0478840332031,-0.675164868164,10.1083194092,1.0,0.0,0.0,0.0,1.0,0.0,0.0,0.0,1.0
1463846633489277411,491,1463846633194153107,,9.4419927597,-4.03526973724,73.9978790283,0.0204029995948,1.0,0.0,0.0,0.0,1.0,0.0,0.0,0.0,1.0,1.46341466904,10.8536586761,-0.914634168148,1.0,0.0,0.0,0.0,1.0,0.0,0.0,0.0,1.0,0.387860668945,-1.38863696289,9.27992563477,1.0,0.0,0.0,0.0,1.0,0.0,0.0,0.0,1.0
1463846633489606013,492,1463846633214665279,,9.62944412231,-4.05594539642,73.9653625488,0.0204179994762,1.0,0.0,0.0,0.0,1.0,0.0,0.0,0.0,1.0,-1.09756100178,12.1951217651,-0.792682945728,1.0,0.0,0.0,0.0,1.0,0.0,0.0,0.0,1.0,-0.794874951172,-0.612915625,10.1514150391,1.0,0.0,0.0,0.0,1.0,0.0,0.0,0.0,1.0
1463846633491734191,493,1463846633235004843,,9.83010387421,-4.08210420609,73.933380127,0.0204300004989,1.0,0.0,0.0,0.0,1.0,0.0,0.0,0.0,1.0,-1.40243899822,10.9756097794,-0.853658556938,1.0,0.0,0.0,0.0,1.0,0.0,0.0,0.0,1.0,-1.18273554705,-0.61770402832,10.2902787354,1.0,0.0,0.0,0.0,1.0,0.0,0.0,0.0,1.0
1463846633492067115,494,1463846633255258154,,10.0112466812,-4.04936742783,73.8951797485,0.0203859992325,1.0,0.0,0.0,0.0,1.0,0.0,0.0,0.0,1.0,0.609756112099,5.60975599289,-1.70731711388,1.0,0.0,0.0,0.0,1.0,0.0,0.0,0.0,1.0,-1.90099611816,-0.411802685547,9.53371159526,1.0,0.0,0.0,0.0,1.0,0.0,0.0,0.0,1.0
1463846633492357018,495,1463846633275776733,,9.9983997345,-4.05040884018,73.774848938,0.0204029995948,1.0,0.0,0.0,0.0,1.0,0.0,0.0,0.0,1.0,1.2804877758,0.0,-5.79268312454,1.0,0.0,0.0,0.0,1.0,0.0,0.0,0.0,1.0,-1.42215578613,-0.751779321289,10.3860468018,1.0,0.0,0.0,0.0,1.0,0.0,0.0,0.0,1.0
1463846633492595826,496,1463846633296108744,,9.98487091064,-4.0179028511,73.7574539185,0.0204169992357,1.0,0.0,0.0,0.0,1.0,0.0,0.0,0.0,1.0,-0.487804889679,1.58536589146,-1.15853655338,1.0,0.0,0.0,0.0,1.0,0.0,0.0,0.0,1.0,-1.01992990723,-0.268150604204,10.060435376,1.0,0.0,0.0,0.0,1.0,0.0,0.0,0.0,1.0
1463846633493715541,497,1463846633317179732,,10.2095184326,-4.0153093338,73.7712936401,0.0204300004989,1.0,0.0,0.0,0.0,1.0,0.0,0.0,0.0,1.0,-1.09756100178,5.0,0.792682945728,1.0,0.0,0.0,0.0,1.0,0.0,0.0,0.0,1.0,-2.55700737305,-0.469263525391,10.2519715088,1.0,0.0,0.0,0.0,1.0,0.0,0.0,0.0,1.0
1463846633494058258,498,1463846633337028399,,10.157535553,-4.00355958939,73.7519836426,0.0203770007938,1.0,0.0,0.0,0.0,1.0,0.0,0.0,0.0,1.0,0.548780500889,-6.46341466904,-1.46341466904,1.0,0.0,0.0,0.0,1.0,0.0,0.0,0.0,1.0,-2.14520483363,-0.61770402832,9.87368764648,1.0,0.0,0.0,0.0,1.0,0.0,0.0,0.0,1.0
1463846633495815541,499,1463846633357334732,,10.0249862671,-3.9968764782,73.8213729858,0.020408000797,1.0,0.0,0.0,0.0,1.0,0.0,0.0,0.0,1.0,0.12195122242,-7.31707334518,2.86585378647,1.0,0.0,0.0,0.0,1.0,0.0,0.0,0.0,1.0,-1.5562310791,-0.737414111328,10.0843773926,1.0,0.0,0.0,0.0,1.0,0.0,0.0,0.0,1.0
1463846633496159300,500,1463846633377673254,,9.84402561188,-3.95918345451,73.9238204956,0.0203990004957,1.0,0.0,0.0,0.0,1.0,0.0,0.0,0.0,1.0,0.853658556938,-8.84146404266,4.2682929039,1.0,0.0,0.0,0.0,1.0,0.0,0.0,0.0,1.0,-1.37906015625,-0.651222851562,10.2423947021,1.0,0.0,0.0,0.0,1.0,0.0,0.0,0.0,1.0
1463846633496443682,501,1463846633398150270,,9.73928165436,-3.92273974419,73.9521255493,0.0204860009253,1.0,0.0,0.0,0.0,1.0,0.0,0.0,0.0,1.0,-1.2804877758,-5.79268312454,0.426829278469,1.0,0.0,0.0,0.0,1.0,0.0,0.0,0.0,1.0,-1.37427175293,-0.129286889648,9.24640681152,1.0,0.0,0.0,0.0,1.0,0.0,0.0,0.0,1.0
1463846633496778742,502,1463846633418427644,,9.45778083801,-3.8375647068,73.9555511475,0.0203389991075,1.0,0.0,0.0,0.0,1.0,0.0,0.0,0.0,1.0,-0.12195122242,-10.6097564697,-1.34146344662,1.0,0.0,0.0,0.0,1.0,0.0,0.0,0.0,1.0,-0.780509741211,0.124498486328,9.96945571289,1.0,0.0,0.0,0.0,1.0,0.0,0.0,0.0,1.0
1463846633497066770,503,1463846633438954036,,9.20505046844,-3.77837538719,73.9498519897,0.0204169992357,1.0,0.0,0.0,0.0,1.0,0.0,0.0,0.0,1.0,0.0609756112099,-11.6463422775,-1.58536589146,1.0,0.0,0.0,0.0,1.0,0.0,0.0,0.0,1.0,-1.18273554705,-0.110133276367,9.98382092285,1.0,0.0,0.0,0.0,1.0,0.0,0.0,0.0,1.0
1463846633502066841,504,1463846633459335215,,8.90580177307,-3.67777347565,73.9462509155,0.0203959997743,1.0,0.0,0.0,0.0,1.0,0.0,0.0,0.0,1.0,-0.12195122242,-12.8048782349,-1.8902438879,1.0,0.0,0.0,0.0,1.0,0.0,0.0,0.0,1.0,-0.976834277344,0.3064578125,10.4387192383,1.0,0.0,0.0,0.0,1.0,0.0,0.0,0.0,1.0
1463846633502579093,505,1463846633481005853,,8.56514358521,-3.5214099884,73.9276428223,0.0211200006306,1.0,0.0,0.0,0.0,1.0,0.0,0.0,0.0,1.0,-2.31707310677,-12.9268293381,-3.29268312454,1.0,0.0,0.0,0.0,1.0,0.0,0.0,0.0,1.0,-0.646434448242,1.17794714373,10.0125513428,1.0,0.0,0.0,0.0,1.0,0.0,0.0,0.0,1.0
1463846634160844812,506,1463846633504559298,,8.22439956665,-3.35212182999,73.907043457,0.0199730005115,1.0,0.0,0.0,0.0,1.0,0.0,0.0,0.0,1.0,0.731707334518,-12.9268293381,-3.04878044128,1.0,0.0,0.0,0.0,1.0,0.0,0.0,0.0,1.0,-0.430956298828,0.857124194336,10.180145459,1.0,0.0,0.0,0.0,1.0,0.0,0.0,0.0,1.0
1463846634160893980,507,1463846633521900559,,7.88093090057,-3.15535545349,73.8306655884,0.0201239995658,1.0,0.0,0.0,0.0,1.0,0.0,0.0,0.0,1.0,-0.731707334518,-13.9634151459,-6.21951246262,1.0,0.0,0.0,0.0,1.0,0.0,0.0,0.0,1.0,-0.579396801758,1.47961662598,10.2088758789,1.0,0.0,0.0,0.0,1.0,0.0,0.0,0.0,1.0
1463846634160930283,508,1463846633542333406,,7.5192489624,-3.06097722054,73.7249984741,0.0204550009221,1.0,0.0,0.0,0.0,1.0,0.0,0.0,0.0,1.0,1.03658533096,-10.4268293381,-6.34146356583,1.0,0.0,0.0,0.0,1.0,0.0,0.0,0.0,1.0,0.239420166016,0.282515795898,11.2527478027,1.0,0.0,0.0,0.0,1.0,0.0,0.0,0.0,1.0
1463846634161025077,509,1463846633562971207,,7.17869663239,-3.03353953362,73.5655975342,0.020428000018,1.0,0.0,0.0,0.0,1.0,0.0,0.0,0.0,1.0,-0.792682945728,-17.317073822,-9.14634132385,1.0,0.0,0.0,0.0,1.0,0.0,0.0,0.0,1.0,-1.22583125,0.0718260498047,10.6206785645,1.0,0.0,0.0,0.0,1.0,0.0,0.0,0.0,1.0
1463846634161070338,510,1463846633584439861,,6.71908473969,-3.07275319099,73.4715118408,0.0216780006886,1.0,0.0,0.0,0.0,1.0,0.0,0.0,0.0,1.0,-3.7804877758,-17.134147644,-5.60975599289,1.0,0.0,0.0,0.0,1.0,0.0,0.0,0.0,1.0,-0.234631762695,-0.0478840332031,10.4722380615,1.0,0.0,0.0,0.0,1.0,0.0,0.0,0.0,1.0
1463846634161117110,511,1463846633607108857,,6.43601799011,-3.03134894371,73.5338592529,0.019803000614,1.0,0.0,0.0,0.0,1.0,0.0,0.0,0.0,1.0,-5.36585378647,-11.9512195587,1.58536589146,1.0,0.0,0.0,0.0,1.0,0.0,0.0,0.0,1.0,-0.383072265625,0.785298144531,10.2088758789,1.0,0.0,0.0,0.0,1.0,0.0,0.0,0.0,1.0
1463846634161157216,512,1463846633625349411,,6.24008321762,-3.28542017937,73.6451721191,0.0197279993445,1.0,0.0,0.0,0.0,1.0,0.0,0.0,0.0,1.0,-3.53658556938,-5.97560977936,6.34146356583,1.0,0.0,0.0,0.0,1.0,0.0,0.0,0.0,1.0,0.0143652099609,-2.47081611328,10.7116582275,1.0,0.0,0.0,0.0,1.0,0.0,0.0,0.0,1.0
1463846634161192789,513,1463846633644228209,,6.08822488785,-3.46002101898,73.7419052124,0.020380999893,1.0,0.0,0.0,0.0,1.0,0.0,0.0,0.0,1.0,-9.87804889679,-4.20731735229,4.32926845551,1.0,0.0,0.0,0.0,1.0,0.0,0.0,0.0,1.0,-0.110133276367,-0.387860668945,9.86889924316,1.0,0.0,0.0,0.0,1.0,0.0,0.0,0.0,1.0
1463846634161350866,514,1463846633665220602,,6.0056142807,-3.37142395973,73.8698577881,0.0210609994829,1.0,0.0,0.0,0.0,1.0,0.0,0.0,0.0,1.0,0.792682945728,-3.59756112099,5.48780488968,1.0,0.0,0.0,0.0,1.0,0.0,0.0,0.0,1.0,-0.593762048251,-0.0718260498047,10.0843773926,1.0,0.0,0.0,0.0,1.0,0.0,0.0,0.0,1.0
1463846634161391805,515,1463846633688427163,,5.8719959259,-3.49057197571,73.9458312988,0.0204029995948,1.0,0.0,0.0,0.0,1.0,0.0,0.0,0.0,1.0,-6.15853643417,-5.18292713165,3.35365867615,1.0,0.0,0.0,0.0,1.0,0.0,0.0,0.0,1.0,-0.397437475586,-0.541089611728,9.62469125835,1.0,0.0,0.0,0.0,1.0,0.0,0.0,0.0,1.0
1463846634168855945,516,1463846633710197908,,5.65329456329,-3.71819877625,74.0035018921,0.0197490006685,1.0,0.0,0.0,0.0,1.0,0.0,0.0,0.0,1.0,-11.8292684555,-7.62195110321,2.37804889679,1.0,0.0,0.0,0.0,1.0,0.0,0.0,0.0,1.0,-0.0287304199219,-0.584185168546,10.2423947021,1.0,0.0,0.0,0.0,1.0,0.0,0.0,0.0,1.0
1463846634168949072,517,1463846633726465600,,5.48906469345,-4.03350543976,74.0643310547,0.0204019993544,1.0,0.0,0.0,0.0,1.0,0.0,0.0,0.0,1.0,-12.0121955872,-4.63414621353,2.98780488968,1.0,0.0,0.0,0.0,1.0,0.0,0.0,0.0,1.0,0.0143652099609,-1.27850368652,9.98382092285,1.0,0.0,0.0,0.0,1.0,0.0,0.0,0.0,1.0
1463846634169044127,518,1463846633746467239,,5.32951641083,-4.40031576157,74.2341156006,0.0204189997166,1.0,0.0,0.0,0.0,1.0,0.0,0.0,0.0,1.0,-19.7560977936,-4.81707286835,7.80487823486,1.0,0.0,0.0,0.0,1.0,0.0,0.0,0.0,1.0,0.0335188255255,-0.469263525391,9.58638403179,1.0,0.0,0.0,0.0,1.0,0.0,0.0,0.0,1.0
1463846634169096628,519,1463846633766344865,,5.22744035721,-4.78390932083,74.407585144,0.020494999364,1.0,0.0,0.0,0.0,1.0,0.0,0.0,0.0,1.0,-17.6219520569,0.792682945728,8.65853691101,1.0,0.0,0.0,0.0,1.0,0.0,0.0,0.0,1.0,0.579396801758,-1.07260241682,10.0364933594,1.0,0.0,0.0,0.0,1.0,0.0,0.0,0.0,1.0
1463846634169132619,520,1463846633788860524,,5.17077159882,-5.2660074234,74.5080871582,0.0203070007265,1.0,0.0,0.0,0.0,1.0,0.0,0.0,0.0,1.0,-19.9390239716,-2.5,5.12195110321,1.0,0.0,0.0,0.0,1.0,0.0,0.0,0.0,1.0,-0.430956298828,-1.58496149902,10.1178962158,1.0,0.0,0.0,0.0,1.0,0.0,0.0,0.0,1.0
1463846634169179286,521,1463846633808642157,,5.14712572098,-5.63831233978,74.6158447266,0.0204109996557,1.0,0.0,0.0,0.0,1.0,0.0,0.0,0.0,1.0,-12.9268293381,-7.62195110321,5.12195110321,1.0,0.0,0.0,0.0,1.0,0.0,0.0,0.0,1.0,-2.30801040039,-2.75333190918,14.1353666016,1.0,0.0,0.0,0.0,1.0,0.0,0.0,0.0,1.0
1463846634169310123,522,1463846633832559101,,4.84939527512,-6.2512216568,74.8596878052,0.0213520005345,1.0,0.0,0.0,0.0,1.0,0.0,0.0,0.0,1.0,-26.2804889679,-9.08536529541,10.7926826477,1.0,0.0,0.0,0.0,1.0,0.0,0.0,0.0,1.0,0.541089611728,-1.58496149902,10.0939541992,1.0,0.0,0.0,0.0,1.0,0.0,0.0,0.0,1.0
1463846634169358770,523,1463846633849131488,,4.60752391815,-6.77561998367,75.1084594727,0.0201570000499,1.0,0.0,0.0,0.0,1.0,0.0,0.0,0.0,1.0,-21.158536911,-9.45121955872,11.8292684555,1.0,0.0,0.0,0.0,1.0,0.0,0.0,0.0,1.0,0.253785375977,-2.44687409668,11.4778027588,1.0,0.0,0.0,0.0,1.0,0.0,0.0,0.0,1.0
1463846634169407000,524,1463846633872334456,,4.3082780838,-7.02950382233,75.2709655762,0.0202530007809,1.0,0.0,0.0,0.0,1.0,0.0,0.0,0.0,1.0,-11.5243911743,-15.3048791885,6.40243911743,1.0,0.0,0.0,0.0,1.0,0.0,0.0,0.0,1.0,-0.440533105469,-1.65199914551,11.405976709,1.0,0.0,0.0,0.0,1.0,0.0,0.0,0.0,1.0
1463846634169443095,525,1463846633888986689,,3.87547326088,-7.27854919434,75.393951416,0.0198749992996,1.0,0.0,0.0,0.0,1.0,0.0,0.0,0.0,1.0,-9.51219558716,-22.1341457367,3.7804877758,1.0,0.0,0.0,0.0,1.0,0.0,0.0,0.0,1.0,-0.383072265625,-2.02549460449,11.0947304932,1.0,0.0,0.0,0.0,1.0,0.0,0.0,0.0,1.0
1463846634169528618,526,1463846633912337890,,3.27279281616,-7.59076309204,75.5181884766,0.0207630004734,1.0,0.0,0.0,0.0,1.0,0.0,0.0,0.0,1.0,-10.7926826477,-27.682926178,2.80487799644,1.0,0.0,0.0,0.0,1.0,0.0,0.0,0.0,1.0,0.0335188255255,-2.27449157715,10.9175595703,1.0,0.0,0.0,0.0,1.0,0.0,0.0,0.0,1.0
1463846634169570129,527,1463846633933034285,,2.72402358055,-7.79321146011,75.6284408569,0.0214850008488,1.0,0.0,0.0,0.0,1.0,0.0,0.0,0.0,1.0,-5.42682933807,-22.3170719147,2.5,1.0,0.0,0.0,0.0,1.0,0.0,0.0,0.0,1.0,0.507570751953,-2.25533796387,10.8696755371,1.0,0.0,0.0,0.0,1.0,0.0,0.0,0.0,1.0
1463846634169607786,528,1463846633952750344,,2.40978908539,-7.85163545609,75.7422943115,0.0191639997065,1.0,0.0,0.0,0.0,1.0,0.0,0.0,0.0,1.0,0.731707334518,-12.1341466904,4.63414621353,1.0,0.0,0.0,0.0,1.0,0.0,0.0,0.0,1.0,0.833182177734,-2.18351191406,10.539275708,1.0,0.0,0.0,0.0,1.0,0.0,0.0,0.0,1.0
1463846634169642892,529,1463846633971949463,,2.30640053749,-7.7872633934,75.8513183594,0.0202280003577,1.0,0.0,0.0,0.0,1.0,0.0,0.0,0.0,1.0,7.37804937363,-2.37804889679,5.42682933807,1.0,0.0,0.0,0.0,1.0,0.0,0.0,0.0,1.0,0.579396801758,-2.17872351074,10.1370498291,1.0,0.0,0.0,0.0,1.0,0.0,0.0,0.0,1.0
1463846634169678517,530,1463846633993188684,,2.37657189369,-7.5797495842,75.9515228271,0.0204850006849,1.0,0.0,0.0,0.0,1.0,0.0,0.0,0.0,1.0,13.658536911,6.0365858078,6.0365858078,1.0,0.0,0.0,0.0,1.0,0.0,0.0,0.0,1.0,0.584185168546,-2.08295529821,10.3668931885,1.0,0.0,0.0,0.0,1.0,0.0,0.0,0.0,1.0
1463846634169715445,531,1463846634011749871,,2.61963558197,-7.27581691742,76.0508117676,0.0203220006078,1.0,0.0,0.0,0.0,1.0,0.0,0.0,0.0,1.0,16.7682933807,15.2439022064,7.13414621353,1.0,0.0,0.0,0.0,1.0,0.0,0.0,0.0,1.0,0.727837304687,-1.7908628418,10.7882726807,1.0,0.0,0.0,0.0,1.0,0.0,0.0,0.0,1.0
1463846634169757165,532,1463846634035498835,,3.06398367882,-6.94738864899,76.1231765747,0.0204039998353,1.0,0.0,0.0,0.0,1.0,0.0,0.0,0.0,1.0,18.2317085266,21.8292694092,6.52439069748,1.0,0.0,0.0,0.0,1.0,0.0,0.0,0.0,1.0,0.0239420166016,-1.77170922852,10.6972930176,1.0,0.0,0.0,0.0,1.0,0.0,0.0,0.0,1.0
1463846634169794770,533,1463846634055606930,,3.42154455185,-6.59423732758,76.1335067749,0.0204230006784,1.0,0.0,0.0,0.0,1.0,0.0,0.0,0.0,1.0,17.134147644,16.9512195587,2.62195134163,1.0,0.0,0.0,0.0,1.0,0.0,0.0,0.0,1.0,-0.263362164351,-1.2497732666,10.793061084,1.0,0.0,0.0,0.0,1.0,0.0,0.0,0.0,1.0
1463846634169838730,534,1463846634075590595,,3.6736934185,-6.31784915924,76.1514816284,0.0211939997971,1.0,0.0,0.0,0.0,1.0,0.0,0.0,0.0,1.0,13.9634151459,11.0975618362,2.25609779358,1.0,0.0,0.0,0.0,1.0,0.0,0.0,0.0,1.0,-0.373495458984,-1.37427175293,10.6254669678,1.0,0.0,0.0,0.0,1.0,0.0,0.0,0.0,1.0
1463846634169942430,535,1463846634095750410,,3.78915286064,-6.0814666748,76.1661605835,0.0204019993544,1.0,0.0,0.0,0.0,1.0,0.0,0.0,0.0,1.0,12.0731716156,4.69512224197,1.34146344662,1.0,0.0,0.0,0.0,1.0,0.0,0.0,0.0,1.0,-0.45489831543,-1.21625444336,10.4387192383,1.0,0.0,0.0,0.0,1.0,0.0,0.0,0.0,1.0
1463846634169992952,536,1463846634113275265,,3.79092955589,-5.89111566544,76.1907272339,0.0201650001109,1.0,0.0,0.0,0.0,1.0,0.0,0.0,0.0,1.0,9.75609779358,-0.304878056049,1.2804877758,1.0,0.0,0.0,0.0,1.0,0.0,0.0,0.0,1.0,-0.349553442383,-1.09654436035,9.97903251953,1.0,0.0,0.0,0.0,1.0,0.0,0.0,0.0,1.0
1463846634171093083,537,1463846634132835014,,3.6872947216,-5.73907613754,76.2603759766,0.0199950002134,1.0,0.0,0.0,0.0,1.0,0.0,0.0,0.0,1.0,8.47560977936,-3.23170733452,3.29268312454,1.0,0.0,0.0,0.0,1.0,0.0,0.0,0.0,1.0,0.105344873047,-1.19231249982,10.0125513428,1.0,0.0,0.0,0.0,1.0,0.0,0.0,0.0,1.0
1463846634678980535,538,1463846634153213688,,3.58375120163,-5.59391498566,76.3807067871,0.0202820003033,1.0,0.0,0.0,0.0,1.0,0.0,0.0,0.0,1.0,7.31707334518,-4.81707286835,5.54878091812,1.0,0.0,0.0,0.0,1.0,0.0,0.0,0.0,1.0,-0.129286889648,-1.03908344744,9.77313117676,1.0,0.0,0.0,0.0,1.0,0.0,0.0,0.0,1.0
1463846634679291688,539,1463846634177167190,,3.41927075386,-5.46024894714,76.5149841309,0.0203879997134,1.0,0.0,0.0,0.0,1.0,0.0,0.0,0.0,1.0,6.7682929039,-6.64634132385,6.0365858078,1.0,0.0,0.0,0.0,1.0,0.0,0.0,0.0,1.0,0.0957680664062,-1.06781401349,10.1562034424,1.0,0.0,0.0,0.0,1.0,0.0,0.0,0.0,1.0
1463846634681495075,540,1463846634198393646,,3.25168275833,-5.33791971207,76.6331863403,0.0204240009189,1.0,0.0,0.0,0.0,1.0,0.0,0.0,0.0,1.0,6.52439069748,-6.82926845551,5.24390268326,1.0,0.0,0.0,0.0,1.0,0.0,0.0,0.0,1.0,0.100556469727,-1.08217922346,10.0795889893,1.0,0.0,0.0,0.0,1.0,0.0,0.0,0.0,1.0
1463846634681825500,541,1463846634215872301,,3.08350658417,-5.20707845688,76.7345504761,0.0204179994762,1.0,0.0,0.0,0.0,1.0,0.0,0.0,0.0,1.0,7.07317113876,-5.97560977936,4.51219558716,1.0,0.0,0.0,0.0,1.0,0.0,0.0,0.0,1.0,0.272938989258,-1.06781401349,10.0364933594,1.0,0.0,0.0,0.0,1.0,0.0,0.0,0.0,1.0
1463846634682106288,542,1463846634237724918,,2.96060824394,-5.09437465668,76.8112716675,0.020422000438,1.0,0.0,0.0,0.0,1.0,0.0,0.0,0.0,1.0,7.25609779358,-2.74390244484,3.65853667259,1.0,0.0,0.0,0.0,1.0,0.0,0.0,0.0,1.0,0.469263525391,-1.23061965332,10.0939541992,1.0,0.0,0.0,0.0,1.0,0.0,0.0,0.0,1.0
1463846634682978445,543,1463846634260087183,,2.94334292412,-4.94606971741,76.8850326538,0.0214850008488,1.0,0.0,0.0,0.0,1.0,0.0,0.0,0.0,1.0,8.04878044128,2.68292689323,3.7804877758,1.0,0.0,0.0,0.0,1.0,0.0,0.0,0.0,1.0,0.541089611728,-1.13485158691,10.419565625,1.0,0.0,0.0,0.0,1.0,0.0,0.0,0.0,1.0
1463846634683613565,544,1463846634278077101,,3.03633499146,-4.80247974396,76.9403686523,0.0202380008996,1.0,0.0,0.0,0.0,1.0,0.0,0.0,0.0,1.0,7.68292665482,7.80487823486,3.47560977936,1.0,0.0,0.0,0.0,1.0,0.0,0.0,0.0,1.0,0.474051928711,-0.981622680664,10.2567599121,1.0,0.0,0.0,0.0,1.0,0.0,0.0,0.0,1.0
1463846634684646767,545,1463846634297594922,,3.26822733879,-4.67818927765,76.9813079834,0.0202159993351,1.0,0.0,0.0,0.0,1.0,0.0,0.0,0.0,1.0,7.80487823486,15.9146347046,3.47560977936,1.0,0.0,0.0,0.0,1.0,0.0,0.0,0.0,1.0,0.684741674805,-1.15879360352,10.3716815918,1.0,0.0,0.0,0.0,1.0,0.0,0.0,0.0,1.0
1463846634686681087,546,1463846634318358345,,3.68531489372,-4.52755355835,76.9932022095,0.0201040003449,1.0,0.0,0.0,0.0,1.0,0.0,0.0,0.0,1.0,8.5365858078,23.2926845551,2.56097555161,1.0,0.0,0.0,0.0,1.0,0.0,0.0,0.0,1.0,0.272938989258,-1.01992990723,10.4961800781,1.0,0.0,0.0,0.0,1.0,0.0,0.0,0.0,1.0
1463846634687035211,547,1463846634338384615,,4.24611520767,-4.36040210724,77.0263214111,0.020005999133,1.0,0.0,0.0,0.0,1.0,0.0,0.0,0.0,1.0,8.59756088257,30.6097583771,4.08536577225,1.0,0.0,0.0,0.0,1.0,0.0,0.0,0.0,1.0,0.215478149414,-0.847547387695,10.3812583984,1.0,0.0,0.0,0.0,1.0,0.0,0.0,0.0,1.0
1463846634687338708,548,1463846634358723601,,5.08639812469,-4.22157001495,77.2071228027,0.0210929997265,1.0,0.0,0.0,0.0,1.0,0.0,0.0,0.0,1.0,6.52439069748,45.8536605835,12.0731716156,1.0,0.0,0.0,0.0,1.0,0.0,0.0,0.0,1.0,0.861912597656,-0.881066210937,10.5153336914,1.0,0.0,0.0,0.0,1.0,0.0,0.0,0.0,1.0
1463846634687667361,549,1463846634379305614,,6.40434408188,-4.11245965958,77.4228668213,0.0197039991617,1.0,0.0,0.0,0.0,1.0,0.0,0.0,0.0,1.0,6.15853643417,78.5365829468,16.8292694092,1.0,0.0,0.0,0.0,1.0,0.0,0.0,0.0,1.0,1.73340200195,-1.00077629395,9.90720646973,1.0,0.0,0.0,0.0,1.0,0.0,0.0,0.0,1.0
1463846634687959452,550,1463846634398999481,,8.37483501434,-4.07152891159,77.5311889648,0.0203900001943,1.0,0.0,0.0,0.0,1.0,0.0,0.0,0.0,1.0,4.81707286835,106.585372925,13.3536586761,1.0,0.0,0.0,0.0,1.0,0.0,0.0,0.0,1.0,1.09654436035,-1.26892687988,9.66778688823,1.0,0.0,0.0,0.0,1.0,0.0,0.0,0.0,1.0
1463846634689396310,551,1463846634421412267,,10.9253635406,-3.99999475479,77.3187332153,0.0204230006784,1.0,0.0,0.0,0.0,1.0,0.0,0.0,0.0,1.0,7.80487823486,131.951217651,-0.487804889679,1.0,0.0,0.0,0.0,1.0,0.0,0.0,0.0,1.0,0.0574608398438,-1.06781401349,9.40442353657,1.0,0.0,0.0,0.0,1.0,0.0,0.0,0.0,1.0
1463846634689734495,552,1463846634439014260,,13.796295166,-3.99479317665,76.8912582397,0.0203910004348,1.0,0.0,0.0,0.0,1.0,0.0,0.0,0.0,1.0,3.71951246262,150.60975647,-10.0609760284,1.0,0.0,0.0,0.0,1.0,0.0,0.0,0.0,1.0,-0.0287304199219,-0.435744702148,9.08360109863,1.0,0.0,0.0,0.0,1.0,0.0,0.0,0.0,1.0
1463846634690056638,553,1463846634459225743,,17.1231441498,-4.24388933182,76.3120269775,0.0204119998962,1.0,0.0,0.0,0.0,1.0,0.0,0.0,0.0,1.0,0.0609756112099,181.89024353,-12.9878053665,1.0,0.0,0.0,0.0,1.0,0.0,0.0,0.0,1.0,0.938527050781,-1.33596452637,8.69095202637,1.0,0.0,0.0,0.0,1.0,0.0,0.0,0.0,1.0
1463846634690351698,554,1463846634479827339,,21.2235355377,-4.5277762413,75.5485458374,0.0204109996557,1.0,0.0,0.0,0.0,1.0,0.0,0.0,0.0,1.0,-1.2195122242,207.560974121,-19.0853652954,1.0,0.0,0.0,0.0,1.0,0.0,0.0,0.0,1.0,-1.66636435547,-0.689530078125,8.68616362305,1.0,0.0,0.0,0.0,1.0,0.0,0.0,0.0,1.0
1463846634691101247,555,1463846634500216275,,25.4900283813,-5.16296291351,74.3901901245,0.0205080006272,1.0,0.0,0.0,0.0,1.0,0.0,0.0,0.0,1.0,-8.5365858078,210.0,-33.7804870605,1.0,0.0,0.0,0.0,1.0,0.0,0.0,0.0,1.0,-3.42370837402,-0.684741674805,8.73404765625,1.0,0.0,0.0,0.0,1.0,0.0,0.0,0.0,1.0
1463846634692691859,556,1463846634529481885,,29.3221645355,-6.18126392365,72.9046401978,0.020312000066,1.0,0.0,0.0,0.0,1.0,0.0,0.0,0.0,1.0,-15.548781395,191.951217651,-45.182926178,1.0,0.0,0.0,0.0,1.0,0.0,0.0,0.0,1.0,-4.15154538645,-0.92416184082,8.41322404927,1.0,0.0,0.0,0.0,1.0,0.0,0.0,0.0,1.0
1463846634693960119,557,1463846634541899219,,33.0694694519,-7.4303560257,71.2065353394,0.0204470008612,1.0,0.0,0.0,0.0,1.0,0.0,0.0,0.0,1.0,-15.1829271317,187.256103516,-46.8292694092,1.0,0.0,0.0,0.0,1.0,0.0,0.0,0.0,1.0,-4.5250411377,-1.33596452637,7.47948598633,1.0,0.0,0.0,0.0,1.0,0.0,0.0,0.0,1.0
1463846634694335962,558,1463846634562916191,,36.883808136,-8.95905971527,69.2389984131,0.0218359995633,1.0,0.0,0.0,0.0,1.0,0.0,0.0,0.0,1.0,-15.3048791885,169.024383545,-47.1951255798,1.0,0.0,0.0,0.0,1.0,0.0,0.0,0.0,1.0,-7.21612380371,-1.5562310791,6.78516750488,1.0,0.0,0.0,0.0,1.0,0.0,0.0,0.0,1.0
1463846634694631490,559,1463846634586495725,,39.4998474121,-10.3127975464,67.6197128296,0.0189399998635,1.0,0.0,0.0,0.0,1.0,0.0,0.0,0.0,1.0,-18.1707305908,137.073181152,-43.5365867615,1.0,0.0,0.0,0.0,1.0,0.0,0.0,0.0,1.0,-7.70454094238,-1.29286889648,7.34541069336,1.0,0.0,0.0,0.0,1.0,0.0,0.0,0.0,1.0
1463846634694938945,560,1463846634605830103,,41.7421112061,-11.6648588181,66.1435394287,0.0204809997231,1.0,0.0,0.0,0.0,1.0,0.0,0.0,0.0,1.0,-19.3902435303,107.682929993,-34.0853691101,1.0,0.0,0.0,0.0,1.0,0.0,0.0,0.0,1.0,-7.89128867187,-1.20667770978,6.87135876465,1.0,0.0,0.0,0.0,1.0,0.0,0.0,0.0,1.0
1463846634695261297,561,1463846634623436679,,43.4121398926,-12.6662244797,65.1744003296,0.0203389991075,1.0,0.0,0.0,0.0,1.0,0.0,0.0,0.0,1.0,-17.1951217651,77.6829299927,-18.475610733,1.0,0.0,0.0,0.0,1.0,0.0,0.0,0.0,1.0,-8.2264769043,-1.34554133301,6.64630380859,1.0,0.0,0.0,0.0,1.0,0.0,0.0,0.0,1.0
1463846634695556512,562,1463846634645173564,,44.4327850342,-13.0769519806,65.0280380249,0.0203980002552,1.0,0.0,0.0,0.0,1.0,0.0,0.0,0.0,1.0,-15.4878053665,42.2560958862,4.57317066193,1.0,0.0,0.0,0.0,1.0,0.0,0.0,0.0,1.0,-8.64785698101,-1.52271225586,7.15387456055,1.0,0.0,0.0,0.0,1.0,0.0,0.0,0.0,1.0
1463846635056173691,563,1463846634665062487,,44.7889785767,-12.9555225372,65.5596237183,0.0204109996557,1.0,0.0,0.0,0.0,1.0,0.0,0.0,0.0,1.0,-11.6463422775,4.32926845551,20.9146347046,1.0,0.0,0.0,0.0,1.0,0.0,0.0,0.0,1.0,-9.63426806499,-1.92493813477,7.45554396973,1.0,0.0,0.0,0.0,1.0,0.0,0.0,0.0,1.0
1463846635056461198,564,1463846634683747682,,44.4329147339,-12.2683410645,66.7524795532,0.0204109996557,1.0,0.0,0.0,0.0,1.0,0.0,0.0,0.0,1.0,-7.86585378647,-37.9268302917,33.3536605835,1.0,0.0,0.0,0.0,1.0,0.0,0.0,0.0,1.0,-9.64863327495,-1.28808049316,6.53138212891,1.0,0.0,0.0,0.0,1.0,0.0,0.0,0.0,1.0
1463846635056727298,565,1463846634705733844,,43.1229782104,-11.0718412399,68.6417007446,0.0206829998642,1.0,0.0,0.0,0.0,1.0,0.0,0.0,0.0,1.0,-5.12195110321,-83.7804870605,49.5121955872,1.0,0.0,0.0,0.0,1.0,0.0,0.0,0.0,1.0,-8.79629689941,-1.4604630127,6.92403120117,1.0,0.0,0.0,0.0,1.0,0.0,0.0,0.0,1.0
1463846635057083296,566,1463846634728753677,,41.0934524536,-9.522564888,70.9931640625,0.0201280005276,1.0,0.0,0.0,0.0,1.0,0.0,0.0,0.0,1.0,-1.76829278469,-120.000007629,64.8780441284,1.0,0.0,0.0,0.0,1.0,0.0,0.0,0.0,1.0,-7.69017573242,-1.17315874041,7.16823977051,1.0,0.0,0.0,0.0,1.0,0.0,0.0,0.0,1.0
1463846635058899538,567,1463846634745008449,,38.5228919983,-7.94220256805,73.4613189697,0.0204150006175,1.0,0.0,0.0,0.0,1.0,0.0,0.0,0.0,1.0,1.2804877758,-145.365844727,71.6463394165,1.0,0.0,0.0,0.0,1.0,0.0,0.0,0.0,1.0,-7.52737001953,-1.39821376953,7.18739338379,1.0,0.0,0.0,0.0,1.0,0.0,0.0,0.0,1.0
1463846635059271005,568,1463846634767427850,,35.0597076416,-6.3351111412,76.0333251953,0.0203980002552,1.0,0.0,0.0,0.0,1.0,0.0,0.0,0.0,1.0,5.91463422775,-183.292694092,79.8170776367,1.0,0.0,0.0,0.0,1.0,0.0,0.0,0.0,1.0,-5.96156213379,-1.49877023926,7.39808312988,1.0,0.0,0.0,0.0,1.0,0.0,0.0,0.0,1.0
1463846635059571585,569,1463846634791188222,,31.0783653259,-4.78932714462,78.6619720459,0.0204109996557,1.0,0.0,0.0,0.0,1.0,0.0,0.0,0.0,1.0,7.13414621353,-208.475601196,88.2317047119,1.0,0.0,0.0,0.0,1.0,0.0,0.0,0.0,1.0,-5.79396801758,-1.11090957031,7.72369455566,1.0,0.0,0.0,0.0,1.0,0.0,0.0,0.0,1.0
1463846635059891385,570,1463846634806349321,,26.645614624,-3.43596029282,81.2215652466,0.0204150006175,1.0,0.0,0.0,0.0,1.0,0.0,0.0,0.0,1.0,9.32926845551,-227.439025879,94.9390258789,1.0,0.0,0.0,0.0,1.0,0.0,0.0,0.0,1.0,-4.78840361257,-1.24019645996,7.69975253906,1.0,0.0,0.0,0.0,1.0,0.0,0.0,0.0,1.0
1463846635062027061,571,1463846634826861228,,21.675157547,-2.21678161621,83.7441177368,0.0204199999571,1.0,0.0,0.0,0.0,1.0,0.0,0.0,0.0,1.0,11.8902444839,-249.573165894,101.097557068,1.0,0.0,0.0,0.0,1.0,0.0,0.0,0.0,1.0,-3.64397492676,-0.871489404297,7.73805976562,1.0,0.0,0.0,0.0,1.0,0.0,0.0,0.0,1.0
1463846635062392070,572,1463846634847168964,,16.2754840851,-1.22523772717,86.1816558838,0.0204070005566,1.0,0.0,0.0,0.0,1.0,0.0,0.0,0.0,1.0,12.1341466904,-262.743896484,105.426834106,1.0,0.0,0.0,0.0,1.0,0.0,0.0,0.0,1.0,-1.96803376465,-0.627280834961,7.87213505859,1.0,0.0,0.0,0.0,1.0,0.0,0.0,0.0,1.0
1463846635062692807,573,1463846634868734647,,10.8329534531,-0.540096461773,88.5219268799,0.0204130001366,1.0,0.0,0.0,0.0,1.0,0.0,0.0,0.0,1.0,11.5243911743,-260.609741211,108.353660583,1.0,0.0,0.0,0.0,1.0,0.0,0.0,0.0,1.0,-0.857124194336,-0.871489404297,8.19774648437,1.0,0.0,0.0,0.0,1.0,0.0,0.0,0.0,1.0
1463846635062997918,574,1463846634888081994,,5.4287238121,-0.0342440232635,90.8487930298,0.0204039998353,1.0,0.0,0.0,0.0,1.0,0.0,0.0,0.0,1.0,12.5,-253.658554077,111.951225281,1.0,0.0,0.0,0.0,1.0,0.0,0.0,0.0,1.0,0.541089611728,-0.627280834961,8.45153127583,1.0,0.0,0.0,0.0,1.0,0.0,0.0,0.0,1.0
1463846635063289019,575,1463846634908965525,,0.374054372311,0.206015482545,93.1977081299,0.0204169992357,1.0,0.0,0.0,0.0,1.0,0.0,0.0,0.0,1.0,10.9756097794,-230.06098938,115.365859985,1.0,0.0,0.0,0.0,1.0,0.0,0.0,0.0,1.0,2.45645090332,-0.814028564453,9.1697923584,1.0,0.0,0.0,0.0,1.0,0.0,0.0,0.0,1.0
1463846635063580432,576,1463846634928670537,,-4.07744693756,0.228017538786,95.5187149048,0.0203820001334,1.0,0.0,0.0,0.0,1.0,0.0,0.0,0.0,1.0,11.4634151459,-200.670730591,114.268295288,1.0,0.0,0.0,0.0,1.0,0.0,0.0,0.0,1.0,3.39018955078,-1.10133276367,9.31344387349,1.0,0.0,0.0,0.0,1.0,0.0,0.0,0.0,1.0
1463846635063904607,577,1463846634949935796,,-7.75862455368,0.171096339822,97.7100296021,0.0204140003771,1.0,0.0,0.0,0.0,1.0,0.0,0.0,0.0,1.0,11.7073173523,-166.219512939,106.768295288,1.0,0.0,0.0,0.0,1.0,0.0,0.0,0.0,1.0,3.6535517334,-0.545877978516,9.77791958008,1.0,0.0,0.0,0.0,1.0,0.0,0.0,0.0,1.0
1463846635064199458,578,1463846634970359055,,-10.5119524002,0.0460980571806,99.750617981,0.0204089991748,1.0,0.0,0.0,0.0,1.0,0.0,0.0,0.0,1.0,5.97560977936,-127.865852356,99.1463470459,1.0,0.0,0.0,0.0,1.0,0.0,0.0,0.0,1.0,3.25611425781,0.833182177734,10.6446205811,1.0,0.0,0.0,0.0,1.0,0.0,0.0,0.0,1.0
1463846635064507903,579,1463846634989908438,,-12.6625518799,-0.211352407932,101.535224915,0.0204179994762,1.0,0.0,0.0,0.0,1.0,0.0,0.0,0.0,1.0,7.13414621353,-94.2682952881,84.7561035156,1.0,0.0,0.0,0.0,1.0,0.0,0.0,0.0,1.0,4.97036264648,-0.411802685547,11.0564232666,1.0,0.0,0.0,0.0,1.0,0.0,0.0,0.0,1.0
1463846635065797361,580,1463846635010314405,,-13.909072876,-0.473374128342,102.968307495,0.0204019993544,1.0,0.0,0.0,0.0,1.0,0.0,0.0,0.0,1.0,3.90243911743,-53.1707305908,67.6219558716,1.0,0.0,0.0,0.0,1.0,0.0,0.0,0.0,1.0,5.00388146973,-0.124498486328,11.5783592285,1.0,0.0,0.0,0.0,1.0,0.0,0.0,0.0,1.0
1463846635066250184,581,1463846635031089386,,-14.2584466934,-0.698470652103,103.971321106,0.0204039998353,1.0,0.0,0.0,0.0,1.0,0.0,0.0,0.0,1.0,1.2195122242,-11.5853662491,47.2560958862,1.0,0.0,0.0,0.0,1.0,0.0,0.0,0.0,1.0,4.8171340325,-0.110133276367,11.7938373779,1.0,0.0,0.0,0.0,1.0,0.0,0.0,0.0,1.0
1463846635067551883,582,1463846635051526599,,-13.7725982666,-0.80941927433,104.581001282,0.0204000007361,1.0,0.0,0.0,0.0,1.0,0.0,0.0,0.0,1.0,5.30487823486,28.475610733,28.2926845551,1.0,0.0,0.0,0.0,1.0,0.0,0.0,0.0,1.0,4.72136538157,-0.91458503418,11.9566430908,1.0,0.0,0.0,0.0,1.0,0.0,0.0,0.0,1.0
1463846635284337750,583,1463846635072972118,,-12.5391817093,-0.804519593716,104.763824463,0.0204119998962,1.0,0.0,0.0,0.0,1.0,0.0,0.0,0.0,1.0,6.64634132385,63.5975646973,8.41463470459,1.0,0.0,0.0,0.0,1.0,0.0,0.0,0.0,1.0,3.94564433594,-1.06302561017,11.2958434326,1.0,0.0,0.0,0.0,1.0,0.0,0.0,0.0,1.0
1463846635284619111,584,1463846635094951035,,-10.7418241501,-0.702415466309,104.550369263,0.0204150006175,1.0,0.0,0.0,0.0,1.0,0.0,0.0,0.0,1.0,5.91463422775,89.2682876587,-9.81707286835,1.0,0.0,0.0,0.0,1.0,0.0,0.0,0.0,1.0,3.00232888184,-0.708683691406,10.6541973877,1.0,0.0,0.0,0.0,1.0,0.0,0.0,0.0,1.0
1463846635284963651,585,1463846635112399217,,-8.57391452789,-0.662219882011,104.041542053,0.0204300004989,1.0,0.0,0.0,0.0,1.0,0.0,0.0,0.0,1.0,1.52439022064,107.56098175,-24.0243911743,1.0,0.0,0.0,0.0,1.0,0.0,0.0,0.0,1.0,2.70065947266,-0.837970581055,10.8505219238,1.0,0.0,0.0,0.0,1.0,0.0,0.0,0.0,1.0
1463846635286361237,586,1463846635132736896,,-6.01678562164,-0.754110455513,103.23677063,0.0203799996525,1.0,0.0,0.0,0.0,1.0,0.0,0.0,0.0,1.0,-2.56097555161,126.768295288,-38.6585388184,1.0,0.0,0.0,0.0,1.0,0.0,0.0,0.0,1.0,2.26012636719,-1.5083470459,11.1617681396,1.0,0.0,0.0,0.0,1.0,0.0,0.0,0.0,1.0
1463846635286721454,587,1463846635153131608,,-3.05677318573,-0.921315431595,102.147125244,0.0204130001366,1.0,0.0,0.0,0.0,1.0,0.0,0.0,0.0,1.0,-3.23170733452,141.280487061,-52.0731697083,1.0,0.0,0.0,0.0,1.0,0.0,0.0,0.0,1.0,0.641646044922,-1.87226569824,10.7308118408,1.0,0.0,0.0,0.0,1.0,0.0,0.0,0.0,1.0
1463846635287118443,588,1463846635173662001,,-0.0405992344022,-1.13673055172,100.885971069,0.0204060003161,1.0,0.0,0.0,0.0,1.0,0.0,0.0,0.0,1.0,-8.90243911743,145.121963501,-59.2682914734,1.0,0.0,0.0,0.0,1.0,0.0,0.0,0.0,1.0,0.205901342773,-0.699106884766,9.85932243652,1.0,0.0,0.0,0.0,1.0,0.0,0.0,0.0,1.0
1463846635287170735,589,1463846635194002441,,2.84577846527,-1.54786157608,99.6049804688,0.0204000007361,1.0,0.0,0.0,0.0,1.0,0.0,0.0,0.0,1.0,-13.5975618362,140.304885864,-59.390247345,1.0,0.0,0.0,0.0,1.0,0.0,0.0,0.0,1.0,-0.114921679688,-1.04387185076,9.95030209961,1.0,0.0,0.0,0.0,1.0,0.0,0.0,0.0,1.0
1463846635289097084,590,1463846635214295379,,5.63383150101,-2.11541771889,98.3997192383,0.0204140003771,1.0,0.0,0.0,0.0,1.0,0.0,0.0,0.0,1.0,-17.9878044128,136.158538818,-54.1463432312,1.0,0.0,0.0,0.0,1.0,0.0,0.0,0.0,1.0,-0.526724328702,-1.14442839355,9.50498117534,1.0,0.0,0.0,0.0,1.0,0.0,0.0,0.0,1.0
1463846635289444853,591,1463846635235591311,,8.34820747375,-2.7809214592,97.2370071411,0.0204189997166,1.0,0.0,0.0,0.0,1.0,0.0,0.0,0.0,1.0,-21.0365848541,123.536590576,-50.6097564697,1.0,0.0,0.0,0.0,1.0,0.0,0.0,0.0,1.0,-2.40377861293,-1.01992990723,8.58081933452,1.0,0.0,0.0,0.0,1.0,0.0,0.0,0.0,1.0
1463846635289946428,592,1463846635255286423,,10.6052770615,-3.50639653206,96.2955703735,0.0203959997743,1.0,0.0,0.0,0.0,1.0,0.0,0.0,0.0,1.0,-27.682926178,101.646347046,-39.7560997009,1.0,0.0,0.0,0.0,1.0,0.0,0.0,0.0,1.0,-2.83473476562,-0.440533105469,8.74362446289,1.0,0.0,0.0,0.0,1.0,0.0,0.0,0.0,1.0
1463846635543728815,593,1463846635275804002,,12.3560228348,-4.30389451981,95.6363067627,0.0204189997166,1.0,0.0,0.0,0.0,1.0,0.0,0.0,0.0,1.0,-30.1829280853,78.1097640991,-25.7317085266,1.0,0.0,0.0,0.0,1.0,0.0,0.0,0.0,1.0,-2.90656081543,-0.909796630859,8.71010563965,1.0,0.0,0.0,0.0,1.0,0.0,0.0,0.0,1.0
1463846635543999134,594,1463846635296072253,,13.5733642578,-5.04052639008,95.3019866943,0.0204259995371,1.0,0.0,0.0,0.0,1.0,0.0,0.0,0.0,1.0,-31.0975627899,54.2682914734,-11.1585359573,1.0,0.0,0.0,0.0,1.0,0.0,0.0,0.0,1.0,-2.59052619629,-0.818816967773,8.48505126812,1.0,0.0,0.0,0.0,1.0,0.0,0.0,0.0,1.0
1463846635544279089,595,1463846635316542696,,14.394733429,-5.69701814651,95.2880020142,0.0204700008035,1.0,0.0,0.0,0.0,1.0,0.0,0.0,0.0,1.0,-32.317073822,36.7073173523,2.74390244484,1.0,0.0,0.0,0.0,1.0,0.0,0.0,0.0,1.0,-2.33195227086,-0.670376464844,8.69095202637,1.0,0.0,0.0,0.0,1.0,0.0,0.0,0.0,1.0
1463846635544597430,596,1463846635337004701,,14.8714447021,-6.34293699265,95.5046539307,0.0203380007297,1.0,0.0,0.0,0.0,1.0,0.0,0.0,0.0,1.0,-32.0121955872,19.2073173523,13.048781395,1.0,0.0,0.0,0.0,1.0,0.0,0.0,0.0,1.0,-2.43250888672,-1.2497732666,8.72925925293,1.0,0.0,0.0,0.0,1.0,0.0,0.0,0.0,1.0
