%time,field.header.seq,field.header.stamp,field.header.frame_id,field.orientation.x,field.orientation.y,field.orientation.z,field.orientation.w,field.orientation_covariance0,field.orientation_covariance1,field.orientation_covariance2,field.orientation_covariance3,field.orientation_covariance4,field.orientation_covariance5,field.orientation_covariance6,field.orientation_covariance7,field.orientation_covariance8,field.angular_velocity.x,field.angular_velocity.y,field.angular_velocity.z,field.angular_velocity_covariance0,field.angular_velocity_covariance1,field.angular_velocity_covariance2,field.angular_velocity_covariance3,field.angular_velocity_covariance4,field.angular_velocity_covariance5,field.angular_velocity_covariance6,field.angular_velocity_covariance7,field.angular_velocity_covariance8,field.linear_acceleration.x,field.linear_acceleration.y,field.linear_acceleration.z,field.linear_acceleration_covariance0,field.linear_acceleration_covariance1,field.linear_acceleration_covariance2,field.linear_acceleration_covariance3,field.linear_acceleration_covariance4,field.linear_acceleration_covariance5,field.linear_acceleration_covariance6,field.linear_acceleration_covariance7,field.linear_acceleration_covariance8
1464075901046740406,282,1464075900798027219,,2.90934944153,-9.32307243347,-165.053771973,0.00125199998729,1.0,0.0,0.0,0.0,1.0,0.0,0.0,0.0,1.0,0.487804889679,3.23170733452,-0.548780500889,1.0,0.0,0.0,0.0,1.0,0.0,0.0,0.0,1.0,0.282515795898,-1.27850368652,10.2902787354,1.0,0.0,0.0,0.0,1.0,0.0,0.0,0.0,1.0
1464075901046778427,283,1464075900821700384,,2.92728853226,-9.28886222839,-166.469238281,0.00588200008497,1.0,0.0,0.0,0.0,1.0,0.0,0.0,0.0,1.0,-0.12195122242,2.68292689323,-0.792682945728,1.0,0.0,0.0,0.0,1.0,0.0,0.0,0.0,1.0,0.0,-1.16837033709,10.2471831055,1.0,0.0,0.0,0.0,1.0,0.0,0.0,0.0,1.0
1464075901046814781,284,1464075900843949752,,2.90240621567,-9.27287960052,-167.675994873,0.0055229999125,1.0,0.0,0.0,0.0,1.0,0.0,0.0,0.0,1.0,-0.609756112099,1.2195122242,-1.46341466904,1.0,0.0,0.0,0.0,1.0,0.0,0.0,0.0,1.0,0.225054956055,-1.17794714373,10.2040874756,1.0,0.0,0.0,0.0,1.0,0.0,0.0,0.0,1.0
1464075901046910041,285,1464075900864513290,,2.87149405479,-9.26115512848,-168.912231445,0.00163700000849,1.0,0.0,0.0,0.0,1.0,0.0,0.0,0.0,1.0,-0.12195122242,2.07317066193,-0.914634168148,1.0,0.0,0.0,0.0,1.0,0.0,0.0,0.0,1.0,0.220266552734,-1.23540805664,10.2950671387,1.0,0.0,0.0,0.0,1.0,0.0,0.0,0.0,1.0
1464075901046948947,286,1464075900896669350,,2.84907770157,-9.25053024292,-170.096343994,0.00227000005543,1.0,0.0,0.0,0.0,1.0,0.0,0.0,0.0,1.0,-1.15853655338,1.76829278469,-0.0609756112099,1.0,0.0,0.0,0.0,1.0,0.0,0.0,0.0,1.0,0.229843359375,-1.23540805664,10.1945106689,1.0,0.0,0.0,0.0,1.0,0.0,0.0,0.0,1.0
1464075901046983322,287,1464075900906469584,,2.83567929268,-9.25733375549,-171.318527222,0.00152799999341,1.0,0.0,0.0,0.0,1.0,0.0,0.0,0.0,1.0,-0.914634168148,2.43902444839,0.304878056049,1.0,0.0,0.0,0.0,1.0,0.0,0.0,0.0,1.0,0.258573779297,-1.40300217285,10.2519715088,1.0,0.0,0.0,0.0,1.0,0.0,0.0,0.0,1.0
1464075901049619773,288,1464075900937114241,,2.85619831085,-9.25924015045,-172.851104736,0.0132160000503,1.0,0.0,0.0,0.0,1.0,0.0,0.0,0.0,1.0,-1.46341466904,3.53658556938,1.70731711388,1.0,0.0,0.0,0.0,1.0,0.0,0.0,0.0,1.0,0.234631762695,-1.19710090314,10.2088758789,1.0,0.0,0.0,0.0,1.0,0.0,0.0,0.0,1.0
1464075901049727481,289,1464075900959296526,,2.88224124908,-9.2916059494,-174.204772949,0.00587499979883,1.0,0.0,0.0,0.0,1.0,0.0,0.0,0.0,1.0,-2.07317066193,3.29268312454,1.8902438879,1.0,0.0,0.0,0.0,1.0,0.0,0.0,0.0,1.0,0.220266552734,-1.18273554705,10.0939541992,1.0,0.0,0.0,0.0,1.0,0.0,0.0,0.0,1.0
1464075901050223730,290,1464075900980947718,,2.89849185944,-9.3245267868,-175.342346191,0.00295000011101,1.0,0.0,0.0,0.0,1.0,0.0,0.0,0.0,1.0,-2.19512200356,3.29268312454,1.95121955872,1.0,0.0,0.0,0.0,1.0,0.0,0.0,0.0,1.0,0.15322890625,-1.37906015625,10.0125513428,1.0,0.0,0.0,0.0,1.0,0.0,0.0,0.0,1.0
1464075901050809353,291,1464075901006564732,,2.90637421608,-9.36372566223,-176.521102905,0.0021420000121,1.0,0.0,0.0,0.0,1.0,0.0,0.0,0.0,1.0,-2.86585378647,2.25609779358,1.76829278469,1.0,0.0,0.0,0.0,1.0,0.0,0.0,0.0,1.0,0.100556469727,-1.24019645996,10.0795889893,1.0,0.0,0.0,0.0,1.0,0.0,0.0,0.0,1.0
1464075901051043623,292,1464075901026760355,,2.89858746529,-9.45270442963,-177.889129639,0.00804600026459,1.0,0.0,0.0,0.0,1.0,0.0,0.0,0.0,1.0,-3.10975623131,1.2804877758,1.34146344662,1.0,0.0,0.0,0.0,1.0,0.0,0.0,0.0,1.0,0.220266552734,-1.75734401855,10.0891657959,1.0,0.0,0.0,0.0,1.0,0.0,0.0,0.0,1.0
1464075901079687297,293,1464075901049011337,,2.88862037659,-9.35815048218,-179.101577759,0.00201799999923,1.0,0.0,0.0,0.0,1.0,0.0,0.0,0.0,1.0,5.79268312454,2.19512200356,2.62195134163,1.0,0.0,0.0,0.0,1.0,0.0,0.0,0.0,1.0,0.962469067383,-0.756567724609,10.2567599121,1.0,0.0,0.0,0.0,1.0,0.0,0.0,0.0,1.0
1464075901083682078,294,1464075901070687894,,2.96903061867,-9.20194244385,179.78453064,0.00221300008707,1.0,0.0,0.0,0.0,1.0,0.0,0.0,0.0,1.0,4.45121955872,5.73170757294,3.47560977936,1.0,0.0,0.0,0.0,1.0,0.0,0.0,0.0,1.0,0.143652099609,-1.4844050293,10.4866032715,1.0,0.0,0.0,0.0,1.0,0.0,0.0,0.0,1.0
1464075901186223834,295,1464075901090977214,,3.08128213882,-9.07131767273,178.630950928,0.00272900005803,1.0,0.0,0.0,0.0,1.0,0.0,0.0,0.0,1.0,8.04878044128,3.47560977936,3.65853667259,1.0,0.0,0.0,0.0,1.0,0.0,0.0,0.0,1.0,-0.387860668945,-1.23061965332,9.80665,1.0,0.0,0.0,0.0,1.0,0.0,0.0,0.0,1.0
1464075901190667520,296,1464075901112451375,,3.15238285065,-8.91026592255,177.51512146,0.00132000003941,1.0,0.0,0.0,0.0,1.0,0.0,0.0,0.0,1.0,5.0,-0.731707334518,4.14634132385,1.0,0.0,0.0,0.0,1.0,0.0,0.0,0.0,1.0,-0.296881024126,-1.24019645996,10.0556469727,1.0,0.0,0.0,0.0,1.0,0.0,0.0,0.0,1.0
1464075901191138300,297,1464075901136114697,,3.15250611305,-8.78634262085,176.314224243,0.00719900010154,1.0,0.0,0.0,0.0,1.0,0.0,0.0,0.0,1.0,6.21951246262,-0.426829278469,6.09756088257,1.0,0.0,0.0,0.0,1.0,0.0,0.0,0.0,1.0,-0.196324536133,-1.38863696289,10.3046439453,1.0,0.0,0.0,0.0,1.0,0.0,0.0,0.0,1.0
1464075901191176477,298,1464075901156494122,,3.13270545006,-8.65591621399,175.271316528,0.00125400000252,1.0,0.0,0.0,0.0,1.0,0.0,0.0,0.0,1.0,6.21951246262,-0.670731723309,5.06097555161,1.0,0.0,0.0,0.0,1.0,0.0,0.0,0.0,1.0,-0.0430956298828,-1.40300217285,9.98860932617,1.0,0.0,0.0,0.0,1.0,0.0,0.0,0.0,1.0
1464075901191214758,299,1464075901178033127,,3.10516810417,-8.53408145905,174.202438354,0.00129499996547,1.0,0.0,0.0,0.0,1.0,0.0,0.0,0.0,1.0,8.29268264771,-1.95121955872,3.65853667259,1.0,0.0,0.0,0.0,1.0,0.0,0.0,0.0,1.0,-0.205901342773,-1.50355864258,10.0795889893,1.0,0.0,0.0,0.0,1.0,0.0,0.0,0.0,1.0
1464075901208007265,300,1464075901199667600,,3.02878069878,-8.36925601959,173.050598145,0.00177500001155,1.0,0.0,0.0,0.0,1.0,0.0,0.0,0.0,1.0,9.51219558716,-3.90243911743,3.7804877758,1.0,0.0,0.0,0.0,1.0,0.0,0.0,0.0,1.0,0.292092584273,-1.75734401855,9.80186159668,1.0,0.0,0.0,0.0,1.0,0.0,0.0,0.0,1.0
1464075901255765418,301,1464075901223541026,,2.94209766388,-8.1555891037,171.868865967,0.00493300007656,1.0,0.0,0.0,0.0,1.0,0.0,0.0,0.0,1.0,12.9268293381,-2.86585378647,5.48780488968,1.0,0.0,0.0,0.0,1.0,0.0,0.0,0.0,1.0,0.0335188255255,-1.72382519531,9.8784760498,1.0,0.0,0.0,0.0,1.0,0.0,0.0,0.0,1.0
1464075901256065886,302,1464075901247941637,,2.94640994072,-7.94789600372,170.664810181,0.00672899978235,1.0,0.0,0.0,0.0,1.0,0.0,0.0,0.0,1.0,-9.02439117432,2.98780488968,2.01219511032,1.0,0.0,0.0,0.0,1.0,0.0,0.0,0.0,1.0,-0.866701000977,-0.689530078125,9.62469125835,1.0,0.0,0.0,0.0,1.0,0.0,0.0,0.0,1.0
1464075901306124554,303,1464075901270690170,,2.81432938576,-7.94103002548,169.346633911,0.0025420000311,1.0,0.0,0.0,0.0,1.0,0.0,0.0,0.0,1.0,1.52439022064,-7.25609779358,-2.98780488968,1.0,0.0,0.0,0.0,1.0,0.0,0.0,0.0,1.0,0.512359155273,-0.847547387695,10.4818148682,1.0,0.0,0.0,0.0,1.0,0.0,0.0,0.0,1.0
1464075901306484709,304,1464075901290247461,,2.59317231178,-7.84550762177,168.103973389,0.00135000003502,1.0,0.0,0.0,0.0,1.0,0.0,0.0,0.0,1.0,2.62195134163,-4.39024400711,-2.62195134163,1.0,0.0,0.0,0.0,1.0,0.0,0.0,0.0,1.0,1.00556469727,-1.45088620605,10.5871597412,1.0,0.0,0.0,0.0,1.0,0.0,0.0,0.0,1.0
1464075901346688352,305,1464075901312005007,,2.50133323669,-7.77034425735,166.813903809,0.00152499997057,1.0,0.0,0.0,0.0,1.0,0.0,0.0,0.0,1.0,3.23170733452,-4.02439022064,-2.80487799644,1.0,0.0,0.0,0.0,1.0,0.0,0.0,0.0,1.0,-0.0622492431641,-1.11569797363,9.89762966309,1.0,0.0,0.0,0.0,1.0,0.0,0.0,0.0,1.0
1464075901346976684,306,1464075901333873542,,2.37330055237,-7.72595596313,165.589767456,0.00135999999475,1.0,0.0,0.0,0.0,1.0,0.0,0.0,0.0,1.0,4.63414621353,-2.86585378647,-2.01219511032,1.0,0.0,0.0,0.0,1.0,0.0,0.0,0.0,1.0,0.359130249023,-1.36948334961,9.94551369629,1.0,0.0,0.0,0.0,1.0,0.0,0.0,0.0,1.0
1464075901398078943,307,1464075901353885989,,2.30912446976,-7.62244272232,164.401641846,0.00155399995856,1.0,0.0,0.0,0.0,1.0,0.0,0.0,0.0,1.0,4.45121955872,-2.68292689323,-1.52439022064,1.0,0.0,0.0,0.0,1.0,0.0,0.0,0.0,1.0,0.196324536133,-1.41257897949,10.2376062988,1.0,0.0,0.0,0.0,1.0,0.0,0.0,0.0,1.0
1464075901398265870,308,1464075901374701454,,2.20709657669,-7.53016328812,163.240386963,0.00144000002183,1.0,0.0,0.0,0.0,1.0,0.0,0.0,0.0,1.0,6.64634132385,1.46341466904,2.37804889679,1.0,0.0,0.0,0.0,1.0,0.0,0.0,0.0,1.0,1.12048637695,-1.61369191895,9.70609353027,1.0,0.0,0.0,0.0,1.0,0.0,0.0,0.0,1.0
1464075901402555598,309,1464075901396405875,,2.24394845963,-7.35723781586,162.12487793,0.00138300005347,1.0,0.0,0.0,0.0,1.0,0.0,0.0,0.0,1.0,11.4634151459,10.1219511032,7.31707334518,1.0,0.0,0.0,0.0,1.0,0.0,0.0,0.0,1.0,1.23061965332,-1.34554133301,9.85932243652,1.0,0.0,0.0,0.0,1.0,0.0,0.0,0.0,1.0
1464075901424240644,310,1464075901417042278,,2.39482450485,-7.10030460358,161.045135498,0.00134800001979,1.0,0.0,0.0,0.0,1.0,0.0,0.0,0.0,1.0,12.5,12.3170728683,3.84146332741,1.0,0.0,0.0,0.0,1.0,0.0,0.0,0.0,1.0,1.44609780273,-1.11569797363,10.898405957,1.0,0.0,0.0,0.0,1.0,0.0,0.0,0.0,1.0
1464075901441724034,311,1464075901439167166,,2.59179830551,-6.79697608948,159.850372314,0.00141699996311,1.0,0.0,0.0,0.0,1.0,0.0,0.0,0.0,1.0,9.5731716156,12.3170728683,0.609756112099,1.0,0.0,0.0,0.0,1.0,0.0,0.0,0.0,1.0,0.833182177734,-0.675164868164,10.7595422607,1.0,0.0,0.0,0.0,1.0,0.0,0.0,0.0,1.0
1464075901466858081,312,1464075901459675028,,2.79197597504,-6.58904266357,158.620040894,0.00156899995636,1.0,0.0,0.0,0.0,1.0,0.0,0.0,0.0,1.0,7.37804937363,14.4512205124,-1.58536589146,1.0,0.0,0.0,0.0,1.0,0.0,0.0,0.0,1.0,0.885854614258,-0.737414111328,10.1131078125,1.0,0.0,0.0,0.0,1.0,0.0,0.0,0.0,1.0
1464075901482069551,313,1464075901480065025,,3.09232473373,-6.45520877838,157.422729492,0.00155499996617,1.0,0.0,0.0,0.0,1.0,0.0,0.0,0.0,1.0,6.46341466904,18.1707305908,-0.0609756112099,1.0,0.0,0.0,0.0,1.0,0.0,0.0,0.0,1.0,0.177170922852,-0.737414111328,10.1609918457,1.0,0.0,0.0,0.0,1.0,0.0,0.0,0.0,1.0
1464075901504231992,314,1464075901501352260,,3.44659733772,-6.33266210556,156.206375122,0.00143699999899,1.0,0.0,0.0,0.0,1.0,0.0,0.0,0.0,1.0,3.90243911743,22.682926178,0.792682945728,1.0,0.0,0.0,0.0,1.0,0.0,0.0,0.0,1.0,0.258573779297,-0.507570751953,10.3573163818,1.0,0.0,0.0,0.0,1.0,0.0,0.0,0.0,1.0
1464075901527178336,315,1464075901522952202,,3.89735078812,-6.25294399261,154.972686768,0.00126799999271,1.0,0.0,0.0,0.0,1.0,0.0,0.0,0.0,1.0,2.07317066193,23.1707324982,0.487804889679,1.0,0.0,0.0,0.0,1.0,0.0,0.0,0.0,1.0,0.215478149414,-0.502782348633,10.3477395752,1.0,0.0,0.0,0.0,1.0,0.0,0.0,0.0,1.0
1464075901548350311,316,1464075901544882560,,4.38888311386,-6.18364143372,153.665634155,0.00204799999483,1.0,0.0,0.0,0.0,1.0,0.0,0.0,0.0,1.0,2.98780488968,20.4878044128,-2.43902444839,1.0,0.0,0.0,0.0,1.0,0.0,0.0,0.0,1.0,-0.067037651051,-0.368707055664,10.165780249,1.0,0.0,0.0,0.0,1.0,0.0,0.0,0.0,1.0
1464075901569859524,317,1464075901566725470,,4.84638834,-6.09276199341,152.331115723,0.00150300003588,1.0,0.0,0.0,0.0,1.0,0.0,0.0,0.0,1.0,3.96341490746,20.6097564697,-2.5,1.0,0.0,0.0,0.0,1.0,0.0,0.0,0.0,1.0,0.0335188255255,-0.426167895508,10.5775829346,1.0,0.0,0.0,0.0,1.0,0.0,0.0,0.0,1.0
1464075901639124286,318,1464075901588537495,,5.34026098251,-6.0600399971,151.087936401,0.00144799996633,1.0,0.0,0.0,0.0,1.0,0.0,0.0,0.0,1.0,0.670731723309,24.6951236725,3.41463422775,1.0,0.0,0.0,0.0,1.0,0.0,0.0,0.0,1.0,0.277727392578,-0.383072265625,10.2902787354,1.0,0.0,0.0,0.0,1.0,0.0,0.0,0.0,1.0
1464075901642700475,319,1464075901611632120,,5.9052605629,-6.07641077042,149.867263794,0.00200999993831,1.0,0.0,0.0,0.0,1.0,0.0,0.0,0.0,1.0,-0.792682945728,26.8902454376,3.23170733452,1.0,0.0,0.0,0.0,1.0,0.0,0.0,0.0,1.0,0.067037651051,-0.445321508789,10.0939541992,1.0,0.0,0.0,0.0,1.0,0.0,0.0,0.0,1.0
1464075901645021145,320,1464075901633171698,,6.47310209274,-6.14477157593,148.563446045,0.00248800008558,1.0,0.0,0.0,0.0,1.0,0.0,0.0,0.0,1.0,-0.548780500889,27.317073822,-0.18292683363,1.0,0.0,0.0,0.0,1.0,0.0,0.0,0.0,1.0,-0.172382519531,-0.814028564453,10.2759135254,1.0,0.0,0.0,0.0,1.0,0.0,0.0,0.0,1.0
1464075901812159812,321,1464075901655181274,,7.09490060806,-6.23318529129,147.247024536,0.00185799994506,1.0,0.0,0.0,0.0,1.0,0.0,0.0,0.0,1.0,0.0,15.6707315445,-4.02439022064,1.0,0.0,0.0,0.0,1.0,0.0,0.0,0.0,1.0,-2.15957004359,-0.794874951172,10.0412817627,1.0,0.0,0.0,0.0,1.0,0.0,0.0,0.0,1.0
1464075901812235801,322,1464075901688968111,,7.45204591751,-6.38261413574,145.734390259,0.00277499994263,1.0,0.0,0.0,0.0,1.0,0.0,0.0,0.0,1.0,0.792682945728,3.10975623131,-9.45121955872,1.0,0.0,0.0,0.0,1.0,0.0,0.0,0.0,1.0,-1.89620771484,-0.871489404297,10.1562034424,1.0,0.0,0.0,0.0,1.0,0.0,0.0,0.0,1.0
1464075901812276061,323,1464075901700300112,,7.52406311035,-6.49124765396,144.444763184,0.00218500010669,1.0,0.0,0.0,0.0,1.0,0.0,0.0,0.0,1.0,0.548780500889,-1.52439022064,-4.2682929039,1.0,0.0,0.0,0.0,1.0,0.0,0.0,0.0,1.0,-1.14921679688,-0.91458503418,10.1178962158,1.0,0.0,0.0,0.0,1.0,0.0,0.0,0.0,1.0
1464075901812596790,324,1464075901722250522,,7.56096982956,-6.60133647919,143.124191284,0.0028530000709,1.0,0.0,0.0,0.0,1.0,0.0,0.0,0.0,1.0,0.365853667259,0.853658556938,0.487804889679,1.0,0.0,0.0,0.0,1.0,0.0,0.0,0.0,1.0,-1.16358193377,-0.890643017578,10.3381627686,1.0,0.0,0.0,0.0,1.0,0.0,0.0,0.0,1.0
1464075901812877518,325,1464075901742350311,,7.58152389526,-6.70247411728,142.019683838,0.00257600005716,1.0,0.0,0.0,0.0,1.0,0.0,0.0,0.0,1.0,0.304878056049,-2.56097555161,1.8902438879,1.0,0.0,0.0,0.0,1.0,0.0,0.0,0.0,1.0,-1.06781401349,-0.814028564453,10.2040874756,1.0,0.0,0.0,0.0,1.0,0.0,0.0,0.0,1.0
1464075901813140382,326,1464075901764564054,,7.50549554825,-6.81513214111,140.762451172,0.00322999991477,1.0,0.0,0.0,0.0,1.0,0.0,0.0,0.0,1.0,0.18292683363,-13.2317075729,-5.12195110321,1.0,0.0,0.0,0.0,1.0,0.0,0.0,0.0,1.0,-1.73340200195,-1.06302561017,10.0508585693,1.0,0.0,0.0,0.0,1.0,0.0,0.0,0.0,1.0
1464075901813386267,327,1464075901785300873,,7.20189142227,-6.90754079819,139.501846313,0.00240699993446,1.0,0.0,0.0,0.0,1.0,0.0,0.0,0.0,1.0,0.853658556938,-20.2439022064,-4.63414621353,1.0,0.0,0.0,0.0,1.0,0.0,0.0,0.0,1.0,-1.04387185076,-1.02950671387,10.0508585693,1.0,0.0,0.0,0.0,1.0,0.0,0.0,0.0,1.0
1464075901813608870,328,1464075901808634717,,6.75905179977,-6.97052574158,138.25479126,0.00247199996375,1.0,0.0,0.0,0.0,1.0,0.0,0.0,0.0,1.0,1.58536589146,-20.2439022064,1.64634156227,1.0,0.0,0.0,0.0,1.0,0.0,0.0,0.0,1.0,-0.067037651051,-1.00556469727,10.3046439453,1.0,0.0,0.0,0.0,1.0,0.0,0.0,0.0,1.0
1464075901848752370,329,1464075901831720905,,6.30594491959,-6.99912786484,137.190109253,0.00189199997112,1.0,0.0,0.0,0.0,1.0,0.0,0.0,0.0,1.0,1.09756100178,-8.47560977936,6.58536624908,1.0,0.0,0.0,0.0,1.0,0.0,0.0,0.0,1.0,1.63763393555,-0.718260498047,10.2471831055,1.0,0.0,0.0,0.0,1.0,0.0,0.0,0.0,1.0
1464075901902917068,330,1464075901853382410,,6.06400537491,-7.01918792725,136.037033081,0.00376200000755,1.0,0.0,0.0,0.0,1.0,0.0,0.0,0.0,1.0,1.15853655338,-0.548780500889,5.67073154449,1.0,0.0,0.0,0.0,1.0,0.0,0.0,0.0,1.0,0.632069238281,-0.857124194336,10.3190091553,1.0,0.0,0.0,0.0,1.0,0.0,0.0,0.0,1.0
1464075901902979777,331,1464075901875810943,,5.93949079514,-7.03027868271,134.859558105,0.00196800008416,1.0,0.0,0.0,0.0,1.0,0.0,0.0,0.0,1.0,0.670731723309,-3.23170733452,-1.09756100178,1.0,0.0,0.0,0.0,1.0,0.0,0.0,0.0,1.0,0.263362164351,-0.46447512207,10.0939541992,1.0,0.0,0.0,0.0,1.0,0.0,0.0,0.0,1.0
1464075901903285297,332,1464075901900085045,,5.77656459808,-7.05730104446,133.541793823,0.00193799997214,1.0,0.0,0.0,0.0,1.0,0.0,0.0,0.0,1.0,-0.12195122242,-4.81707286835,-3.71951246262,1.0,0.0,0.0,0.0,1.0,0.0,0.0,0.0,1.0,0.162805712891,-0.814028564453,10.1322614258,1.0,0.0,0.0,0.0,1.0,0.0,0.0,0.0,1.0
1464075901926052163,333,1464075901920425771,,5.65614938736,-7.09572887421,132.315002441,0.001719999942,1.0,0.0,0.0,0.0,1.0,0.0,0.0,0.0,1.0,-1.52439022064,2.25609779358,-1.46341466904,1.0,0.0,0.0,0.0,1.0,0.0,0.0,0.0,1.0,0.330399829102,-0.957680664062,10.5488525146,1.0,0.0,0.0,0.0,1.0,0.0,0.0,0.0,1.0
1464075901959071241,334,1464075901940476707,,5.67577552795,-7.1162352562,131.111495972,0.00195299996994,1.0,0.0,0.0,0.0,1.0,0.0,0.0,0.0,1.0,-0.792682945728,6.52439069748,2.13414645195,1.0,0.0,0.0,0.0,1.0,0.0,0.0,0.0,1.0,0.191536132812,-0.751779321289,10.3046439453,1.0,0.0,0.0,0.0,1.0,0.0,0.0,0.0,1.0
1464075902015575360,335,1464075901961773004,,5.77365779877,-7.13401031494,129.962615967,0.00164899998344,1.0,0.0,0.0,0.0,1.0,0.0,0.0,0.0,1.0,-0.548780500889,6.52439069748,-0.304878056049,1.0,0.0,0.0,0.0,1.0,0.0,0.0,0.0,1.0,-0.359130249023,-0.450109912109,9.97424411621,1.0,0.0,0.0,0.0,1.0,0.0,0.0,0.0,1.0
1464075902015616610,336,1464075901983153416,,5.86128044128,-7.151907444,128.684829712,0.00441200006753,1.0,0.0,0.0,0.0,1.0,0.0,0.0,0.0,1.0,-0.426829278469,6.82926845551,-0.975609779358,1.0,0.0,0.0,0.0,1.0,0.0,0.0,0.0,1.0,-0.076614453125,-0.450109912109,10.285490332,1.0,0.0,0.0,0.0,1.0,0.0,0.0,0.0,1.0
1464075902016338535,337,1464075902003911329,,5.98483991623,-7.16619300842,127.527565002,0.00175599998329,1.0,0.0,0.0,0.0,1.0,0.0,0.0,0.0,1.0,-0.609756112099,8.23170757294,1.2195122242,1.0,0.0,0.0,0.0,1.0,0.0,0.0,0.0,1.0,-0.0526724365234,-0.45489831543,10.0939541992,1.0,0.0,0.0,0.0,1.0,0.0,0.0,0.0,1.0
1464075902028138087,338,1464075902024889033,,6.14017391205,-7.17936658859,126.357437134,0.00167799997143,1.0,0.0,0.0,0.0,1.0,0.0,0.0,0.0,1.0,-0.975609779358,9.69512176514,1.09756100178,1.0,0.0,0.0,0.0,1.0,0.0,0.0,0.0,1.0,-0.244208569336,-0.45968671875,10.4243540283,1.0,0.0,0.0,0.0,1.0,0.0,0.0,0.0,1.0
1464075902062302631,339,1464075902046431319,,6.3090801239,-7.20994234085,125.146095276,0.00120499997865,1.0,0.0,0.0,0.0,1.0,0.0,0.0,0.0,1.0,-0.609756112099,6.46341466904,-0.792682945728,1.0,0.0,0.0,0.0,1.0,0.0,0.0,0.0,1.0,-0.569819995117,-0.526724328702,10.165780249,1.0,0.0,0.0,0.0,1.0,0.0,0.0,0.0,1.0
1464075902094820512,340,1464075902068134438,,6.43275976181,-7.26125812531,123.945777893,0.00231699994765,1.0,0.0,0.0,0.0,1.0,0.0,0.0,0.0,1.0,-0.670731723309,3.10975623131,-2.13414645195,1.0,0.0,0.0,0.0,1.0,0.0,0.0,0.0,1.0,-1.03429511719,-0.723048901367,10.2807019287,1.0,0.0,0.0,0.0,1.0,0.0,0.0,0.0,1.0
1464075902094870877,341,1464075902087761156,,6.48814868927,-7.3084526062,122.748893738,0.00190100003965,1.0,0.0,0.0,0.0,1.0,0.0,0.0,0.0,1.0,-0.792682945728,-2.31707310677,-1.8902438879,1.0,0.0,0.0,0.0,1.0,0.0,0.0,0.0,1.0,-1.12048637695,-0.670376464844,10.3237975586,1.0,0.0,0.0,0.0,1.0,0.0,0.0,0.0,1.0
1464075902115420822,342,1464075902108805006,,6.45803785324,-7.34592533112,121.542282104,0.00172800000291,1.0,0.0,0.0,0.0,1.0,0.0,0.0,0.0,1.0,0.0,-7.80487823486,-1.76829278469,1.0,0.0,0.0,0.0,1.0,0.0,0.0,0.0,1.0,-1.30723410645,-0.636857641602,10.1466266357,1.0,0.0,0.0,0.0,1.0,0.0,0.0,0.0,1.0
1464075902136268891,343,1464075902131701142,,6.26915979385,-7.357837677,120.264015198,0.00301499990746,1.0,0.0,0.0,0.0,1.0,0.0,0.0,0.0,1.0,0.426829278469,-11.0975618362,-0.243902444839,1.0,0.0,0.0,0.0,1.0,0.0,0.0,0.0,1.0,-0.641646044922,-0.531512805087,10.405200415,1.0,0.0,0.0,0.0,1.0,0.0,0.0,0.0,1.0
1464075902177318104,344,1464075902151927495,,6.00465011597,-7.36547040939,119.171585083,0.00200100010261,1.0,0.0,0.0,0.0,1.0,0.0,0.0,0.0,1.0,0.12195122242,-9.87804889679,1.95121955872,1.0,0.0,0.0,0.0,1.0,0.0,0.0,0.0,1.0,0.430956298828,-0.785298144531,10.2519715088,1.0,0.0,0.0,0.0,1.0,0.0,0.0,0.0,1.0
1464075902186572141,345,1464075902175423265,,5.73032236099,-7.38250017166,118.029876709,0.00167499994859,1.0,0.0,0.0,0.0,1.0,0.0,0.0,0.0,1.0,-0.609756112099,-0.548780500889,4.69512224197,1.0,0.0,0.0,0.0,1.0,0.0,0.0,0.0,1.0,1.02950671387,-0.718260498047,10.5057568848,1.0,0.0,0.0,0.0,1.0,0.0,0.0,0.0,1.0
1464075902198983097,346,1464075902195556284,,5.65531301498,-7.40466117859,116.942253113,0.00165500002913,1.0,0.0,0.0,0.0,1.0,0.0,0.0,0.0,1.0,0.0,3.90243911743,4.2682929039,1.0,0.0,0.0,0.0,1.0,0.0,0.0,0.0,1.0,0.258573779297,-0.77093293457,10.1514150391,1.0,0.0,0.0,0.0,1.0,0.0,0.0,0.0,1.0
1464075902254953572,347,1464075902215693313,,5.64794635773,-7.43420171738,115.771430969,0.00139999995008,1.0,0.0,0.0,0.0,1.0,0.0,0.0,0.0,1.0,0.243902444839,-0.426829278469,-2.13414645195,1.0,0.0,0.0,0.0,1.0,0.0,0.0,0.0,1.0,-0.0191536132812,-0.727837304687,10.2567599121,1.0,0.0,0.0,0.0,1.0,0.0,0.0,0.0,1.0
1464075902255279613,348,1464075902236692267,,5.55773639679,-7.47679710388,114.544570923,0.00174400000833,1.0,0.0,0.0,0.0,1.0,0.0,0.0,0.0,1.0,-0.731707334518,-0.243902444839,-4.39024400711,1.0,0.0,0.0,0.0,1.0,0.0,0.0,0.0,1.0,0.201112939453,-0.9193734375,10.3812583984,1.0,0.0,0.0,0.0,1.0,0.0,0.0,0.0,1.0
1464075902269050618,349,1464075902258799968,,5.50616121292,-7.52718925476,113.279785156,0.00228999997489,1.0,0.0,0.0,0.0,1.0,0.0,0.0,0.0,1.0,-0.670731723309,4.81707286835,-0.670731723309,1.0,0.0,0.0,0.0,1.0,0.0,0.0,0.0,1.0,0.368707055664,-1.16837033709,10.5057568848,1.0,0.0,0.0,0.0,1.0,0.0,0.0,0.0,1.0
1464075902289635302,350,1464075902281136679,,5.61381387711,-7.56208753586,112.053215027,0.00238499999978,1.0,0.0,0.0,0.0,1.0,0.0,0.0,0.0,1.0,0.426829278469,8.65853691101,2.43902444839,1.0,0.0,0.0,0.0,1.0,0.0,0.0,0.0,1.0,-0.162805712891,-0.938527050781,10.2136642822,1.0,0.0,0.0,0.0,1.0,0.0,0.0,0.0,1.0
1464075902317957883,351,1464075902302249279,,5.73592996597,-7.59888839722,110.844764709,0.0028689999599,1.0,0.0,0.0,0.0,1.0,0.0,0.0,0.0,1.0,0.548780500889,6.40243911743,-1.09756100178,1.0,0.0,0.0,0.0,1.0,0.0,0.0,0.0,1.0,-0.210689746094,-0.871489404297,10.0939541992,1.0,0.0,0.0,0.0,1.0,0.0,0.0,0.0,1.0
1464075902409889251,352,1464075902323103858,,5.82210969925,-7.6484003067,109.608169556,0.00135999999475,1.0,0.0,0.0,0.0,1.0,0.0,0.0,0.0,1.0,0.243902444839,7.19512224197,0.0609756112099,1.0,0.0,0.0,0.0,1.0,0.0,0.0,0.0,1.0,-0.076614453125,-0.962469067383,10.285490332,1.0,0.0,0.0,0.0,1.0,0.0,0.0,0.0,1.0
1464075902409930032,353,1464075902344481145,,5.94722747803,-7.68143320084,108.394416809,0.00162400002591,1.0,0.0,0.0,0.0,1.0,0.0,0.0,0.0,1.0,-0.304878056049,10.3048782349,1.2804877758,1.0,0.0,0.0,0.0,1.0,0.0,0.0,0.0,1.0,-0.129286889648,-0.814028564453,10.2950671387,1.0,0.0,0.0,0.0,1.0,0.0,0.0,0.0,1.0
1464075902409964094,354,1464075902365784838,,6.10963916779,-7.71879148483,107.192222595,0.00130200001877,1.0,0.0,0.0,0.0,1.0,0.0,0.0,0.0,1.0,-0.792682945728,8.5365858078,-0.365853667259,1.0,0.0,0.0,0.0,1.0,0.0,0.0,0.0,1.0,-0.445321508789,-0.699106884766,10.2950671387,1.0,0.0,0.0,0.0,1.0,0.0,0.0,0.0,1.0
1464075902410006542,355,1464075902387083270,,6.24511051178,-7.74843549728,105.981239319,0.00135399994906,1.0,0.0,0.0,0.0,1.0,0.0,0.0,0.0,1.0,-0.304878056049,6.58536624908,-0.853658556938,1.0,0.0,0.0,0.0,1.0,0.0,0.0,0.0,1.0,-0.61770402832,-0.670376464844,10.2232410889,1.0,0.0,0.0,0.0,1.0,0.0,0.0,0.0,1.0
1464075902464944416,356,1464075902417808969,,6.35852766037,-7.77510643005,104.722740173,0.00336800003424,1.0,0.0,0.0,0.0,1.0,0.0,0.0,0.0,1.0,-0.426829278469,5.60975599289,1.52439022064,1.0,0.0,0.0,0.0,1.0,0.0,0.0,0.0,1.0,-0.354341845703,-0.603338854892,10.3237975586,1.0,0.0,0.0,0.0,1.0,0.0,0.0,0.0,1.0
1464075902466991754,357,1464075902431557213,,6.43904352188,-7.8067779541,103.487838745,0.0025879999157,1.0,0.0,0.0,0.0,1.0,0.0,0.0,0.0,1.0,-0.365853667259,5.42682933807,1.34146344662,1.0,0.0,0.0,0.0,1.0,0.0,0.0,0.0,1.0,-0.268150604204,-0.588973571866,10.3477395752,1.0,0.0,0.0,0.0,1.0,0.0,0.0,0.0,1.0
1464075902467099045,358,1464075902455624180,,6.48114347458,-7.84286022186,102.216667175,0.00268499995582,1.0,0.0,0.0,0.0,1.0,0.0,0.0,0.0,1.0,-0.792682945728,5.60975599289,0.0,1.0,0.0,0.0,0.0,1.0,0.0,0.0,0.0,1.0,0.0478840332031,-0.814028564453,10.1514150391,1.0,0.0,0.0,0.0,1.0,0.0,0.0,0.0,1.0
1464075902477976568,359,1464075902475902980,,6.54150056839,-7.88417434692,100.983848572,0.00180199998431,1.0,0.0,0.0,0.0,1.0,0.0,0.0,0.0,1.0,-0.731707334518,7.19512224197,0.18292683363,1.0,0.0,0.0,0.0,1.0,0.0,0.0,0.0,1.0,-0.15322890625,-0.799663354492,10.3956236084,1.0,0.0,0.0,0.0,1.0,0.0,0.0,0.0,1.0
1464075902500638903,360,1464075902497416256,,6.65608024597,-7.92445802689,99.7582473755,0.00119600002654,1.0,0.0,0.0,0.0,1.0,0.0,0.0,0.0,1.0,-0.609756112099,6.52439069748,-0.426829278469,1.0,0.0,0.0,0.0,1.0,0.0,0.0,0.0,1.0,-0.579396801758,-0.636857641602,10.2376062988,1.0,0.0,0.0,0.0,1.0,0.0,0.0,0.0,1.0
1464075902528316746,361,1464075902518592970,,6.7641658783,-7.96492576599,98.5606231689,0.00127500004601,1.0,0.0,0.0,0.0,1.0,0.0,0.0,0.0,1.0,-0.548780500889,5.12195110321,0.0609756112099,1.0,0.0,0.0,0.0,1.0,0.0,0.0,0.0,1.0,-0.574608398438,-0.723048901367,10.299855542,1.0,0.0,0.0,0.0,1.0,0.0,0.0,0.0,1.0
1464075902542067073,362,1464075902539697288,,6.8433008194,-7.99969911575,97.3714294434,0.00129599997308,1.0,0.0,0.0,0.0,1.0,0.0,0.0,0.0,1.0,-0.548780500889,4.51219558716,0.975609779358,1.0,0.0,0.0,0.0,1.0,0.0,0.0,0.0,1.0,-0.593762048251,-0.694318481445,10.1466266357,1.0,0.0,0.0,0.0,1.0,0.0,0.0,0.0,1.0
1464075902575049537,363,1464075902560374524,,6.88747692108,-8.03456783295,96.2217254639,0.00364700006321,1.0,0.0,0.0,0.0,1.0,0.0,0.0,0.0,1.0,-0.243902444839,2.80487799644,-0.304878056049,1.0,0.0,0.0,0.0,1.0,0.0,0.0,0.0,1.0,-0.497993945312,-0.751779321289,10.2232410889,1.0,0.0,0.0,0.0,1.0,0.0,0.0,0.0,1.0
1464075902593095530,364,1464075902581711498,,6.91994810104,-8.07737541199,95.0238189697,0.00275300000794,1.0,0.0,0.0,0.0,1.0,0.0,0.0,0.0,1.0,-0.426829278469,1.09756100178,0.365853667259,1.0,0.0,0.0,0.0,1.0,0.0,0.0,0.0,1.0,-0.957680664062,-0.732625708008,9.97424411621,1.0,0.0,0.0,0.0,1.0,0.0,0.0,0.0,1.0
1464075902613215685,365,1464075902602538734,,6.89751577377,-8.10441207886,93.8615036011,0.00121000001673,1.0,0.0,0.0,0.0,1.0,0.0,0.0,0.0,1.0,0.0609756112099,-3.29268312454,-1.2804877758,1.0,0.0,0.0,0.0,1.0,0.0,0.0,0.0,1.0,-0.871489404297,-0.718260498047,10.180145459,1.0,0.0,0.0,0.0,1.0,0.0,0.0,0.0,1.0
1464075902659457800,366,1464075902623429980,,6.80290985107,-8.12364196777,92.699005127,0.00125700002536,1.0,0.0,0.0,0.0,1.0,0.0,0.0,0.0,1.0,-0.243902444839,-6.09756088257,0.609756112099,1.0,0.0,0.0,0.0,1.0,0.0,0.0,0.0,1.0,-0.584185168546,-0.641646044922,10.2519715088,1.0,0.0,0.0,0.0,1.0,0.0,0.0,0.0,1.0
1464075902659878112,367,1464075902644971902,,6.62250757217,-8.13474369049,91.5506439209,0.00128900003619,1.0,0.0,0.0,0.0,1.0,0.0,0.0,0.0,1.0,-0.18292683363,-3.65853667259,1.58536589146,1.0,0.0,0.0,0.0,1.0,0.0,0.0,0.0,1.0,0.0,-0.660799658203,10.285490332,1.0,0.0,0.0,0.0,1.0,0.0,0.0,0.0,1.0
1464075902722305601,368,1464075902666055387,,6.46037387848,-8.15796375275,90.4178314209,0.00127799995244,1.0,0.0,0.0,0.0,1.0,0.0,0.0,0.0,1.0,-0.18292683363,-2.86585378647,1.46341466904,1.0,0.0,0.0,0.0,1.0,0.0,0.0,0.0,1.0,0.239420166016,-0.790086547852,10.3381627686,1.0,0.0,0.0,0.0,1.0,0.0,0.0,0.0,1.0
1464075902722887005,369,1464075902686584498,,6.3261218071,-8.1859254837,89.2903900146,0.00123299995903,1.0,0.0,0.0,0.0,1.0,0.0,0.0,0.0,1.0,-0.0609756112099,-3.23170733452,-0.731707334518,1.0,0.0,0.0,0.0,1.0,0.0,0.0,0.0,1.0,-0.167594116211,-0.785298144531,10.0125513428,1.0,0.0,0.0,0.0,1.0,0.0,0.0,0.0,1.0
1464075902724598563,370,1464075902707335120,,6.18451452255,-8.20963668823,88.0995559692,0.00131600000896,1.0,0.0,0.0,0.0,1.0,0.0,0.0,0.0,1.0,-0.18292683363,-4.20731735229,-2.74390244484,1.0,0.0,0.0,0.0,1.0,0.0,0.0,0.0,1.0,-0.277727392578,-0.718260498047,10.2184526855,1.0,0.0,0.0,0.0,1.0,0.0,0.0,0.0,1.0
1464075902768994590,371,1464075902728318345,,6.04139328003,-8.23344898224,86.9086227417,0.00119500001892,1.0,0.0,0.0,0.0,1.0,0.0,0.0,0.0,1.0,-0.548780500889,-2.56097555161,-1.2804877758,1.0,0.0,0.0,0.0,1.0,0.0,0.0,0.0,1.0,-0.0814028564453,-0.818816967773,10.3621047852,1.0,0.0,0.0,0.0,1.0,0.0,0.0,0.0,1.0
1464075902769541984,372,1464075902750731514,,5.94638347626,-8.26626491547,85.6651687622,0.00231499993242,1.0,0.0,0.0,0.0,1.0,0.0,0.0,0.0,1.0,-0.304878056049,0.914634168148,1.8902438879,1.0,0.0,0.0,0.0,1.0,0.0,0.0,0.0,1.0,0.114921679688,-0.871489404297,10.2519715088,1.0,0.0,0.0,0.0,1.0,0.0,0.0,0.0,1.0
1464075902835980869,373,1464075902773061767,,5.88170862198,-8.29332637787,84.4552841187,0.00254500005394,1.0,0.0,0.0,0.0,1.0,0.0,0.0,0.0,1.0,-0.12195122242,3.10975623131,0.670731723309,1.0,0.0,0.0,0.0,1.0,0.0,0.0,0.0,1.0,0.263362164351,-0.852335791016,10.1609918457,1.0,0.0,0.0,0.0,1.0,0.0,0.0,0.0,1.0
1464075902838151019,374,1464075902794537073,,5.85464954376,-8.31617259979,83.2394790649,0.00138300005347,1.0,0.0,0.0,0.0,1.0,0.0,0.0,0.0,1.0,-0.12195122242,3.96341490746,-0.731707334518,1.0,0.0,0.0,0.0,1.0,0.0,0.0,0.0,1.0,0.134075302102,-0.794874951172,10.2567599121,1.0,0.0,0.0,0.0,1.0,0.0,0.0,0.0,1.0
1464075902839604557,375,1464075902815092800,,5.8758225441,-8.33208465576,82.0559844971,0.00243099988438,1.0,0.0,0.0,0.0,1.0,0.0,0.0,0.0,1.0,-0.0609756112099,4.32926845551,-1.40243899822,1.0,0.0,0.0,0.0,1.0,0.0,0.0,0.0,1.0,-0.263362164351,-0.636857641602,10.2423947021,1.0,0.0,0.0,0.0,1.0,0.0,0.0,0.0,1.0
1464075902840075597,376,1464075902837653885,,5.93363332748,-8.34278964996,80.7582473755,0.00233500008471,1.0,0.0,0.0,0.0,1.0,0.0,0.0,0.0,1.0,-0.426829278469,4.14634132385,-0.731707334518,1.0,0.0,0.0,0.0,1.0,0.0,0.0,0.0,1.0,-0.407014282227,-0.622492431641,10.2376062988,1.0,0.0,0.0,0.0,1.0,0.0,0.0,0.0,1.0
1464075902868806406,377,1464075902858767266,,6.02324151993,-8.34799575806,79.5605010986,0.00130600004923,1.0,0.0,0.0,0.0,1.0,0.0,0.0,0.0,1.0,-0.18292683363,0.914634168148,-0.12195122242,1.0,0.0,0.0,0.0,1.0,0.0,0.0,0.0,1.0,-1.13485158691,-0.541089611728,10.0795889893,1.0,0.0,0.0,0.0,1.0,0.0,0.0,0.0,1.0
1464075902890357233,378,1464075902880037469,,6.01445388794,-8.33566761017,78.3733978271,0.00230000005104,1.0,0.0,0.0,0.0,1.0,0.0,0.0,0.0,1.0,-0.0609756112099,-3.65853667259,-0.792682945728,1.0,0.0,0.0,0.0,1.0,0.0,0.0,0.0,1.0,-0.91458503418,-0.483628735352,10.3094323486,1.0,0.0,0.0,0.0,1.0,0.0,0.0,0.0,1.0
1464075902913706806,379,1464075902901196788,,5.90279865265,-8.31606578827,77.2193603516,0.00117099995259,1.0,0.0,0.0,0.0,1.0,0.0,0.0,0.0,1.0,0.0,-4.45121955872,1.70731711388,1.0,0.0,0.0,0.0,1.0,0.0,0.0,0.0,1.0,-0.220266552734,-0.536301208408,10.2232410889,1.0,0.0,0.0,0.0,1.0,0.0,0.0,0.0,1.0
1464075902931511185,380,1464075902922327929,,5.74889135361,-8.29742240906,76.0849227905,0.00120900000911,1.0,0.0,0.0,0.0,1.0,0.0,0.0,0.0,1.0,-0.365853667259,-4.14634132385,0.487804889679,1.0,0.0,0.0,0.0,1.0,0.0,0.0,0.0,1.0,-0.0478840332031,-0.665588061523,10.2807019287,1.0,0.0,0.0,0.0,1.0,0.0,0.0,0.0,1.0
1464075902949319575,381,1464075902943690788,,5.58146762848,-8.29662799835,74.9262771606,0.00125199998729,1.0,0.0,0.0,0.0,1.0,0.0,0.0,0.0,1.0,-0.12195122242,-4.39024400711,-0.914634168148,1.0,0.0,0.0,0.0,1.0,0.0,0.0,0.0,1.0,0.119710083008,-0.756567724609,10.2376062988,1.0,0.0,0.0,0.0,1.0,0.0,0.0,0.0,1.0
1464075902967174788,382,1464075902964212452,,5.42076730728,-8.30107593536,73.7676391602,0.00118899997324,1.0,0.0,0.0,0.0,1.0,0.0,0.0,0.0,1.0,0.18292683363,-2.98780488968,-0.243902444839,1.0,0.0,0.0,0.0,1.0,0.0,0.0,0.0,1.0,0.167594116211,-0.823605371094,10.2615483154,1.0,0.0,0.0,0.0,1.0,0.0,0.0,0.0,1.0
1464075902987238171,383,1464075902984781615,,5.30207681656,-8.31028842926,72.6281280518,0.00123900000472,1.0,0.0,0.0,0.0,1.0,0.0,0.0,0.0,1.0,-0.365853667259,-1.34146344662,0.365853667259,1.0,0.0,0.0,0.0,1.0,0.0,0.0,0.0,1.0,0.177170922852,-0.828393774414,10.2423947021,1.0,0.0,0.0,0.0,1.0,0.0,0.0,0.0,1.0
1464075903016890227,384,1464075903009764673,,5.19900894165,-8.3212518692,71.2733764648,0.00557499984279,1.0,0.0,0.0,0.0,1.0,0.0,0.0,0.0,1.0,-0.426829278469,-0.426829278469,-0.426829278469,1.0,0.0,0.0,0.0,1.0,0.0,0.0,0.0,1.0,-0.0191536132812,-0.828393774414,10.1035310059,1.0,0.0,0.0,0.0,1.0,0.0,0.0,0.0,1.0
1464075903125135250,385,1464075903030803419,,5.12092161179,-8.3339509964,70.1064605713,0.00227700010873,1.0,0.0,0.0,0.0,1.0,0.0,0.0,0.0,1.0,-0.609756112099,0.426829278469,-0.670731723309,1.0,0.0,0.0,0.0,1.0,0.0,0.0,0.0,1.0,0.0191536132812,-0.833182177734,10.1753570557,1.0,0.0,0.0,0.0,1.0,0.0,0.0,0.0,1.0
1464075903125441186,386,1464075903057882617,,5.08356285095,-8.34059810638,68.5503845215,0.00937999971211,1.0,0.0,0.0,0.0,1.0,0.0,0.0,0.0,1.0,-0.304878056049,1.76829278469,0.609756112099,1.0,0.0,0.0,0.0,1.0,0.0,0.0,0.0,1.0,-0.0191536132812,-0.814028564453,10.2088758789,1.0,0.0,0.0,0.0,1.0,0.0,0.0,0.0,1.0
1464075903125710925,387,1464075903078383656,,5.06101417542,-8.33481884003,67.3964996338,0.00120599998627,1.0,0.0,0.0,0.0,1.0,0.0,0.0,0.0,1.0,-0.426829278469,1.95121955872,-0.670731723309,1.0,0.0,0.0,0.0,1.0,0.0,0.0,0.0,1.0,0.0191536132812,-0.684741674805,10.3237975586,1.0,0.0,0.0,0.0,1.0,0.0,0.0,0.0,1.0
1464075903126204622,388,1464075903100584222,,5.03824710846,-8.32674217224,66.1640853882,0.00184899999294,1.0,0.0,0.0,0.0,1.0,0.0,0.0,0.0,1.0,-0.426829278469,2.80487799644,0.426829278469,1.0,0.0,0.0,0.0,1.0,0.0,0.0,0.0,1.0,0.0143652099609,-0.665588061523,10.2136642822,1.0,0.0,0.0,0.0,1.0,0.0,0.0,0.0,1.0
1464075903126260976,389,1464075903121449947,,5.045773983,-8.31531906128,64.9834136963,0.00129799998831,1.0,0.0,0.0,0.0,1.0,0.0,0.0,0.0,1.0,-0.243902444839,2.74390244484,-0.12195122242,1.0,0.0,0.0,0.0,1.0,0.0,0.0,0.0,1.0,-0.114921679688,-0.679953271484,10.3477395752,1.0,0.0,0.0,0.0,1.0,0.0,0.0,0.0,1.0
1464075903303819562,390,1464075903142870514,,5.04247570038,-8.30141830444,63.7991905212,0.00134099996649,1.0,0.0,0.0,0.0,1.0,0.0,0.0,0.0,1.0,-0.365853667259,3.47560977936,0.18292683363,1.0,0.0,0.0,0.0,1.0,0.0,0.0,0.0,1.0,0.201112939453,-0.632069238281,10.2567599121,1.0,0.0,0.0,0.0,1.0,0.0,0.0,0.0,1.0
1464075903306229139,391,1464075903163778948,,5.05993938446,-8.27794551849,62.6288032532,0.00613800017163,1.0,0.0,0.0,0.0,1.0,0.0,0.0,0.0,1.0,-0.914634168148,5.73170757294,0.426829278469,1.0,0.0,0.0,0.0,1.0,0.0,0.0,0.0,1.0,0.172382519531,-0.488417138672,10.3429511719,1.0,0.0,0.0,0.0,1.0,0.0,0.0,0.0,1.0
1464075903306625440,392,1464075903184813840,,5.11863088608,-8.26447486877,61.4483222961,0.00121400004718,1.0,0.0,0.0,0.0,1.0,0.0,0.0,0.0,1.0,-0.548780500889,6.89024400711,0.487804889679,1.0,0.0,0.0,0.0,1.0,0.0,0.0,0.0,1.0,0.15801730957,-0.641646044922,10.0652237793,1.0,0.0,0.0,0.0,1.0,0.0,0.0,0.0,1.0
1464075903310403711,393,1464075903205481857,,5.19853830338,-8.25573635101,60.277431488,0.00114599999506,1.0,0.0,0.0,0.0,1.0,0.0,0.0,0.0,1.0,-0.792682945728,8.41463470459,0.426829278469,1.0,0.0,0.0,0.0,1.0,0.0,0.0,0.0,1.0,0.0957680664062,-0.679953271484,10.3716815918,1.0,0.0,0.0,0.0,1.0,0.0,0.0,0.0,1.0
1464075903315073386,394,1464075903227197528,,5.32205533981,-8.25727081299,59.0578689575,0.00122099998407,1.0,0.0,0.0,0.0,1.0,0.0,0.0,0.0,1.0,-0.792682945728,9.14634132385,0.365853667259,1.0,0.0,0.0,0.0,1.0,0.0,0.0,0.0,1.0,-0.0383072265625,-0.76614453125,10.1322614258,1.0,0.0,0.0,0.0,1.0,0.0,0.0,0.0,1.0
1464075903315531093,395,1464075903247889087,,5.46811580658,-8.26707077026,57.8845596313,0.00118499994278,1.0,0.0,0.0,0.0,1.0,0.0,0.0,0.0,1.0,-0.304878056049,8.29268264771,0.0609756112099,1.0,0.0,0.0,0.0,1.0,0.0,0.0,0.0,1.0,-0.426167895508,-0.641646044922,10.3190091553,1.0,0.0,0.0,0.0,1.0,0.0,0.0,0.0,1.0
1464075903320542226,396,1464075903268721948,,5.60375070572,-8.28847980499,56.6971549988,0.00128399999812,1.0,0.0,0.0,0.0,1.0,0.0,0.0,0.0,1.0,-0.609756112099,7.68292665482,-0.243902444839,1.0,0.0,0.0,0.0,1.0,0.0,0.0,0.0,1.0,-0.474051928711,-0.737414111328,10.2423947021,1.0,0.0,0.0,0.0,1.0,0.0,0.0,0.0,1.0
1464075903320952277,397,1464075903289187049,,5.72985744476,-8.30983352661,55.5334854126,0.00138599995989,1.0,0.0,0.0,0.0,1.0,0.0,0.0,0.0,1.0,-0.304878056049,6.46341466904,0.609756112099,1.0,0.0,0.0,0.0,1.0,0.0,0.0,0.0,1.0,-0.478840332031,-0.833182177734,10.2471831055,1.0,0.0,0.0,0.0,1.0,0.0,0.0,0.0,1.0
1464075903655778879,398,1464075903309987462,,5.82817649841,-8.31467247009,54.3732147217,0.00121699995361,1.0,0.0,0.0,0.0,1.0,0.0,0.0,0.0,1.0,-0.609756112099,6.09756088257,0.670731723309,1.0,0.0,0.0,0.0,1.0,0.0,0.0,0.0,1.0,-0.383072265625,-0.708683691406,10.3237975586,1.0,0.0,0.0,0.0,1.0,0.0,0.0,0.0,1.0
1464075903656052263,399,1464075903330957666,,5.90760087967,-8.31990623474,53.2044181824,0.00115799997002,1.0,0.0,0.0,0.0,1.0,0.0,0.0,0.0,1.0,-0.365853667259,4.93902444839,0.12195122242,1.0,0.0,0.0,0.0,1.0,0.0,0.0,0.0,1.0,-0.354341845703,-0.627280834961,10.2376062988,1.0,0.0,0.0,0.0,1.0,0.0,0.0,0.0,1.0
1464075903656326273,400,1464075903351690475,,5.95542240143,-8.32257461548,52.042263031,0.00115899997763,1.0,0.0,0.0,0.0,1.0,0.0,0.0,0.0,1.0,-0.548780500889,4.93902444839,0.487804889679,1.0,0.0,0.0,0.0,1.0,0.0,0.0,0.0,1.0,-0.258573779297,-0.560243188477,10.0891657959,1.0,0.0,0.0,0.0,1.0,0.0,0.0,0.0,1.0
1464075903656574554,401,1464075903372477815,,6.0102148056,-8.32783222198,50.8926124573,0.00117199996021,1.0,0.0,0.0,0.0,1.0,0.0,0.0,0.0,1.0,-0.18292683363,3.84146332741,0.365853667259,1.0,0.0,0.0,0.0,1.0,0.0,0.0,0.0,1.0,-0.325611425781,-0.632069238281,10.1945106689,1.0,0.0,0.0,0.0,1.0,0.0,0.0,0.0,1.0
1464075903656805907,402,1464075903393012135,,6.0474653244,-8.33917999268,49.7278213501,0.00128099997528,1.0,0.0,0.0,0.0,1.0,0.0,0.0,0.0,1.0,-0.12195122242,2.62195134163,-0.975609779358,1.0,0.0,0.0,0.0,1.0,0.0,0.0,0.0,1.0,-0.445321508789,-0.751779321289,10.2376062988,1.0,0.0,0.0,0.0,1.0,0.0,0.0,0.0,1.0
1464075903657027417,403,1464075903413608226,,6.06590795517,-8.3544178009,48.5717658997,0.00119400001131,1.0,0.0,0.0,0.0,1.0,0.0,0.0,0.0,1.0,-0.975609779358,2.86585378647,0.548780500889,1.0,0.0,0.0,0.0,1.0,0.0,0.0,0.0,1.0,-0.320823022461,-0.737414111328,10.3477395752,1.0,0.0,0.0,0.0,1.0,0.0,0.0,0.0,1.0
1464075903657255437,404,1464075903435175720,,6.09453392029,-8.37542247772,47.3867645264,0.00120299996343,1.0,0.0,0.0,0.0,1.0,0.0,0.0,0.0,1.0,-0.548780500889,2.80487799644,0.792682945728,1.0,0.0,0.0,0.0,1.0,0.0,0.0,0.0,1.0,-0.354341845703,-0.679953271484,10.1992990723,1.0,0.0,0.0,0.0,1.0,0.0,0.0,0.0,1.0
1464075903657746842,405,1464075903456099466,,6.08735227585,-8.40064430237,46.2175598145,0.00127600005362,1.0,0.0,0.0,0.0,1.0,0.0,0.0,0.0,1.0,-0.365853667259,1.15853655338,-0.914634168148,1.0,0.0,0.0,0.0,1.0,0.0,0.0,0.0,1.0,-0.292092584273,-0.828393774414,10.4099888184,1.0,0.0,0.0,0.0,1.0,0.0,0.0,0.0,1.0
1464075903658023196,406,1464075903476647015,,6.06492900848,-8.43128681183,45.0528831482,0.00126299995463,1.0,0.0,0.0,0.0,1.0,0.0,0.0,0.0,1.0,-0.365853667259,0.426829278469,-0.243902444839,1.0,0.0,0.0,0.0,1.0,0.0,0.0,0.0,1.0,-0.335188232422,-0.876277807617,10.2471831055,1.0,0.0,0.0,0.0,1.0,0.0,0.0,0.0,1.0
1464075903658326893,407,1464075903497680709,,6.04718160629,-8.4632434845,43.8969688416,0.00121400004718,1.0,0.0,0.0,0.0,1.0,0.0,0.0,0.0,1.0,-0.18292683363,0.12195122242,0.426829278469,1.0,0.0,0.0,0.0,1.0,0.0,0.0,0.0,1.0,-0.507570751953,-0.881066210937,10.0269165527,1.0,0.0,0.0,0.0,1.0,0.0,0.0,0.0,1.0
1464075903658575225,408,1464075903519017943,,5.99214458466,-8.48373031616,42.6991386414,0.0013490000274,1.0,0.0,0.0,0.0,1.0,0.0,0.0,0.0,1.0,-0.548780500889,-1.46341466904,-0.426829278469,1.0,0.0,0.0,0.0,1.0,0.0,0.0,0.0,1.0,-0.196324536133,-0.814028564453,10.1562034424,1.0,0.0,0.0,0.0,1.0,0.0,0.0,0.0,1.0
1464075903658845746,409,1464075903539698825,,5.90787124634,-8.4876203537,41.5512542725,0.00132100004703,1.0,0.0,0.0,0.0,1.0,0.0,0.0,0.0,1.0,-0.365853667259,-1.58536589146,0.12195122242,1.0,0.0,0.0,0.0,1.0,0.0,0.0,0.0,1.0,-0.134075302102,-0.703895288086,10.285490332,1.0,0.0,0.0,0.0,1.0,0.0,0.0,0.0,1.0
1464075903659111005,410,1464075903560796373,,5.82544994354,-8.48238945007,40.384311676,0.00118300004397,1.0,0.0,0.0,0.0,1.0,0.0,0.0,0.0,1.0,-0.609756112099,-0.548780500889,0.18292683363,1.0,0.0,0.0,0.0,1.0,0.0,0.0,0.0,1.0,-0.119710083008,-0.660799658203,10.1753570557,1.0,0.0,0.0,0.0,1.0,0.0,0.0,0.0,1.0
1464075903659338505,411,1464075903581652307,,5.75272464752,-8.48204803467,39.2311325073,0.00115400005598,1.0,0.0,0.0,0.0,1.0,0.0,0.0,0.0,1.0,-0.609756112099,0.853658556938,-0.243902444839,1.0,0.0,0.0,0.0,1.0,0.0,0.0,0.0,1.0,0.114921679688,-0.723048901367,10.2328178955,1.0,0.0,0.0,0.0,1.0,0.0,0.0,0.0,1.0
1464075903659651681,412,1464075903601891263,,5.70636463165,-8.48734664917,38.0985374451,0.00117900001351,1.0,0.0,0.0,0.0,1.0,0.0,0.0,0.0,1.0,-0.487804889679,3.04878044128,0.670731723309,1.0,0.0,0.0,0.0,1.0,0.0,0.0,0.0,1.0,0.15322890625,-0.775721337891,10.2567599121,1.0,0.0,0.0,0.0,1.0,0.0,0.0,0.0,1.0
1464075903659976524,413,1464075903623626725,,5.71180868149,-8.4975528717,36.8918457031,0.00122400000691,1.0,0.0,0.0,0.0,1.0,0.0,0.0,0.0,1.0,-0.609756112099,5.18292713165,-0.243902444839,1.0,0.0,0.0,0.0,1.0,0.0,0.0,0.0,1.0,-0.0335188255255,-0.77093293457,10.3621047852,1.0,0.0,0.0,0.0,1.0,0.0,0.0,0.0,1.0
1464075903660264440,414,1464075903644877554,,5.75066661835,-8.50440597534,35.683971405,0.00117800000589,1.0,0.0,0.0,0.0,1.0,0.0,0.0,0.0,1.0,-0.487804889679,5.0,-0.548780500889,1.0,0.0,0.0,0.0,1.0,0.0,0.0,0.0,1.0,-0.167594116211,-0.775721337891,10.1274730225,1.0,0.0,0.0,0.0,1.0,0.0,0.0,0.0,1.0
1464075903748087746,415,1464075903666321142,,5.81319618225,-8.51568889618,34.4726829529,0.00120399997104,1.0,0.0,0.0,0.0,1.0,0.0,0.0,0.0,1.0,-0.670731723309,6.40243911743,0.487804889679,1.0,0.0,0.0,0.0,1.0,0.0,0.0,0.0,1.0,-0.272938989258,-0.814028564453,10.419565625,1.0,0.0,0.0,0.0,1.0,0.0,0.0,0.0,1.0
1464075903748392537,416,1464075903687114055,,5.89259004593,-8.52026748657,33.3274650574,0.00123599998187,1.0,0.0,0.0,0.0,1.0,0.0,0.0,0.0,1.0,-0.670731723309,6.64634132385,1.46341466904,1.0,0.0,0.0,0.0,1.0,0.0,0.0,0.0,1.0,-0.0718260498047,-0.598550451572,10.3381627686,1.0,0.0,0.0,0.0,1.0,0.0,0.0,0.0,1.0
1464075903748703838,417,1464075903709363995,,5.9777879715,-8.52746582031,32.0884475708,0.0113180000335,1.0,0.0,0.0,0.0,1.0,0.0,0.0,0.0,1.0,-0.731707334518,7.86585378647,0.243902444839,1.0,0.0,0.0,0.0,1.0,0.0,0.0,0.0,1.0,-0.0861912597656,-0.689530078125,10.2136642822,1.0,0.0,0.0,0.0,1.0,0.0,0.0,0.0,1.0
1464075903748995400,418,1464075903729799878,,6.06934738159,-8.53379058838,30.9226493835,0.00132100004703,1.0,0.0,0.0,0.0,1.0,0.0,0.0,0.0,1.0,-0.792682945728,9.63414573669,0.0,1.0,0.0,0.0,0.0,1.0,0.0,0.0,0.0,1.0,0.00478840332031,-0.694318481445,10.2376062988,1.0,0.0,0.0,0.0,1.0,0.0,0.0,0.0,1.0
1464075903837139695,419,1464075903750883832,,6.22670078278,-8.55234622955,29.7301845551,0.00121100002434,1.0,0.0,0.0,0.0,1.0,0.0,0.0,0.0,1.0,-1.09756100178,10.9756097794,0.365853667259,1.0,0.0,0.0,0.0,1.0,0.0,0.0,0.0,1.0,-0.363918652344,-0.641646044922,10.2280294922,1.0,0.0,0.0,0.0,1.0,0.0,0.0,0.0,1.0
1464075903837375579,420,1464075903773674292,,6.4176940918,-8.58478832245,28.4964675903,0.0016680000117,1.0,0.0,0.0,0.0,1.0,0.0,0.0,0.0,1.0,-0.792682945728,10.1829271317,0.0609756112099,1.0,0.0,0.0,0.0,1.0,0.0,0.0,0.0,1.0,-0.526724328702,-0.76614453125,10.1418382324,1.0,0.0,0.0,0.0,1.0,0.0,0.0,0.0,1.0
1464075903837714381,421,1464075903794046737,,6.59456014633,-8.6234331131,27.2782306671,0.0033879999537,1.0,0.0,0.0,0.0,1.0,0.0,0.0,0.0,1.0,-0.914634168148,9.20731735229,0.670731723309,1.0,0.0,0.0,0.0,1.0,0.0,0.0,0.0,1.0,-0.569819995117,-0.809240161133,10.1083194092,1.0,0.0,0.0,0.0,1.0,0.0,0.0,0.0,1.0
1464075903838006411,422,1464075903814609130,,6.74187231064,-8.66027164459,26.1095809937,0.00118100002874,1.0,0.0,0.0,0.0,1.0,0.0,0.0,0.0,1.0,-0.731707334518,9.69512176514,1.03658533096,1.0,0.0,0.0,0.0,1.0,0.0,0.0,0.0,1.0,-0.507570751953,-0.76135612793,10.3764699951,1.0,0.0,0.0,0.0,1.0,0.0,0.0,0.0,1.0
1464075903864570663,423,1464075903835243189,,6.87798261642,-8.70212841034,24.9479503632,0.00110999995377,1.0,0.0,0.0,0.0,1.0,0.0,0.0,0.0,1.0,-0.609756112099,9.20731735229,0.548780500889,1.0,0.0,0.0,0.0,1.0,0.0,0.0,0.0,1.0,-0.316034619141,-0.847547387695,10.1178962158,1.0,0.0,0.0,0.0,1.0,0.0,0.0,0.0,1.0
1464075903864610610,424,1464075903856648340,,7.01690292358,-8.74376773834,23.7366924286,0.00112799997441,1.0,0.0,0.0,0.0,1.0,0.0,0.0,0.0,1.0,-0.731707334518,9.45121955872,-0.12195122242,1.0,0.0,0.0,0.0,1.0,0.0,0.0,0.0,1.0,-0.493205541992,-0.785298144531,10.1418382324,1.0,0.0,0.0,0.0,1.0,0.0,0.0,0.0,1.0
1464075903884627067,425,1464075903878001825,,7.16006088257,-8.78329181671,22.5504722595,0.00118200003635,1.0,0.0,0.0,0.0,1.0,0.0,0.0,0.0,1.0,-0.731707334518,8.17073154449,-0.243902444839,1.0,0.0,0.0,0.0,1.0,0.0,0.0,0.0,1.0,-0.833182177734,-0.751779321289,10.1897222656,1.0,0.0,0.0,0.0,1.0,0.0,0.0,0.0,1.0
1464075903976163957,426,1464075903898752081,,7.29071807861,-8.81742668152,21.3933143616,0.00144499994349,1.0,0.0,0.0,0.0,1.0,0.0,0.0,0.0,1.0,-0.914634168148,6.09756088257,-0.365853667259,1.0,0.0,0.0,0.0,1.0,0.0,0.0,0.0,1.0,-0.847547387695,-0.727837304687,10.2759135254,1.0,0.0,0.0,0.0,1.0,0.0,0.0,0.0,1.0
1464075903978409732,427,1464075903919219683,,7.38724517822,-8.84217262268,20.2370529175,0.00133700005244,1.0,0.0,0.0,0.0,1.0,0.0,0.0,0.0,1.0,-0.853658556938,3.17073178291,-0.426829278469,1.0,0.0,0.0,0.0,1.0,0.0,0.0,0.0,1.0,-1.06302561017,-0.675164868164,10.1322614258,1.0,0.0,0.0,0.0,1.0,0.0,0.0,0.0,1.0
1464075903979004991,428,1464075903940911864,,7.42795562744,-8.86502838135,19.0000286102,0.00170200003777,1.0,0.0,0.0,0.0,1.0,0.0,0.0,0.0,1.0,-0.426829278469,-0.609756112099,-0.487804889679,1.0,0.0,0.0,0.0,1.0,0.0,0.0,0.0,1.0,-1.16358193377,-0.636857641602,10.0364933594,1.0,0.0,0.0,0.0,1.0,0.0,0.0,0.0,1.0
1464075903980618997,429,1464075903962803056,,7.37375211716,-8.88376522064,17.7781925201,0.00181899999734,1.0,0.0,0.0,0.0,1.0,0.0,0.0,0.0,1.0,-0.487804889679,-4.08536577225,-0.243902444839,1.0,0.0,0.0,0.0,1.0,0.0,0.0,0.0,1.0,-0.976834277344,-0.574608398438,10.2136642822,1.0,0.0,0.0,0.0,1.0,0.0,0.0,0.0,1.0
1464075904322349123,430,1464075903984136540,,7.2446513176,-8.89395618439,16.6057376862,0.00154800002929,1.0,0.0,0.0,0.0,1.0,0.0,0.0,0.0,1.0,-0.18292683363,-5.97560977936,0.243902444839,1.0,0.0,0.0,0.0,1.0,0.0,0.0,0.0,1.0,-0.814028564453,-0.574608398438,10.3477395752,1.0,0.0,0.0,0.0,1.0,0.0,0.0,0.0,1.0
1464075904322394487,431,1464075904005301014,,7.05859613419,-8.89717578888,15.4647455215,0.00159500003792,1.0,0.0,0.0,0.0,1.0,0.0,0.0,0.0,1.0,-0.304878056049,-7.68292665482,-0.365853667259,1.0,0.0,0.0,0.0,1.0,0.0,0.0,0.0,1.0,-0.517147558594,-0.61770402832,10.285490332,1.0,0.0,0.0,0.0,1.0,0.0,0.0,0.0,1.0
1464075904322642664,432,1464075904026113875,,6.83681249619,-8.90671825409,14.3486299515,0.00133100000676,1.0,0.0,0.0,0.0,1.0,0.0,0.0,0.0,1.0,-0.548780500889,-7.80487823486,-0.0609756112099,1.0,0.0,0.0,0.0,1.0,0.0,0.0,0.0,1.0,-0.287304199219,-0.756567724609,10.3812583984,1.0,0.0,0.0,0.0,1.0,0.0,0.0,0.0,1.0
1464075904322925996,433,1464075904046829653,,6.61175107956,-8.92353916168,13.2040081024,0.00154099997599,1.0,0.0,0.0,0.0,1.0,0.0,0.0,0.0,1.0,-0.365853667259,-6.70731735229,0.0609756112099,1.0,0.0,0.0,0.0,1.0,0.0,0.0,0.0,1.0,-0.244208569336,-0.938527050781,10.2040874756,1.0,0.0,0.0,0.0,1.0,0.0,0.0,0.0,1.0
1464075904323510838,434,1464075904070636360,,6.40383386612,-8.93765926361,12.0345935822,0.00208000000566,1.0,0.0,0.0,0.0,1.0,0.0,0.0,0.0,1.0,0.243902444839,-7.98780536652,-1.2195122242,1.0,0.0,0.0,0.0,1.0,0.0,0.0,0.0,1.0,-0.407014282227,-0.809240161133,10.3046439453,1.0,0.0,0.0,0.0,1.0,0.0,0.0,0.0,1.0
1464075904324536356,435,1464075904088926832,,6.18110275269,-8.95011520386,10.8804798126,0.00155599997379,1.0,0.0,0.0,0.0,1.0,0.0,0.0,0.0,1.0,0.18292683363,-7.50000047684,-0.914634168148,1.0,0.0,0.0,0.0,1.0,0.0,0.0,0.0,1.0,-0.277727392578,-0.794874951172,10.165780249,1.0,0.0,0.0,0.0,1.0,0.0,0.0,0.0,1.0
1464075904324896408,436,1464075904109700057,,5.96792888641,-8.96037960052,9.75790214539,0.00164699996822,1.0,0.0,0.0,0.0,1.0,0.0,0.0,0.0,1.0,0.0609756112099,-6.28048801422,0.243902444839,1.0,0.0,0.0,0.0,1.0,0.0,0.0,0.0,1.0,-0.0287304199219,-0.962469067383,10.1992990723,1.0,0.0,0.0,0.0,1.0,0.0,0.0,0.0,1.0
1464075904325265834,437,1464075904130125419,,5.76996517181,-8.96511459351,8.63827419281,0.00156000000425,1.0,0.0,0.0,0.0,1.0,0.0,0.0,0.0,1.0,0.12195122242,-5.73170757294,-0.0609756112099,1.0,0.0,0.0,0.0,1.0,0.0,0.0,0.0,1.0,-0.0861912597656,-0.804451757813,10.2232410889,1.0,0.0,0.0,0.0,1.0,0.0,0.0,0.0,1.0
1464075904326725830,438,1464075904151380206,,5.57739877701,-8.9593629837,7.46406269073,0.00176899996586,1.0,0.0,0.0,0.0,1.0,0.0,0.0,0.0,1.0,0.670731723309,-4.93902444839,-1.2195122242,1.0,0.0,0.0,0.0,1.0,0.0,0.0,0.0,1.0,-0.0957680664062,-0.718260498047,10.1418382324,1.0,0.0,0.0,0.0,1.0,0.0,0.0,0.0,1.0
1464075904327143172,439,1464075904172393327,,5.41720914841,-8.94291305542,6.284512043,0.00164499995299,1.0,0.0,0.0,0.0,1.0,0.0,0.0,0.0,1.0,-0.12195122242,-4.81707286835,-0.853658556938,1.0,0.0,0.0,0.0,1.0,0.0,0.0,0.0,1.0,-0.205901342773,-0.823605371094,10.4004120117,1.0,0.0,0.0,0.0,1.0,0.0,0.0,0.0,1.0
1464075904327679994,440,1464075904193583895,,5.27017641068,-8.91545772552,5.10915660858,0.0014159999555,1.0,0.0,0.0,0.0,1.0,0.0,0.0,0.0,1.0,0.304878056049,-4.20731735229,0.304878056049,1.0,0.0,0.0,0.0,1.0,0.0,0.0,0.0,1.0,-0.210689746094,-0.684741674805,10.060435376,1.0,0.0,0.0,0.0,1.0,0.0,0.0,0.0,1.0
1464075904327739994,441,1464075904214407068,,5.12851810455,-8.87499237061,3.98193645477,0.001304000034,1.0,0.0,0.0,0.0,1.0,0.0,0.0,0.0,1.0,-0.426829278469,-4.14634132385,-0.426829278469,1.0,0.0,0.0,0.0,1.0,0.0,0.0,0.0,1.0,-0.0622492431641,-0.574608398438,10.3094323486,1.0,0.0,0.0,0.0,1.0,0.0,0.0,0.0,1.0
1464075904327796504,442,1464075904235359825,,4.97075462341,-8.83502864838,2.8202419281,0.0014600000577,1.0,0.0,0.0,0.0,1.0,0.0,0.0,0.0,1.0,-0.243902444839,-4.14634132385,-0.731707334518,1.0,0.0,0.0,0.0,1.0,0.0,0.0,0.0,1.0,0.0383072265625,-0.603338854892,10.1418382324,1.0,0.0,0.0,0.0,1.0,0.0,0.0,0.0,1.0
1464075904328117961,443,1464075904256064665,,4.82775783539,-8.81022357941,1.68393743038,0.00134600000456,1.0,0.0,0.0,0.0,1.0,0.0,0.0,0.0,1.0,0.12195122242,-1.64634156227,0.365853667259,1.0,0.0,0.0,0.0,1.0,0.0,0.0,0.0,1.0,0.316034619141,-0.723048901367,10.4435076416,1.0,0.0,0.0,0.0,1.0,0.0,0.0,0.0,1.0
1464075904330073321,444,1464075904276448985,,4.73558521271,-8.79047393799,0.553730130196,0.00128700002097,1.0,0.0,0.0,0.0,1.0,0.0,0.0,0.0,1.0,0.0609756112099,0.243902444839,0.914634168148,1.0,0.0,0.0,0.0,1.0,0.0,0.0,0.0,1.0,0.339976635742,-0.751779321289,10.2423947021,1.0,0.0,0.0,0.0,1.0,0.0,0.0,0.0,1.0
1464075904512612415,445,1464075904296716691,,4.67676115036,-8.76712799072,-0.580755591393,0.00145900005009,1.0,0.0,0.0,0.0,1.0,0.0,0.0,0.0,1.0,-0.487804889679,2.31707310677,-0.548780500889,1.0,0.0,0.0,0.0,1.0,0.0,0.0,0.0,1.0,0.138863696289,-0.684741674805,10.2232410889,1.0,0.0,0.0,0.0,1.0,0.0,0.0,0.0,1.0
1464075904513967515,446,1464075904317664604,,4.65659475327,-8.74227523804,-1.73978698254,0.009282999672,1.0,0.0,0.0,0.0,1.0,0.0,0.0,0.0,1.0,-0.731707334518,2.92682933807,-0.243902444839,1.0,0.0,0.0,0.0,1.0,0.0,0.0,0.0,1.0,0.143652099609,-0.675164868164,10.3094323486,1.0,0.0,0.0,0.0,1.0,0.0,0.0,0.0,1.0
1464075904514256941,447,1464075904340026523,,4.68283987045,-8.71375656128,-2.93681812286,0.00177600001916,1.0,0.0,0.0,0.0,1.0,0.0,0.0,0.0,1.0,-0.792682945728,3.90243911743,0.365853667259,1.0,0.0,0.0,0.0,1.0,0.0,0.0,0.0,1.0,-0.234631762695,-0.60812722168,10.1322614258,1.0,0.0,0.0,0.0,1.0,0.0,0.0,0.0,1.0
1464075904514546941,448,1464075904359540273,,4.71705722809,-8.6830739975,-4.08006286621,0.00118599995039,1.0,0.0,0.0,0.0,1.0,0.0,0.0,0.0,1.0,-0.304878056049,3.41463422775,0.0,1.0,0.0,0.0,0.0,1.0,0.0,0.0,0.0,1.0,-0.110133276367,-0.612915625,10.314220752,1.0,0.0,0.0,0.0,1.0,0.0,0.0,0.0,1.0
1464075904514841002,449,1464075904380854747,,4.74712753296,-8.65859985352,-5.2545633316,0.00121100002434,1.0,0.0,0.0,0.0,1.0,0.0,0.0,0.0,1.0,-0.609756112099,2.98780488968,0.243902444839,1.0,0.0,0.0,0.0,1.0,0.0,0.0,0.0,1.0,-0.210689746094,-0.703895288086,10.1753570557,1.0,0.0,0.0,0.0,1.0,0.0,0.0,0.0,1.0
1464075904515120897,450,1464075904401587296,,4.76993608475,-8.63888072968,-6.45400285721,0.00129899999592,1.0,0.0,0.0,0.0,1.0,0.0,0.0,0.0,1.0,-0.548780500889,2.86585378647,-0.0609756112099,1.0,0.0,0.0,0.0,1.0,0.0,0.0,0.0,1.0,-0.244208569336,-0.751779321289,10.2711251221,1.0,0.0,0.0,0.0,1.0,0.0,0.0,0.0,1.0
1464075904515418917,451,1464075904422226303,,4.79164743423,-8.62902927399,-7.61364984512,0.00116600003093,1.0,0.0,0.0,0.0,1.0,0.0,0.0,0.0,1.0,-0.304878056049,-0.0609756112099,-0.853658556938,1.0,0.0,0.0,0.0,1.0,0.0,0.0,0.0,1.0,-0.478840332031,-0.77093293457,10.1131078125,1.0,0.0,0.0,0.0,1.0,0.0,0.0,0.0,1.0
1464075904515728500,452,1464075904443813693,,4.76574277878,-8.61713504791,-8.83088207245,0.00124699994922,1.0,0.0,0.0,0.0,1.0,0.0,0.0,0.0,1.0,-0.243902444839,-2.07317066193,-0.609756112099,1.0,0.0,0.0,0.0,1.0,0.0,0.0,0.0,1.0,-0.478840332031,-0.804451757813,10.2232410889,1.0,0.0,0.0,0.0,1.0,0.0,0.0,0.0,1.0
1464075904516315790,453,1464075904477897612,,4.6297621727,-8.58480453491,-10.5580873489,0.0157299991697,1.0,0.0,0.0,0.0,1.0,0.0,0.0,0.0,1.0,-0.243902444839,-3.84146332741,0.487804889679,1.0,0.0,0.0,0.0,1.0,0.0,0.0,0.0,1.0,-0.229843359375,-0.689530078125,10.165780249,1.0,0.0,0.0,0.0,1.0,0.0,0.0,0.0,1.0
1464075904516756466,454,1464075904501250153,,4.46782016754,-8.54250526428,-11.9202251434,0.00957399979234,1.0,0.0,0.0,0.0,1.0,0.0,0.0,0.0,1.0,-0.0609756112099,-5.18292713165,-0.792682945728,1.0,0.0,0.0,0.0,1.0,0.0,0.0,0.0,1.0,-0.0814028564453,-0.670376464844,10.2136642822,1.0,0.0,0.0,0.0,1.0,0.0,0.0,0.0,1.0
1464075904562941394,455,1464075904521630672,,4.32329320908,-8.5008354187,-13.1162900925,0.00298299989663,1.0,0.0,0.0,0.0,1.0,0.0,0.0,0.0,1.0,0.243902444839,-5.79268312454,-0.853658556938,1.0,0.0,0.0,0.0,1.0,0.0,0.0,0.0,1.0,-0.31124621582,-0.670376464844,10.0412817627,1.0,0.0,0.0,0.0,1.0,0.0,0.0,0.0,1.0
1464075904563335716,456,1464075904543433478,,4.15973138809,-8.45864105225,-14.3129501343,0.00274199992418,1.0,0.0,0.0,0.0,1.0,0.0,0.0,0.0,1.0,-0.12195122242,-6.58536624908,0.0,1.0,0.0,0.0,0.0,1.0,0.0,0.0,0.0,1.0,-0.148440512063,-0.632069238281,10.3333743652,1.0,0.0,0.0,0.0,1.0,0.0,0.0,0.0,1.0
1464075904572342098,457,1464075904567664559,,3.96985840797,-8.41315841675,-15.4725465775,0.00146399997175,1.0,0.0,0.0,0.0,1.0,0.0,0.0,0.0,1.0,0.0609756112099,-5.73170757294,0.487804889679,1.0,0.0,0.0,0.0,1.0,0.0,0.0,0.0,1.0,0.292092584273,-0.632069238281,10.3429511719,1.0,0.0,0.0,0.0,1.0,0.0,0.0,0.0,1.0
1464075904591894077,458,1464075904586004093,,3.79337120056,-8.37096595764,-16.6176319122,0.00133200001437,1.0,0.0,0.0,0.0,1.0,0.0,0.0,0.0,1.0,-0.18292683363,-4.14634132385,0.304878056049,1.0,0.0,0.0,0.0,1.0,0.0,0.0,0.0,1.0,0.292092584273,-0.708683691406,10.2184526855,1.0,0.0,0.0,0.0,1.0,0.0,0.0,0.0,1.0
1464075904627318722,459,1464075904607176171,,3.64450192451,-8.3251914978,-17.7881393433,0.00143399997614,1.0,0.0,0.0,0.0,1.0,0.0,0.0,0.0,1.0,0.0609756112099,-3.7804877758,-0.609756112099,1.0,0.0,0.0,0.0,1.0,0.0,0.0,0.0,1.0,0.129286889648,-0.775721337891,10.3046439453,1.0,0.0,0.0,0.0,1.0,0.0,0.0,0.0,1.0
1464075904641418371,460,1464075904628628249,,3.51160693169,-8.28385925293,-18.9693889618,0.00158200005535,1.0,0.0,0.0,0.0,1.0,0.0,0.0,0.0,1.0,-0.304878056049,-2.98780488968,-0.731707334518,1.0,0.0,0.0,0.0,1.0,0.0,0.0,0.0,1.0,0.373495458984,-0.77093293457,10.2519715088,1.0,0.0,0.0,0.0,1.0,0.0,0.0,0.0,1.0
1464075904658591971,461,1464075904649428037,,3.4134581089,-8.24095726013,-20.1217308044,0.00187699997332,1.0,0.0,0.0,0.0,1.0,0.0,0.0,0.0,1.0,-0.304878056049,-0.792682945728,0.304878056049,1.0,0.0,0.0,0.0,1.0,0.0,0.0,0.0,1.0,0.402225878906,-0.756567724609,10.2088758789,1.0,0.0,0.0,0.0,1.0,0.0,0.0,0.0,1.0
1464075904682132064,462,1464075904670496731,,3.3563785553,-8.20244121552,-21.2770729065,0.00126699998509,1.0,0.0,0.0,0.0,1.0,0.0,0.0,0.0,1.0,-0.426829278469,-0.304878056049,0.243902444839,1.0,0.0,0.0,0.0,1.0,0.0,0.0,0.0,1.0,0.181959326172,-0.708683691406,10.0221281494,1.0,0.0,0.0,0.0,1.0,0.0,0.0,0.0,1.0
1464075904726842048,463,1464075904691491675,,3.30258750916,-8.1619386673,-22.4500675201,0.00152299995534,1.0,0.0,0.0,0.0,1.0,0.0,0.0,0.0,1.0,0.0,-0.426829278469,-0.609756112099,1.0,0.0,0.0,0.0,1.0,0.0,0.0,0.0,1.0,0.124498486328,-0.660799658203,10.2136642822,1.0,0.0,0.0,0.0,1.0,0.0,0.0,0.0,1.0
1464075904727210537,464,1464075904711637662,,3.26730537415,-8.13358783722,-23.5883312225,0.00125800003298,1.0,0.0,0.0,0.0,1.0,0.0,0.0,0.0,1.0,-0.670731723309,1.03658533096,0.975609779358,1.0,0.0,0.0,0.0,1.0,0.0,0.0,0.0,1.0,0.263362164351,-0.814028564453,10.314220752,1.0,0.0,0.0,0.0,1.0,0.0,0.0,0.0,1.0
1464075904753548071,465,1464075904733357291,,3.25714898109,-8.09202575684,-24.7728385925,0.00130999996327,1.0,0.0,0.0,0.0,1.0,0.0,0.0,0.0,1.0,-0.609756112099,2.43902444839,0.487804889679,1.0,0.0,0.0,0.0,1.0,0.0,0.0,0.0,1.0,0.167594116211,-0.60812722168,10.1274730225,1.0,0.0,0.0,0.0,1.0,0.0,0.0,0.0,1.0
1464075904757075874,466,1464075904753808018,,3.25293660164,-8.0459356308,-25.9171161652,0.00204199994914,1.0,0.0,0.0,0.0,1.0,0.0,0.0,0.0,1.0,-0.609756112099,1.8292683363,-0.609756112099,1.0,0.0,0.0,0.0,1.0,0.0,0.0,0.0,1.0,0.215478149414,-0.675164868164,10.3764699951,1.0,0.0,0.0,0.0,1.0,0.0,0.0,0.0,1.0
1464075904823480487,467,1464075904775820980,,3.24911355972,-7.99559879303,-27.1377506256,0.00139700004365,1.0,0.0,0.0,0.0,1.0,0.0,0.0,0.0,1.0,-0.548780500889,2.86585378647,0.18292683363,1.0,0.0,0.0,0.0,1.0,0.0,0.0,0.0,1.0,0.387860668945,-0.689530078125,10.2615483154,1.0,0.0,0.0,0.0,1.0,0.0,0.0,0.0,1.0
1464075904824185277,468,1464075904796649726,,3.26869368553,-7.96354389191,-28.2893333435,0.00116700003855,1.0,0.0,0.0,0.0,1.0,0.0,0.0,0.0,1.0,-0.548780500889,4.14634132385,0.792682945728,1.0,0.0,0.0,0.0,1.0,0.0,0.0,0.0,1.0,0.325611425781,-0.632069238281,10.3094323486,1.0,0.0,0.0,0.0,1.0,0.0,0.0,0.0,1.0
1464075904824527307,469,1464075904817265244,,3.30478525162,-7.93134975433,-29.4331378937,0.00126499996986,1.0,0.0,0.0,0.0,1.0,0.0,0.0,0.0,1.0,-0.426829278469,5.85365867615,0.609756112099,1.0,0.0,0.0,0.0,1.0,0.0,0.0,0.0,1.0,0.512359155273,-0.751779321289,10.2232410889,1.0,0.0,0.0,0.0,1.0,0.0,0.0,0.0,1.0
1464075904917303465,470,1464075904838301593,,3.38313293457,-7.90381097794,-30.590719223,0.00137700000778,1.0,0.0,0.0,0.0,1.0,0.0,0.0,0.0,1.0,-0.731707334518,8.78048801422,0.975609779358,1.0,0.0,0.0,0.0,1.0,0.0,0.0,0.0,1.0,0.584185168546,-0.679953271484,10.299855542,1.0,0.0,0.0,0.0,1.0,0.0,0.0,0.0,1.0
1464075904918251171,471,1464075904858789924,,3.52150678635,-7.87545537949,-31.7498607635,0.00123199995141,1.0,0.0,0.0,0.0,1.0,0.0,0.0,0.0,1.0,-1.09756100178,9.45121955872,-0.365853667259,1.0,0.0,0.0,0.0,1.0,0.0,0.0,0.0,1.0,0.110133276367,-0.809240161133,10.1226846191,1.0,0.0,0.0,0.0,1.0,0.0,0.0,0.0,1.0
1464075904920397467,472,1464075904879305858,,3.69066333771,-7.85615730286,-32.9313278198,0.0013190000318,1.0,0.0,0.0,0.0,1.0,0.0,0.0,0.0,1.0,-0.304878056049,8.65853691101,-0.365853667259,1.0,0.0,0.0,0.0,1.0,0.0,0.0,0.0,1.0,-0.186747729492,-0.790086547852,10.2711251221,1.0,0.0,0.0,0.0,1.0,0.0,0.0,0.0,1.0
1464075904920993976,473,1464075904900559291,,3.85639619827,-7.83788061142,-34.1350135803,0.00170000002254,1.0,0.0,0.0,0.0,1.0,0.0,0.0,0.0,1.0,-0.18292683363,7.56097555161,0.731707334518,1.0,0.0,0.0,0.0,1.0,0.0,0.0,0.0,1.0,-0.143652099609,-0.612915625,10.165780249,1.0,0.0,0.0,0.0,1.0,0.0,0.0,0.0,1.0
1464075904935035553,474,1464075904921514131,,4.0024933815,-7.82047605515,-35.2944946289,0.00158899999224,1.0,0.0,0.0,0.0,1.0,0.0,0.0,0.0,1.0,-0.304878056049,7.37804937363,0.853658556938,1.0,0.0,0.0,0.0,1.0,0.0,0.0,0.0,1.0,-0.105344873047,-0.574608398438,10.2040874756,1.0,0.0,0.0,0.0,1.0,0.0,0.0,0.0,1.0
1464075904993047168,475,1464075904942264492,,4.13264513016,-7.80207586288,-36.4893875122,0.00139500002842,1.0,0.0,0.0,0.0,1.0,0.0,0.0,0.0,1.0,-0.426829278469,6.21951246262,-0.548780500889,1.0,0.0,0.0,0.0,1.0,0.0,0.0,0.0,1.0,-0.210689746094,-0.646434448242,10.2567599121,1.0,0.0,0.0,0.0,1.0,0.0,0.0,0.0,1.0
1464075904993804093,476,1464075904963500164,,4.23944187164,-7.78892803192,-37.6825714111,0.00207199994475,1.0,0.0,0.0,0.0,1.0,0.0,0.0,0.0,1.0,-0.243902444839,5.42682933807,-0.12195122242,1.0,0.0,0.0,0.0,1.0,0.0,0.0,0.0,1.0,-0.119710083008,-0.718260498047,10.2519715088,1.0,0.0,0.0,0.0,1.0,0.0,0.0,0.0,1.0
1464075904994254404,477,1464075904984496358,,4.33483886719,-7.77950668335,-38.8466377258,0.00143199996091,1.0,0.0,0.0,0.0,1.0,0.0,0.0,0.0,1.0,-0.609756112099,5.60975599289,1.03658533096,1.0,0.0,0.0,0.0,1.0,0.0,0.0,0.0,1.0,-0.0861912597656,-0.689530078125,10.180145459,1.0,0.0,0.0,0.0,1.0,0.0,0.0,0.0,1.0
1464075905019244546,478,1464075905005647238,,4.4190325737,-7.77397441864,-40.0357704163,0.00140199996531,1.0,0.0,0.0,0.0,1.0,0.0,0.0,0.0,1.0,-0.792682945728,5.30487823486,0.304878056049,1.0,0.0,0.0,0.0,1.0,0.0,0.0,0.0,1.0,-0.0239420166016,-0.76614453125,10.299855542,1.0,0.0,0.0,0.0,1.0,0.0,0.0,0.0,1.0
1464075905074637053,479,1464075905027287337,,4.49416780472,-7.77423858643,-41.254863739,0.00143599999137,1.0,0.0,0.0,0.0,1.0,0.0,0.0,0.0,1.0,-0.365853667259,4.81707286835,-0.12195122242,1.0,0.0,0.0,0.0,1.0,0.0,0.0,0.0,1.0,-0.172382519531,-0.718260498047,10.3285859619,1.0,0.0,0.0,0.0,1.0,0.0,0.0,0.0,1.0
1464075905078613241,480,1464075905048669727,,4.56756925583,-7.77494859695,-42.4206199646,0.00119600002654,1.0,0.0,0.0,0.0,1.0,0.0,0.0,0.0,1.0,-0.365853667259,4.69512224197,0.304878056049,1.0,0.0,0.0,0.0,1.0,0.0,0.0,0.0,1.0,-0.205901342773,-0.814028564453,10.2519715088,1.0,0.0,0.0,0.0,1.0,0.0,0.0,0.0,1.0
1464075905080442350,481,1464075905070273992,,4.64168787003,-7.77322769165,-43.6465530396,0.0019490000559,1.0,0.0,0.0,0.0,1.0,0.0,0.0,0.0,1.0,-0.609756112099,4.39024400711,0.548780500889,1.0,0.0,0.0,0.0,1.0,0.0,0.0,0.0,1.0,-0.114921679688,-0.727837304687,10.2567599121,1.0,0.0,0.0,0.0,1.0,0.0,0.0,0.0,1.0
1464075905109145294,482,1464075905091757893,,4.69296216965,-7.77134990692,-44.8309631348,0.00166299997363,1.0,0.0,0.0,0.0,1.0,0.0,0.0,0.0,1.0,-0.731707334518,4.39024400711,0.426829278469,1.0,0.0,0.0,0.0,1.0,0.0,0.0,0.0,1.0,-0.0191536132812,-0.751779321289,10.2471831055,1.0,0.0,0.0,0.0,1.0,0.0,0.0,0.0,1.0
1464075905119776203,483,1464075905112388619,,4.74256849289,-7.77282190323,-46.0139160156,0.00140399998054,1.0,0.0,0.0,0.0,1.0,0.0,0.0,0.0,1.0,-0.792682945728,4.08536577225,-0.487804889679,1.0,0.0,0.0,0.0,1.0,0.0,0.0,0.0,1.0,-0.0814028564453,-0.794874951172,10.1370498291,1.0,0.0,0.0,0.0,1.0,0.0,0.0,0.0,1.0
1464075905136178815,484,1464075905133324865,,4.79963874817,-7.77215623856,-47.1857414246,0.00145900005009,1.0,0.0,0.0,0.0,1.0,0.0,0.0,0.0,1.0,-0.609756112099,3.65853667259,0.18292683363,1.0,0.0,0.0,0.0,1.0,0.0,0.0,0.0,1.0,-0.263362164351,-0.727837304687,10.2280294922,1.0,0.0,0.0,0.0,1.0,0.0,0.0,0.0,1.0
1464075905158306256,485,1464075905154640016,,4.85304260254,-7.77405595779,-48.3582801819,0.00169099995401,1.0,0.0,0.0,0.0,1.0,0.0,0.0,0.0,1.0,-0.609756112099,2.31707310677,-0.12195122242,1.0,0.0,0.0,0.0,1.0,0.0,0.0,0.0,1.0,-0.282515795898,-0.646434448242,10.2232410889,1.0,0.0,0.0,0.0,1.0,0.0,0.0,0.0,1.0
1464075905179864792,486,1464075905176910373,,4.87097835541,-7.77579975128,-49.5552864075,0.00404299981892,1.0,0.0,0.0,0.0,1.0,0.0,0.0,0.0,1.0,-0.609756112099,1.2804877758,0.426829278469,1.0,0.0,0.0,0.0,1.0,0.0,0.0,0.0,1.0,-0.210689746094,-0.723048901367,10.3621047852,1.0,0.0,0.0,0.0,1.0,0.0,0.0,0.0,1.0
1464075905204067696,487,1464075905200778069,,4.86493062973,-7.773686409,-50.7424545288,0.0017569999909,1.0,0.0,0.0,0.0,1.0,0.0,0.0,0.0,1.0,-0.426829278469,1.15853655338,0.365853667259,1.0,0.0,0.0,0.0,1.0,0.0,0.0,0.0,1.0,-0.0909796630859,-0.670376464844,10.2376062988,1.0,0.0,0.0,0.0,1.0,0.0,0.0,0.0,1.0
1464075905224142017,488,1464075905218778073,,4.84937524796,-7.77372646332,-51.9153175354,0.00300800008699,1.0,0.0,0.0,0.0,1.0,0.0,0.0,0.0,1.0,-0.487804889679,1.2195122242,-0.304878056049,1.0,0.0,0.0,0.0,1.0,0.0,0.0,0.0,1.0,0.0383072265625,-0.679953271484,10.2328178955,1.0,0.0,0.0,0.0,1.0,0.0,0.0,0.0,1.0
1464075905249373304,489,1464075905246747894,,4.83696508408,-7.77077198029,-53.497505188,0.00821499992162,1.0,0.0,0.0,0.0,1.0,0.0,0.0,0.0,1.0,-0.487804889679,2.19512200356,0.12195122242,1.0,0.0,0.0,0.0,1.0,0.0,0.0,0.0,1.0,-0.0143652099609,-0.651222851562,10.165780249,1.0,0.0,0.0,0.0,1.0,0.0,0.0,0.0,1.0
1464075905271211683,490,1464075905266955288,,4.84228610992,-7.77259874344,-54.6319999695,0.00127400003839,1.0,0.0,0.0,0.0,1.0,0.0,0.0,0.0,1.0,-0.487804889679,2.92682933807,0.548780500889,1.0,0.0,0.0,0.0,1.0,0.0,0.0,0.0,1.0,0.0526724365234,-0.699106884766,10.1178962158,1.0,0.0,0.0,0.0,1.0,0.0,0.0,0.0,1.0
1464075905302453734,491,1464075905290908140,,4.87208127975,-7.77450180054,-55.9676170349,0.0130110001191,1.0,0.0,0.0,0.0,1.0,0.0,0.0,0.0,1.0,-0.731707334518,2.92682933807,-0.487804889679,1.0,0.0,0.0,0.0,1.0,0.0,0.0,0.0,1.0,-0.129286889648,-0.660799658203,10.2136642822,1.0,0.0,0.0,0.0,1.0,0.0,0.0,0.0,1.0
1464075905330646679,492,1464075905313410372,,4.90656614304,-7.77543973923,-57.2309265137,0.00211700005457,1.0,0.0,0.0,0.0,1.0,0.0,0.0,0.0,1.0,-0.487804889679,3.04878044128,0.18292683363,1.0,0.0,0.0,0.0,1.0,0.0,0.0,0.0,1.0,-0.162805712891,-0.699106884766,10.2567599121,1.0,0.0,0.0,0.0,1.0,0.0,0.0,0.0,1.0
1464075905353521931,493,1464075905334250003,,4.94027900696,-7.77681446075,-58.3769493103,0.00124000001233,1.0,0.0,0.0,0.0,1.0,0.0,0.0,0.0,1.0,-0.0609756112099,2.92682933807,0.731707334518,1.0,0.0,0.0,0.0,1.0,0.0,0.0,0.0,1.0,-0.100556469727,-0.699106884766,10.3094323486,1.0,0.0,0.0,0.0,1.0,0.0,0.0,0.0,1.0
1464075905463421219,494,1464075905354714271,,4.95547246933,-7.77881669998,-59.5381774902,0.00119600002654,1.0,0.0,0.0,0.0,1.0,0.0,0.0,0.0,1.0,-0.365853667259,3.29268312454,0.18292683363,1.0,0.0,0.0,0.0,1.0,0.0,0.0,0.0,1.0,0.0574608398438,-0.699106884766,10.2711251221,1.0,0.0,0.0,0.0,1.0,0.0,0.0,0.0,1.0
1464075905464649966,495,1464075905375415101,,4.97125053406,-7.77858448029,-60.6929130554,0.00129799998831,1.0,0.0,0.0,0.0,1.0,0.0,0.0,0.0,1.0,-0.487804889679,4.2682929039,0.0,1.0,0.0,0.0,0.0,1.0,0.0,0.0,0.0,1.0,0.129286889648,-0.723048901367,10.1897222656,1.0,0.0,0.0,0.0,1.0,0.0,0.0,0.0,1.0
1464075905466284910,496,1464075905396205983,,5.01244688034,-7.78003263474,-61.8712730408,0.00116200000048,1.0,0.0,0.0,0.0,1.0,0.0,0.0,0.0,1.0,-0.487804889679,4.39024400711,-0.0609756112099,1.0,0.0,0.0,0.0,1.0,0.0,0.0,0.0,1.0,-0.0861912597656,-0.723048901367,10.299855542,1.0,0.0,0.0,0.0,1.0,0.0,0.0,0.0,1.0
1464075905468806726,497,1464075905417296083,,5.06659078598,-7.78686475754,-63.0485191345,0.00121300003957,1.0,0.0,0.0,0.0,1.0,0.0,0.0,0.0,1.0,-0.426829278469,4.75609779358,0.243902444839,1.0,0.0,0.0,0.0,1.0,0.0,0.0,0.0,1.0,-0.15322890625,-0.723048901367,10.1370498291,1.0,0.0,0.0,0.0,1.0,0.0,0.0,0.0,1.0
1464075905470651981,498,1464075905437929933,,5.13203525543,-7.79179573059,-64.2034378052,0.00128099997528,1.0,0.0,0.0,0.0,1.0,0.0,0.0,0.0,1.0,-0.304878056049,4.57317066193,-0.18292683363,1.0,0.0,0.0,0.0,1.0,0.0,0.0,0.0,1.0,-0.234631762695,-0.689530078125,10.1609918457,1.0,0.0,0.0,0.0,1.0,0.0,0.0,0.0,1.0
1464075905471617812,499,1464075905459088939,,5.19043493271,-7.80043983459,-65.3670043945,0.00137499999255,1.0,0.0,0.0,0.0,1.0,0.0,0.0,0.0,1.0,-0.243902444839,4.75609779358,-0.0609756112099,1.0,0.0,0.0,0.0,1.0,0.0,0.0,0.0,1.0,-0.134075302102,-0.804451757813,10.2902787354,1.0,0.0,0.0,0.0,1.0,0.0,0.0,0.0,1.0
1464075906009450745,500,1464075905480045446,,5.25171613693,-7.81452941895,-66.5657653809,0.00151500001084,1.0,0.0,0.0,0.0,1.0,0.0,0.0,0.0,1.0,-0.487804889679,4.2682929039,0.243902444839,1.0,0.0,0.0,0.0,1.0,0.0,0.0,0.0,1.0,-0.215478149414,-0.742202514648,10.1897222656,1.0,0.0,0.0,0.0,1.0,0.0,0.0,0.0,1.0
1464075906010829543,501,1464075905501751273,,5.30702209473,-7.82324171066,-67.7861557007,0.00135100004263,1.0,0.0,0.0,0.0,1.0,0.0,0.0,0.0,1.0,-0.12195122242,3.17073178291,-0.365853667259,1.0,0.0,0.0,0.0,1.0,0.0,0.0,0.0,1.0,-0.359130249023,-0.790086547852,10.1945106689,1.0,0.0,0.0,0.0,1.0,0.0,0.0,0.0,1.0
1464075906012009800,502,1464075905522075333,,5.34115314484,-7.82697534561,-68.9396209717,0.00126699998509,1.0,0.0,0.0,0.0,1.0,0.0,0.0,0.0,1.0,-0.426829278469,2.19512200356,0.0,1.0,0.0,0.0,0.0,1.0,0.0,0.0,0.0,1.0,-0.363918652344,-0.622492431641,10.2232410889,1.0,0.0,0.0,0.0,1.0,0.0,0.0,0.0,1.0
1464075906015217604,503,1464075905542771423,,5.35945653915,-7.82676649094,-70.0887069702,0.00130200001877,1.0,0.0,0.0,0.0,1.0,0.0,0.0,0.0,1.0,0.0609756112099,2.43902444839,0.365853667259,1.0,0.0,0.0,0.0,1.0,0.0,0.0,0.0,1.0,-0.0861912597656,-0.588973571866,10.2328178955,1.0,0.0,0.0,0.0,1.0,0.0,0.0,0.0,1.0
1464075906015968384,504,1464075905563161629,,5.37107086182,-7.82360029221,-71.2190322876,0.00126100005582,1.0,0.0,0.0,0.0,1.0,0.0,0.0,0.0,1.0,-0.548780500889,2.25609779358,0.731707334518,1.0,0.0,0.0,0.0,1.0,0.0,0.0,0.0,1.0,-0.067037651051,-0.550666381836,10.2471831055,1.0,0.0,0.0,0.0,1.0,0.0,0.0,0.0,1.0
1464075906017085151,505,1464075905585113028,,5.37439393997,-7.81649398804,-72.4411849976,0.00148500001524,1.0,0.0,0.0,0.0,1.0,0.0,0.0,0.0,1.0,-0.243902444839,3.04878044128,-0.548780500889,1.0,0.0,0.0,0.0,1.0,0.0,0.0,0.0,1.0,0.0430956298828,-0.545877978516,10.2759135254,1.0,0.0,0.0,0.0,1.0,0.0,0.0,0.0,1.0
1464075906019298166,506,1464075905605964222,,5.39301729202,-7.82053899765,-73.6146697998,0.00159999995958,1.0,0.0,0.0,0.0,1.0,0.0,0.0,0.0,1.0,-0.731707334518,3.7804877758,0.243902444839,1.0,0.0,0.0,0.0,1.0,0.0,0.0,0.0,1.0,-0.0143652099609,-0.593762048251,10.2328178955,1.0,0.0,0.0,0.0,1.0,0.0,0.0,0.0,1.0
1464075906019369416,507,1464075905626891927,,5.43955135345,-7.82901859283,-74.7562179565,0.00153799995314,1.0,0.0,0.0,0.0,1.0,0.0,0.0,0.0,1.0,-0.548780500889,4.57317066193,0.18292683363,1.0,0.0,0.0,0.0,1.0,0.0,0.0,0.0,1.0,-0.263362164351,-0.660799658203,10.1226846191,1.0,0.0,0.0,0.0,1.0,0.0,0.0,0.0,1.0
1464075906024099508,508,1464075905648353744,,5.49201393127,-7.84905004501,-75.9644546509,0.00161100004334,1.0,0.0,0.0,0.0,1.0,0.0,0.0,0.0,1.0,-0.792682945728,3.53658556938,-0.365853667259,1.0,0.0,0.0,0.0,1.0,0.0,0.0,0.0,1.0,-0.282515795898,-0.737414111328,10.0795889893,1.0,0.0,0.0,0.0,1.0,0.0,0.0,0.0,1.0
1464075906024973359,509,1464075905672587481,,5.54292392731,-7.87405920029,-77.3475799561,0.00515200011432,1.0,0.0,0.0,0.0,1.0,0.0,0.0,0.0,1.0,-0.304878056049,2.92682933807,0.0609756112099,1.0,0.0,0.0,0.0,1.0,0.0,0.0,0.0,1.0,-0.272938989258,-0.814028564453,10.2280294922,1.0,0.0,0.0,0.0,1.0,0.0,0.0,0.0,1.0
1464075906026829604,510,1464075905693417842,,5.56206798553,-7.89765262604,-78.4993515015,0.00126699998509,1.0,0.0,0.0,0.0,1.0,0.0,0.0,0.0,1.0,-0.487804889679,3.10975623131,0.365853667259,1.0,0.0,0.0,0.0,1.0,0.0,0.0,0.0,1.0,-0.110133276367,-0.76135612793,10.285490332,1.0,0.0,0.0,0.0,1.0,0.0,0.0,0.0,1.0
1464075906029384493,511,1464075905713898360,,5.57660102844,-7.92177772522,-79.6429672241,0.00135000003502,1.0,0.0,0.0,0.0,1.0,0.0,0.0,0.0,1.0,-0.426829278469,3.53658556938,0.18292683363,1.0,0.0,0.0,0.0,1.0,0.0,0.0,0.0,1.0,-0.119710083008,-0.876277807617,10.2711251221,1.0,0.0,0.0,0.0,1.0,0.0,0.0,0.0,1.0
1464075906031264228,512,1464075905734970752,,5.60572719574,-7.94318199158,-80.836555481,0.00136300001759,1.0,0.0,0.0,0.0,1.0,0.0,0.0,0.0,1.0,-0.18292683363,2.43902444839,-0.304878056049,1.0,0.0,0.0,0.0,1.0,0.0,0.0,0.0,1.0,-0.392649072266,-0.77093293457,10.2471831055,1.0,0.0,0.0,0.0,1.0,0.0,0.0,0.0,1.0
1464075906032617766,513,1464075905755908247,,5.62863922119,-7.9630355835,-82.0236587524,0.0017119999975,1.0,0.0,0.0,0.0,1.0,0.0,0.0,0.0,1.0,-0.0609756112099,0.487804889679,-0.365853667259,1.0,0.0,0.0,0.0,1.0,0.0,0.0,0.0,1.0,-0.541089611728,-0.823605371094,10.2711251221,1.0,0.0,0.0,0.0,1.0,0.0,0.0,0.0,1.0
1464075906036021194,514,1464075905776650744,,5.61288928986,-7.97557640076,-83.1778259277,0.00133100000676,1.0,0.0,0.0,0.0,1.0,0.0,0.0,0.0,1.0,-0.365853667259,0.609756112099,0.365853667259,1.0,0.0,0.0,0.0,1.0,0.0,0.0,0.0,1.0,-0.067037651051,-0.627280834961,10.3429511719,1.0,0.0,0.0,0.0,1.0,0.0,0.0,0.0,1.0
1464075906037323847,515,1464075905798588550,,5.57883691788,-7.97642660141,-84.3581161499,0.00141899997834,1.0,0.0,0.0,0.0,1.0,0.0,0.0,0.0,1.0,-0.609756112099,-0.0609756112099,0.426829278469,1.0,0.0,0.0,0.0,1.0,0.0,0.0,0.0,1.0,-0.0622492431641,-0.512359155273,10.0891657959,1.0,0.0,0.0,0.0,1.0,0.0,0.0,0.0,1.0
1464075906041243159,516,1464075905819570525,,5.52329206467,-7.97616958618,-85.5485229492,0.00139500002842,1.0,0.0,0.0,0.0,1.0,0.0,0.0,0.0,1.0,-0.304878056049,0.609756112099,-0.548780500889,1.0,0.0,0.0,0.0,1.0,0.0,0.0,0.0,1.0,-0.0622492431641,-0.675164868164,10.299855542,1.0,0.0,0.0,0.0,1.0,0.0,0.0,0.0,1.0
1464075906041301961,517,1464075905841522914,,5.4808921814,-7.9804725647,-86.7813415527,0.00179200002458,1.0,0.0,0.0,0.0,1.0,0.0,0.0,0.0,1.0,-0.243902444839,0.304878056049,-0.609756112099,1.0,0.0,0.0,0.0,1.0,0.0,0.0,0.0,1.0,-0.210689746094,-0.756567724609,10.2902787354,1.0,0.0,0.0,0.0,1.0,0.0,0.0,0.0,1.0
1464075906043205550,518,1464075905861913953,,5.45316743851,-7.98475170135,-87.9223251343,0.00147000001743,1.0,0.0,0.0,0.0,1.0,0.0,0.0,0.0,1.0,-0.0609756112099,0.487804889679,0.670731723309,1.0,0.0,0.0,0.0,1.0,0.0,0.0,0.0,1.0,-0.0861912597656,-0.665588061523,10.2232410889,1.0,0.0,0.0,0.0,1.0,0.0,0.0,0.0,1.0
1464075906044100912,519,1464075905883865300,,5.41253042221,-7.98230648041,-89.1282501221,0.00193200004287,1.0,0.0,0.0,0.0,1.0,0.0,0.0,0.0,1.0,-0.853658556938,1.64634156227,0.243902444839,1.0,0.0,0.0,0.0,1.0,0.0,0.0,0.0,1.0,0.0383072265625,-0.574608398438,10.2328178955,1.0,0.0,0.0,0.0,1.0,0.0,0.0,0.0,1.0
1464075906047908402,520,1464075905905069723,,5.38606643677,-7.98987197876,-90.3372344971,0.00127600005362,1.0,0.0,0.0,0.0,1.0,0.0,0.0,0.0,1.0,-0.487804889679,1.40243899822,-0.853658556938,1.0,0.0,0.0,0.0,1.0,0.0,0.0,0.0,1.0,-0.191536132812,-0.799663354492,10.2567599121,1.0,0.0,0.0,0.0,1.0,0.0,0.0,0.0,1.0
1464075906060616858,521,1464075905926483519,,5.38003444672,-8.0115737915,-91.5390014648,0.00144999998156,1.0,0.0,0.0,0.0,1.0,0.0,0.0,0.0,1.0,-0.243902444839,1.95121955872,0.365853667259,1.0,0.0,0.0,0.0,1.0,0.0,0.0,0.0,1.0,-0.167594116211,-0.837970581055,10.1562034424,1.0,0.0,0.0,0.0,1.0,0.0,0.0,0.0,1.0
1464075906062266072,522,1464075905947718671,,5.38466405869,-8.02562332153,-92.7091217041,0.00132000003941,1.0,0.0,0.0,0.0,1.0,0.0,0.0,0.0,1.0,-0.487804889679,2.19512200356,0.548780500889,1.0,0.0,0.0,0.0,1.0,0.0,0.0,0.0,1.0,-0.0383072265625,-0.823605371094,10.3046439453,1.0,0.0,0.0,0.0,1.0,0.0,0.0,0.0,1.0
1464075906062684977,523,1464075905971570690,,5.37493085861,-8.03448963165,-93.9918899536,0.00359699991532,1.0,0.0,0.0,0.0,1.0,0.0,0.0,0.0,1.0,-0.426829278469,1.76829278469,-0.670731723309,1.0,0.0,0.0,0.0,1.0,0.0,0.0,0.0,1.0,-0.138863696289,-0.732625708008,10.1992990723,1.0,0.0,0.0,0.0,1.0,0.0,0.0,0.0,1.0
1464075906063044039,524,1464075905991811990,,5.3647236824,-8.03363990784,-95.1488952637,0.00161299994215,1.0,0.0,0.0,0.0,1.0,0.0,0.0,0.0,1.0,-0.365853667259,2.37804889679,0.18292683363,1.0,0.0,0.0,0.0,1.0,0.0,0.0,0.0,1.0,-0.076614453125,-0.723048901367,10.1705686523,1.0,0.0,0.0,0.0,1.0,0.0,0.0,0.0,1.0
1464075906063425496,525,1464075906012793600,,5.38152313232,-8.03392028809,-96.3633346558,0.00153200002387,1.0,0.0,0.0,0.0,1.0,0.0,0.0,0.0,1.0,-0.487804889679,1.70731711388,0.243902444839,1.0,0.0,0.0,0.0,1.0,0.0,0.0,0.0,1.0,-0.344765039063,-0.670376464844,10.2376062988,1.0,0.0,0.0,0.0,1.0,0.0,0.0,0.0,1.0
1464075906480175941,526,1464075906034682865,,5.36715984344,-8.03034591675,-97.5838165283,0.00144999998156,1.0,0.0,0.0,0.0,1.0,0.0,0.0,0.0,1.0,-0.731707334518,1.2804877758,-0.365853667259,1.0,0.0,0.0,0.0,1.0,0.0,0.0,0.0,1.0,-0.124498486328,-0.641646044922,10.2423947021,1.0,0.0,0.0,0.0,1.0,0.0,0.0,0.0,1.0
1464075906480443180,527,1464075906064293619,,5.35039520264,-8.02269077301,-99.2233123779,0.0103519996628,1.0,0.0,0.0,0.0,1.0,0.0,0.0,0.0,1.0,-0.487804889679,1.8292683363,0.18292683363,1.0,0.0,0.0,0.0,1.0,0.0,0.0,0.0,1.0,-0.148440512063,-0.598550451572,10.2567599121,1.0,0.0,0.0,0.0,1.0,0.0,0.0,0.0,1.0
1464075906480708387,528,1464075906085599499,,5.33755874634,-8.01937770844,-100.399902344,0.00391600001603,1.0,0.0,0.0,0.0,1.0,0.0,0.0,0.0,1.0,-0.426829278469,0.792682945728,-0.548780500889,1.0,0.0,0.0,0.0,1.0,0.0,0.0,0.0,1.0,-0.196324536133,-0.598550451572,10.405200415,1.0,0.0,0.0,0.0,1.0,0.0,0.0,0.0,1.0
1464075906480978126,529,1464075906114307807,,5.31142425537,-8.01690006256,-101.623664856,0.00204799999483,1.0,0.0,0.0,0.0,1.0,0.0,0.0,0.0,1.0,0.0,1.09756100178,0.12195122242,1.0,0.0,0.0,0.0,1.0,0.0,0.0,0.0,1.0,-0.119710083008,-0.699106884766,10.2615483154,1.0,0.0,0.0,0.0,1.0,0.0,0.0,0.0,1.0
1464075906483402182,530,1464075906130739065,,5.29520750046,-8.01537227631,-102.859886169,0.00283799995668,1.0,0.0,0.0,0.0,1.0,0.0,0.0,0.0,1.0,-0.304878056049,1.09756100178,0.426829278469,1.0,0.0,0.0,0.0,1.0,0.0,0.0,0.0,1.0,-0.0383072265625,-0.756567724609,10.285490332,1.0,0.0,0.0,0.0,1.0,0.0,0.0,0.0,1.0
1464075906483851869,531,1464075906150914949,,5.26683521271,-8.02023696899,-104.029335022,0.00225099991076,1.0,0.0,0.0,0.0,1.0,0.0,0.0,0.0,1.0,-0.731707334518,0.914634168148,-0.243902444839,1.0,0.0,0.0,0.0,1.0,0.0,0.0,0.0,1.0,-0.0239420166016,-0.694318481445,10.2615483154,1.0,0.0,0.0,0.0,1.0,0.0,0.0,0.0,1.0
1464075906483899733,532,1464075906172300516,,5.24457120895,-8.02532958984,-105.211006165,0.00249799992889,1.0,0.0,0.0,0.0,1.0,0.0,0.0,0.0,1.0,-0.426829278469,1.46341466904,-0.365853667259,1.0,0.0,0.0,0.0,1.0,0.0,0.0,0.0,1.0,-0.0526724365234,-0.780509741211,10.1705686523,1.0,0.0,0.0,0.0,1.0,0.0,0.0,0.0,1.0
1464075906484171555,533,1464075906193120981,,5.22969293594,-8.02834415436,-106.412567139,0.00198199995793,1.0,0.0,0.0,0.0,1.0,0.0,0.0,0.0,1.0,-0.243902444839,1.95121955872,0.426829278469,1.0,0.0,0.0,0.0,1.0,0.0,0.0,0.0,1.0,-0.0909796630859,-0.665588061523,10.3094323486,1.0,0.0,0.0,0.0,1.0,0.0,0.0,0.0,1.0
1464075906484456763,534,1464075906213464104,,5.2255115509,-8.03553009033,-107.560813904,0.00128199998289,1.0,0.0,0.0,0.0,1.0,0.0,0.0,0.0,1.0,-0.18292683363,2.74390244484,0.426829278469,1.0,0.0,0.0,0.0,1.0,0.0,0.0,0.0,1.0,0.0287304199219,-0.751779321289,10.0891657959,1.0,0.0,0.0,0.0,1.0,0.0,0.0,0.0,1.0
1464075906484730356,535,1464075906234880922,,5.22685003281,-8.04205989838,-108.736717224,0.00200899993069,1.0,0.0,0.0,0.0,1.0,0.0,0.0,0.0,1.0,-0.487804889679,2.80487799644,-0.0609756112099,1.0,0.0,0.0,0.0,1.0,0.0,0.0,0.0,1.0,-0.0191536132812,-0.727837304687,10.2471831055,1.0,0.0,0.0,0.0,1.0,0.0,0.0,0.0,1.0
1464075906485786863,536,1464075906256182323,,5.2442111969,-8.04509735107,-109.945510864,0.00198699999601,1.0,0.0,0.0,0.0,1.0,0.0,0.0,0.0,1.0,-0.304878056049,3.53658556938,0.0609756112099,1.0,0.0,0.0,0.0,1.0,0.0,0.0,0.0,1.0,-0.0861912597656,-0.794874951172,10.2759135254,1.0,0.0,0.0,0.0,1.0,0.0,0.0,0.0,1.0
1464075906486113321,537,1464075906276772059,,5.27458333969,-8.04988002777,-111.117538452,0.00170799996704,1.0,0.0,0.0,0.0,1.0,0.0,0.0,0.0,1.0,-0.365853667259,3.84146332741,0.365853667259,1.0,0.0,0.0,0.0,1.0,0.0,0.0,0.0,1.0,-0.0191536132812,-0.742202514648,10.2711251221,1.0,0.0,0.0,0.0,1.0,0.0,0.0,0.0,1.0
1464075906486384466,538,1464075906301366004,,5.30476379395,-8.0525302887,-112.268104553,0.00158399995416,1.0,0.0,0.0,0.0,1.0,0.0,0.0,0.0,1.0,-0.792682945728,3.7804877758,-0.18292683363,1.0,0.0,0.0,0.0,1.0,0.0,0.0,0.0,1.0,-0.134075302102,-0.703895288086,10.2711251221,1.0,0.0,0.0,0.0,1.0,0.0,0.0,0.0,1.0
1464075906486642278,539,1464075906319041998,,5.33585357666,-8.05795288086,-113.464683533,0.0019199999515,1.0,0.0,0.0,0.0,1.0,0.0,0.0,0.0,1.0,-0.548780500889,3.96341490746,0.487804889679,1.0,0.0,0.0,0.0,1.0,0.0,0.0,0.0,1.0,-0.129286889648,-0.699106884766,10.3333743652,1.0,0.0,0.0,0.0,1.0,0.0,0.0,0.0,1.0
1464075906486916496,540,1464075906340380274,,5.37352514267,-8.05920791626,-114.67288208,0.00200599990785,1.0,0.0,0.0,0.0,1.0,0.0,0.0,0.0,1.0,-0.670731723309,4.32926845551,0.548780500889,1.0,0.0,0.0,0.0,1.0,0.0,0.0,0.0,1.0,-0.0191536132812,-0.684741674805,10.3285859619,1.0,0.0,0.0,0.0,1.0,0.0,0.0,0.0,1.0
1464075906487186026,541,1464075906362098914,,5.41658449173,-8.06125068665,-115.892532349,0.00230400008149,1.0,0.0,0.0,0.0,1.0,0.0,0.0,0.0,1.0,-0.609756112099,4.63414621353,0.12195122242,1.0,0.0,0.0,0.0,1.0,0.0,0.0,0.0,1.0,-0.0478840332031,-0.622492431641,10.3046439453,1.0,0.0,0.0,0.0,1.0,0.0,0.0,0.0,1.0
1464075906487532536,542,1464075906383504950,,5.46921300888,-8.06687450409,-117.106330872,0.00310899992473,1.0,0.0,0.0,0.0,1.0,0.0,0.0,0.0,1.0,-0.548780500889,4.20731735229,-0.243902444839,1.0,0.0,0.0,0.0,1.0,0.0,0.0,0.0,1.0,-0.268150604204,-0.718260498047,10.2615483154,1.0,0.0,0.0,0.0,1.0,0.0,0.0,0.0,1.0
1464075906487856129,543,1464075906404984945,,5.5320482254,-8.07541179657,-118.324699402,0.00173999997787,1.0,0.0,0.0,0.0,1.0,0.0,0.0,0.0,1.0,-0.487804889679,2.80487799644,-0.0609756112099,1.0,0.0,0.0,0.0,1.0,0.0,0.0,0.0,1.0,-0.478840332031,-0.737414111328,10.1226846191,1.0,0.0,0.0,0.0,1.0,0.0,0.0,0.0,1.0
1464075906488157013,544,1464075906426845719,,5.55805683136,-8.08276462555,-119.528175354,0.00122900004499,1.0,0.0,0.0,0.0,1.0,0.0,0.0,0.0,1.0,-0.548780500889,1.58536589146,0.548780500889,1.0,0.0,0.0,0.0,1.0,0.0,0.0,0.0,1.0,-0.330399829102,-0.699106884766,10.3429511719,1.0,0.0,0.0,0.0,1.0,0.0,0.0,0.0,1.0
1464075906488458367,545,1464075906448880035,,5.55224847794,-8.08722877502,-120.722854614,0.00190899998415,1.0,0.0,0.0,0.0,1.0,0.0,0.0,0.0,1.0,-0.304878056049,0.426829278469,0.12195122242,1.0,0.0,0.0,0.0,1.0,0.0,0.0,0.0,1.0,-0.234631762695,-0.708683691406,10.1131078125,1.0,0.0,0.0,0.0,1.0,0.0,0.0,0.0,1.0
1464075907464561114,546,1464075906470802789,,5.51443958282,-8.08911895752,-121.952972412,0.0020389999263,1.0,0.0,0.0,0.0,1.0,0.0,0.0,0.0,1.0,-0.243902444839,0.365853667259,-0.548780500889,1.0,0.0,0.0,0.0,1.0,0.0,0.0,0.0,1.0,-0.220266552734,-0.699106884766,10.2759135254,1.0,0.0,0.0,0.0,1.0,0.0,0.0,0.0,1.0
1464075907464624968,547,1464075906491349192,,5.48017072678,-8.09349346161,-123.097328186,0.00206699990667,1.0,0.0,0.0,0.0,1.0,0.0,0.0,0.0,1.0,-0.487804889679,0.18292683363,0.0,1.0,0.0,0.0,0.0,1.0,0.0,0.0,0.0,1.0,-0.196324536133,-0.689530078125,10.1035310059,1.0,0.0,0.0,0.0,1.0,0.0,0.0,0.0,1.0
1464075907464668561,548,1464075906512468823,,5.4404001236,-8.09516811371,-124.332878113,0.00297600007616,1.0,0.0,0.0,0.0,1.0,0.0,0.0,0.0,1.0,-0.18292683363,-0.12195122242,-0.243902444839,1.0,0.0,0.0,0.0,1.0,0.0,0.0,0.0,1.0,-0.225054956055,-0.703895288086,10.1562034424,1.0,0.0,0.0,0.0,1.0,0.0,0.0,0.0,1.0
1464075907464711634,549,1464075906534634701,,5.38490772247,-8.10168552399,-125.569084167,0.00320899998769,1.0,0.0,0.0,0.0,1.0,0.0,0.0,0.0,1.0,-0.609756112099,0.12195122242,0.12195122242,1.0,0.0,0.0,0.0,1.0,0.0,0.0,0.0,1.0,-0.114921679688,-0.756567724609,10.2184526855,1.0,0.0,0.0,0.0,1.0,0.0,0.0,0.0,1.0
1464075907464752311,550,1464075906556534642,,5.33709287643,-8.10813331604,-126.767562866,0.00246399990283,1.0,0.0,0.0,0.0,1.0,0.0,0.0,0.0,1.0,-0.18292683363,-0.12195122242,0.0,1.0,0.0,0.0,0.0,1.0,0.0,0.0,0.0,1.0,-0.134075302102,-0.814028564453,10.1370498291,1.0,0.0,0.0,0.0,1.0,0.0,0.0,0.0,1.0
1464075907464791634,551,1464075906578015574,,5.28754901886,-8.11486911774,-127.965461731,0.00150300003588,1.0,0.0,0.0,0.0,1.0,0.0,0.0,0.0,1.0,-0.365853667259,0.304878056049,-0.304878056049,1.0,0.0,0.0,0.0,1.0,0.0,0.0,0.0,1.0,-0.110133276367,-0.699106884766,10.1274730225,1.0,0.0,0.0,0.0,1.0,0.0,0.0,0.0,1.0
1464075907464829759,552,1464075906600899888,,5.24482536316,-8.11616516113,-129.216842651,0.00239800009876,1.0,0.0,0.0,0.0,1.0,0.0,0.0,0.0,1.0,-0.426829278469,-0.0609756112099,-0.18292683363,1.0,0.0,0.0,0.0,1.0,0.0,0.0,0.0,1.0,-0.162805712891,-0.713472094727,10.2088758789,1.0,0.0,0.0,0.0,1.0,0.0,0.0,0.0,1.0
1464075907464868248,553,1464075906622162279,,5.20263242722,-8.11299324036,-130.468338013,0.00233999988995,1.0,0.0,0.0,0.0,1.0,0.0,0.0,0.0,1.0,-0.304878056049,-0.365853667259,-0.304878056049,1.0,0.0,0.0,0.0,1.0,0.0,0.0,0.0,1.0,-0.244208569336,-0.780509741211,10.2902787354,1.0,0.0,0.0,0.0,1.0,0.0,0.0,0.0,1.0
1464075907464958769,554,1464075906644500709,,5.14440011978,-8.11226940155,-131.696578979,0.00157399999443,1.0,0.0,0.0,0.0,1.0,0.0,0.0,0.0,1.0,-0.365853667259,-1.03658533096,-0.304878056049,1.0,0.0,0.0,0.0,1.0,0.0,0.0,0.0,1.0,-0.15801730957,-0.703895288086,10.2040874756,1.0,0.0,0.0,0.0,1.0,0.0,0.0,0.0,1.0
1464075907465013196,555,1464075906665990391,,5.08269786835,-8.10737705231,-132.897781372,0.00155000004452,1.0,0.0,0.0,0.0,1.0,0.0,0.0,0.0,1.0,-0.243902444839,-1.2195122242,0.12195122242,1.0,0.0,0.0,0.0,1.0,0.0,0.0,0.0,1.0,-0.119710083008,-0.699106884766,10.2184526855,1.0,0.0,0.0,0.0,1.0,0.0,0.0,0.0,1.0
1464075907465056269,556,1464075906691242719,,5.00689935684,-8.10211658478,-134.134735107,0.00199300004169,1.0,0.0,0.0,0.0,1.0,0.0,0.0,0.0,1.0,-0.304878056049,-1.64634156227,-0.243902444839,1.0,0.0,0.0,0.0,1.0,0.0,0.0,0.0,1.0,-0.0526724365234,-0.775721337891,10.2519715088,1.0,0.0,0.0,0.0,1.0,0.0,0.0,0.0,1.0
1464075907465094862,557,1464075906709633034,,4.91867113113,-8.09568119049,-135.323852539,0.0014309999533,1.0,0.0,0.0,0.0,1.0,0.0,0.0,0.0,1.0,-0.304878056049,-1.2195122242,0.0609756112099,1.0,0.0,0.0,0.0,1.0,0.0,0.0,0.0,1.0,0.0335188255255,-0.694318481445,10.3285859619,1.0,0.0,0.0,0.0,1.0,0.0,0.0,0.0,1.0
1464075907465132310,558,1464075906731421726,,4.8460483551,-8.08438301086,-136.507339478,0.00221699988469,1.0,0.0,0.0,0.0,1.0,0.0,0.0,0.0,1.0,-0.243902444839,-0.548780500889,0.0,1.0,0.0,0.0,0.0,1.0,0.0,0.0,0.0,1.0,0.0574608398438,-0.679953271484,10.2711251221,1.0,0.0,0.0,0.0,1.0,0.0,0.0,0.0,1.0
1464075907465166477,559,1464075906753210469,,4.77455711365,-8.0688419342,-137.774169922,0.00221200007945,1.0,0.0,0.0,0.0,1.0,0.0,0.0,0.0,1.0,-0.304878056049,-0.609756112099,-0.365853667259,1.0,0.0,0.0,0.0,1.0,0.0,0.0,0.0,1.0,-0.0191536132812,-0.598550451572,10.1418382324,1.0,0.0,0.0,0.0,1.0,0.0,0.0,0.0,1.0
1464075907465202050,560,1464075906774897182,,4.71842098236,-8.05556583405,-138.981430054,0.00209200009704,1.0,0.0,0.0,0.0,1.0,0.0,0.0,0.0,1.0,-0.18292683363,0.0,-0.12195122242,1.0,0.0,0.0,0.0,1.0,0.0,0.0,0.0,1.0,-0.0335188255255,-0.593762048251,10.1370498291,1.0,0.0,0.0,0.0,1.0,0.0,0.0,0.0,1.0
1464075907465236425,561,1464075906796690092,,4.67131948471,-8.04458808899,-140.201950073,0.00196900009178,1.0,0.0,0.0,0.0,1.0,0.0,0.0,0.0,1.0,-0.12195122242,-0.853658556938,0.0609756112099,1.0,0.0,0.0,0.0,1.0,0.0,0.0,0.0,1.0,-0.119710083008,-0.76614453125,10.2184526855,1.0,0.0,0.0,0.0,1.0,0.0,0.0,0.0,1.0
1464075907465271633,562,1464075906819377896,,4.61255407333,-8.02949810028,-141.406234741,0.0019570000004,1.0,0.0,0.0,0.0,1.0,0.0,0.0,0.0,1.0,-0.0609756112099,-1.2195122242,-0.18292683363,1.0,0.0,0.0,0.0,1.0,0.0,0.0,0.0,1.0,-0.114921679688,-0.699106884766,10.1945106689,1.0,0.0,0.0,0.0,1.0,0.0,0.0,0.0,1.0
1464075907465310018,563,1464075906840798411,,4.54503107071,-8.01636886597,-142.620803833,0.00179300003219,1.0,0.0,0.0,0.0,1.0,0.0,0.0,0.0,1.0,-0.243902444839,-1.15853655338,-0.0609756112099,1.0,0.0,0.0,0.0,1.0,0.0,0.0,0.0,1.0,0.067037651051,-0.737414111328,10.2950671387,1.0,0.0,0.0,0.0,1.0,0.0,0.0,0.0,1.0
1464075907465347622,564,1464075906861766011,,4.46880674362,-7.99775981903,-143.83795166,0.0022539999336,1.0,0.0,0.0,0.0,1.0,0.0,0.0,0.0,1.0,0.0,-1.34146344662,-0.12195122242,1.0,0.0,0.0,0.0,1.0,0.0,0.0,0.0,1.0,0.0909796630859,-0.723048901367,10.2040874756,1.0,0.0,0.0,0.0,1.0,0.0,0.0,0.0,1.0
1464075907465411893,565,1464075906882924132,,4.39435100555,-7.97963428497,-144.99822998,0.00208200002089,1.0,0.0,0.0,0.0,1.0,0.0,0.0,0.0,1.0,-0.365853667259,-0.365853667259,0.0609756112099,1.0,0.0,0.0,0.0,1.0,0.0,0.0,0.0,1.0,0.119710083008,-0.708683691406,10.2950671387,1.0,0.0,0.0,0.0,1.0,0.0,0.0,0.0,1.0
1464075907465455018,566,1464075906903510066,,4.32974767685,-7.96109008789,-146.142501831,0.00159700005315,1.0,0.0,0.0,0.0,1.0,0.0,0.0,0.0,1.0,-0.243902444839,0.18292683363,0.243902444839,1.0,0.0,0.0,0.0,1.0,0.0,0.0,0.0,1.0,0.296881024126,-0.622492431641,10.1131078125,1.0,0.0,0.0,0.0,1.0,0.0,0.0,0.0,1.0
1464075907465493872,567,1464075906924617718,,4.28896808624,-7.94260120392,-147.336212158,0.00142999994569,1.0,0.0,0.0,0.0,1.0,0.0,0.0,0.0,1.0,-0.18292683363,0.609756112099,-0.426829278469,1.0,0.0,0.0,0.0,1.0,0.0,0.0,0.0,1.0,0.162805712891,-0.708683691406,10.3429511719,1.0,0.0,0.0,0.0,1.0,0.0,0.0,0.0,1.0
1464075907465534601,568,1464075906946812502,,4.25974464417,-7.9214258194,-148.560943604,0.00154500000644,1.0,0.0,0.0,0.0,1.0,0.0,0.0,0.0,1.0,-0.426829278469,1.03658533096,-0.18292683363,1.0,0.0,0.0,0.0,1.0,0.0,0.0,0.0,1.0,0.00478840332031,-0.641646044922,10.1609918457,1.0,0.0,0.0,0.0,1.0,0.0,0.0,0.0,1.0
1464075907465572830,569,1464075906968393798,,4.24407339096,-7.9034204483,-149.77645874,0.00198099995032,1.0,0.0,0.0,0.0,1.0,0.0,0.0,0.0,1.0,-0.365853667259,0.853658556938,0.0,1.0,0.0,0.0,0.0,1.0,0.0,0.0,0.0,1.0,0.0191536132812,-0.76614453125,10.165780249,1.0,0.0,0.0,0.0,1.0,0.0,0.0,0.0,1.0
1464075907465607934,570,1464075906992181755,,4.21514368057,-7.88421726227,-151.019897461,0.00195900001563,1.0,0.0,0.0,0.0,1.0,0.0,0.0,0.0,1.0,-0.18292683363,1.15853655338,0.12195122242,1.0,0.0,0.0,0.0,1.0,0.0,0.0,0.0,1.0,0.134075302102,-0.77093293457,10.1705686523,1.0,0.0,0.0,0.0,1.0,0.0,0.0,0.0,1.0
1464075907465642986,571,1464075907012735659,,4.1917014122,-7.86916732788,-152.265655518,0.00260200002231,1.0,0.0,0.0,0.0,1.0,0.0,0.0,0.0,1.0,-0.548780500889,1.70731711388,-0.12195122242,1.0,0.0,0.0,0.0,1.0,0.0,0.0,0.0,1.0,0.191536132812,-0.612915625,10.1897222656,1.0,0.0,0.0,0.0,1.0,0.0,0.0,0.0,1.0
1464075907465677100,572,1464075907046081194,,4.18508720398,-7.84651422501,-153.491348267,0.00604399992153,1.0,0.0,0.0,0.0,1.0,0.0,0.0,0.0,1.0,-0.426829278469,1.95121955872,-0.0609756112099,1.0,0.0,0.0,0.0,1.0,0.0,0.0,0.0,1.0,0.076614453125,-0.660799658203,10.285490332,1.0,0.0,0.0,0.0,1.0,0.0,0.0,0.0,1.0
1464075907465712725,573,1464075907062158339,,4.21721744537,-7.83872079849,-155.033111572,0.0106739997864,1.0,0.0,0.0,0.0,1.0,0.0,0.0,0.0,1.0,-0.609756112099,2.68292689323,0.12195122242,1.0,0.0,0.0,0.0,1.0,0.0,0.0,0.0,1.0,0.0335188255255,-0.756567724609,10.3429511719,1.0,0.0,0.0,0.0,1.0,0.0,0.0,0.0,1.0
1464075907465753090,574,1464075907084069478,,4.21906852722,-7.82376003265,-156.250289917,0.00165600003675,1.0,0.0,0.0,0.0,1.0,0.0,0.0,0.0,1.0,-0.304878056049,2.31707310677,-0.12195122242,1.0,0.0,0.0,0.0,1.0,0.0,0.0,0.0,1.0,0.067037651051,-0.651222851562,10.2136642822,1.0,0.0,0.0,0.0,1.0,0.0,0.0,0.0,1.0
1464075907465809288,575,1464075907104102497,,4.22239542007,-7.81244754791,-157.421600342,0.00281800003722,1.0,0.0,0.0,0.0,1.0,0.0,0.0,0.0,1.0,-0.548780500889,2.13414645195,-0.18292683363,1.0,0.0,0.0,0.0,1.0,0.0,0.0,0.0,1.0,-0.00957680664062,-0.833182177734,10.2136642822,1.0,0.0,0.0,0.0,1.0,0.0,0.0,0.0,1.0
1464075907465845642,576,1464075907127983110,,4.22993135452,-7.80111074448,-158.718109131,0.00295199989341,1.0,0.0,0.0,0.0,1.0,0.0,0.0,0.0,1.0,-0.670731723309,2.68292689323,0.18292683363,1.0,0.0,0.0,0.0,1.0,0.0,0.0,0.0,1.0,0.110133276367,-0.799663354492,10.3333743652,1.0,0.0,0.0,0.0,1.0,0.0,0.0,0.0,1.0
1464075907465878089,577,1464075907150062582,,4.23956155777,-7.79086399078,-159.983352661,0.002623999957,1.0,0.0,0.0,0.0,1.0,0.0,0.0,0.0,1.0,-0.426829278469,2.74390244484,0.18292683363,1.0,0.0,0.0,0.0,1.0,0.0,0.0,0.0,1.0,0.196324536133,-0.751779321289,10.2519715088,1.0,0.0,0.0,0.0,1.0,0.0,0.0,0.0,1.0
1464075907465912829,578,1464075907176108189,,4.26596164703,-7.77655124664,-161.370941162,0.00479299994186,1.0,0.0,0.0,0.0,1.0,0.0,0.0,0.0,1.0,-0.426829278469,3.84146332741,-0.12195122242,1.0,0.0,0.0,0.0,1.0,0.0,0.0,0.0,1.0,0.210689746094,-0.751779321289,10.2615483154,1.0,0.0,0.0,0.0,1.0,0.0,0.0,0.0,1.0
1464075907465948089,579,1464075907195461523,,4.30505514145,-7.76496553421,-162.5493927,0.0012379999971,1.0,0.0,0.0,0.0,1.0,0.0,0.0,0.0,1.0,-0.548780500889,3.96341490746,0.12195122242,1.0,0.0,0.0,0.0,1.0,0.0,0.0,0.0,1.0,0.0574608398438,-0.670376464844,10.299855542,1.0,0.0,0.0,0.0,1.0,0.0,0.0,0.0,1.0
1464075907465982152,580,1464075907217370214,,4.359167099,-7.75783634186,-163.738220215,0.0012080000015,1.0,0.0,0.0,0.0,1.0,0.0,0.0,0.0,1.0,-0.548780500889,4.51219558716,0.426829278469,1.0,0.0,0.0,0.0,1.0,0.0,0.0,0.0,1.0,0.100556469727,-0.785298144531,10.2136642822,1.0,0.0,0.0,0.0,1.0,0.0,0.0,0.0,1.0
1464075907466020329,581,1464075907239076927,,4.41267251968,-7.7481637001,-164.933410645,0.00126499996986,1.0,0.0,0.0,0.0,1.0,0.0,0.0,0.0,1.0,-0.365853667259,4.75609779358,0.18292683363,1.0,0.0,0.0,0.0,1.0,0.0,0.0,0.0,1.0,0.0718260498047,-0.632069238281,10.299855542,1.0,0.0,0.0,0.0,1.0,0.0,0.0,0.0,1.0
1464075907466055902,582,1464075907259225623,,4.47300338745,-7.74187517166,-166.151260376,0.00150500005111,1.0,0.0,0.0,0.0,1.0,0.0,0.0,0.0,1.0,-0.487804889679,4.93902444839,0.304878056049,1.0,0.0,0.0,0.0,1.0,0.0,0.0,0.0,1.0,0.0191536132812,-0.636857641602,10.0652237793,1.0,0.0,0.0,0.0,1.0,0.0,0.0,0.0,1.0
1464075907475407908,583,1464075907280779836,,4.54050254822,-7.73620128632,-167.358093262,0.00117199996021,1.0,0.0,0.0,0.0,1.0,0.0,0.0,0.0,1.0,-0.731707334518,5.30487823486,0.365853667259,1.0,0.0,0.0,0.0,1.0,0.0,0.0,0.0,1.0,0.0526724365234,-0.718260498047,10.3285859619,1.0,0.0,0.0,0.0,1.0,0.0,0.0,0.0,1.0
1464075907480014041,584,1464075907301414416,,4.60651397705,-7.73886156082,-168.51763916,0.00116400001571,1.0,0.0,0.0,0.0,1.0,0.0,0.0,0.0,1.0,-0.18292683363,5.36585378647,0.487804889679,1.0,0.0,0.0,0.0,1.0,0.0,0.0,0.0,1.0,0.0526724365234,-0.799663354492,10.285490332,1.0,0.0,0.0,0.0,1.0,0.0,0.0,0.0,1.0
1464075907480123676,585,1464075907322845869,,4.68279600143,-7.73926401138,-169.726654053,0.00117399997544,1.0,0.0,0.0,0.0,1.0,0.0,0.0,0.0,1.0,-0.670731723309,6.15853643417,0.243902444839,1.0,0.0,0.0,0.0,1.0,0.0,0.0,0.0,1.0,-0.0718260498047,-0.703895288086,10.2280294922,1.0,0.0,0.0,0.0,1.0,0.0,0.0,0.0,1.0
1464075907480256332,586,1464075907344468207,,4.77498435974,-7.74544858932,-170.93977356,0.001215999946,1.0,0.0,0.0,0.0,1.0,0.0,0.0,0.0,1.0,-0.487804889679,6.46341466904,0.304878056049,1.0,0.0,0.0,0.0,1.0,0.0,0.0,0.0,1.0,-0.0287304199219,-0.694318481445,10.2136642822,1.0,0.0,0.0,0.0,1.0,0.0,0.0,0.0,1.0
1464075907480305030,587,1464075907365309140,,4.87619352341,-7.75262737274,-172.111358643,0.0011569999624,1.0,0.0,0.0,0.0,1.0,0.0,0.0,0.0,1.0,-0.670731723309,6.52439069748,0.426829278469,1.0,0.0,0.0,0.0,1.0,0.0,0.0,0.0,1.0,-0.00957680664062,-0.713472094727,10.3429511719,1.0,0.0,0.0,0.0,1.0,0.0,0.0,0.0,1.0
1464075907480506071,588,1464075907386297626,,4.97552919388,-7.76082706451,-173.294158936,0.00116800004616,1.0,0.0,0.0,0.0,1.0,0.0,0.0,0.0,1.0,-0.609756112099,5.97560977936,0.365853667259,1.0,0.0,0.0,0.0,1.0,0.0,0.0,0.0,1.0,-0.138863696289,-0.742202514648,10.1466266357,1.0,0.0,0.0,0.0,1.0,0.0,0.0,0.0,1.0
1464075907480647633,589,1464075907409102617,,5.06959247589,-7.77292966843,-174.590423584,0.00710400007665,1.0,0.0,0.0,0.0,1.0,0.0,0.0,0.0,1.0,-0.548780500889,5.18292713165,0.12195122242,1.0,0.0,0.0,0.0,1.0,0.0,0.0,0.0,1.0,-0.196324536133,-0.785298144531,10.2423947021,1.0,0.0,0.0,0.0,1.0,0.0,0.0,0.0,1.0
1464075907481138049,590,1464075907430025113,,5.1402387619,-7.78402757645,-175.765289307,0.00139800005127,1.0,0.0,0.0,0.0,1.0,0.0,0.0,0.0,1.0,-0.609756112099,4.87804889679,0.365853667259,1.0,0.0,0.0,0.0,1.0,0.0,0.0,0.0,1.0,-0.0814028564453,-0.785298144531,10.2471831055,1.0,0.0,0.0,0.0,1.0,0.0,0.0,0.0,1.0
1464075907483655438,591,1464075907450950994,,5.20501375198,-7.7971367836,-176.94833374,0.00135100004263,1.0,0.0,0.0,0.0,1.0,0.0,0.0,0.0,1.0,-0.609756112099,4.93902444839,0.243902444839,1.0,0.0,0.0,0.0,1.0,0.0,0.0,0.0,1.0,-0.196324536133,-0.732625708008,10.2040874756,1.0,0.0,0.0,0.0,1.0,0.0,0.0,0.0,1.0
1464075907728009887,592,1464075907471605678,,5.26107215881,-7.80439424515,-178.116439819,0.00122400000691,1.0,0.0,0.0,0.0,1.0,0.0,0.0,0.0,1.0,-0.487804889679,4.02439022064,-0.18292683363,1.0,0.0,0.0,0.0,1.0,0.0,0.0,0.0,1.0,-0.172382519531,-0.588973571866,10.2567599121,1.0,0.0,0.0,0.0,1.0,0.0,0.0,0.0,1.0
1464075907728209313,593,1464075907492160832,,5.31326723099,-7.81198263168,-179.26612854,0.00150599994231,1.0,0.0,0.0,0.0,1.0,0.0,0.0,0.0,1.0,-0.487804889679,3.35365867615,0.609756112099,1.0,0.0,0.0,0.0,1.0,0.0,0.0,0.0,1.0,-0.239420166016,-0.76135612793,10.1753570557,1.0,0.0,0.0,0.0,1.0,0.0,0.0,0.0,1.0
1464075907728258480,594,1464075907513544993,,5.34815120697,-7.82153987885,179.532089233,0.00136899994686,1.0,0.0,0.0,0.0,1.0,0.0,0.0,0.0,1.0,-0.426829278469,2.56097555161,0.18292683363,1.0,0.0,0.0,0.0,1.0,0.0,0.0,0.0,1.0,-0.272938989258,-0.684741674805,10.1992990723,1.0,0.0,0.0,0.0,1.0,0.0,0.0,0.0,1.0
1464075907728295667,595,1464075907536393734,,5.35175991058,-7.83120918274,178.263290405,0.0106389997527,1.0,0.0,0.0,0.0,1.0,0.0,0.0,0.0,1.0,-0.304878056049,0.975609779358,0.18292683363,1.0,0.0,0.0,0.0,1.0,0.0,0.0,0.0,1.0,-0.181959326172,-0.718260498047,10.2423947021,1.0,0.0,0.0,0.0,1.0,0.0,0.0,0.0,1.0
1464075907729145821,596,1464075907557886593,,5.33990907669,-7.84152698517,177.060440063,0.0014009999577,1.0,0.0,0.0,0.0,1.0,0.0,0.0,0.0,1.0,-0.304878056049,0.304878056049,-0.18292683363,1.0,0.0,0.0,0.0,1.0,0.0,0.0,0.0,1.0,-0.210689746094,-0.718260498047,10.2040874756,1.0,0.0,0.0,0.0,1.0,0.0,0.0,0.0,1.0
1464075907729573945,597,1464075907579301223,,5.30662345886,-7.84348535538,175.849945068,0.00146499997936,1.0,0.0,0.0,0.0,1.0,0.0,0.0,0.0,1.0,-0.0609756112099,-0.853658556938,-0.304878056049,1.0,0.0,0.0,0.0,1.0,0.0,0.0,0.0,1.0,-0.225054956055,-0.727837304687,10.0700121826,1.0,0.0,0.0,0.0,1.0,0.0,0.0,0.0,1.0
1464075907730292797,598,1464075907600581895,,5.24952220917,-7.84173583984,174.675415039,0.00117800000589,1.0,0.0,0.0,0.0,1.0,0.0,0.0,0.0,1.0,-0.12195122242,-0.975609779358,-0.0609756112099,1.0,0.0,0.0,0.0,1.0,0.0,0.0,0.0,1.0,-0.143652099609,-0.598550451572,10.1992990723,1.0,0.0,0.0,0.0,1.0,0.0,0.0,0.0,1.0
1464075907730510453,599,1464075907627867186,,5.18787670135,-7.8388710022,173.539016724,0.00130000000354,1.0,0.0,0.0,0.0,1.0,0.0,0.0,0.0,1.0,-0.0609756112099,-1.03658533096,0.18292683363,1.0,0.0,0.0,0.0,1.0,0.0,0.0,0.0,1.0,-0.0526724365234,-0.713472094727,10.1753570557,1.0,0.0,0.0,0.0,1.0,0.0,0.0,0.0,1.0
1464075907730552692,600,1464075907641385796,,5.11641073227,-7.83920526505,172.386032104,0.00121999997646,1.0,0.0,0.0,0.0,1.0,0.0,0.0,0.0,1.0,0.0609756112099,-1.8902438879,-0.609756112099,1.0,0.0,0.0,0.0,1.0,0.0,0.0,0.0,1.0,-0.110133276367,-0.713472094727,10.1562034424,1.0,0.0,0.0,0.0,1.0,0.0,0.0,0.0,1.0
1464075907730592223,601,1464075907662767562,,5.03608608246,-7.83744001389,171.180786133,0.00113500002772,1.0,0.0,0.0,0.0,1.0,0.0,0.0,0.0,1.0,-0.0609756112099,-2.31707310677,-0.731707334518,1.0,0.0,0.0,0.0,1.0,0.0,0.0,0.0,1.0,-0.225054956055,-0.703895288086,10.2807019287,1.0,0.0,0.0,0.0,1.0,0.0,0.0,0.0,1.0
1464075907730630088,602,1464075907684197348,,4.95213794708,-7.81915712357,169.989227295,0.00126599997748,1.0,0.0,0.0,0.0,1.0,0.0,0.0,0.0,1.0,0.18292683363,-1.8902438879,0.426829278469,1.0,0.0,0.0,0.0,1.0,0.0,0.0,0.0,1.0,-0.215478149414,-0.162805712891,10.3477395752,1.0,0.0,0.0,0.0,1.0,0.0,0.0,0.0,1.0
1464075908638709528,603,1464075907704695001,,4.92345619202,-7.53993988037,168.879058838,0.00129799998831,1.0,0.0,0.0,0.0,1.0,0.0,0.0,0.0,1.0,8.71951198578,-9.75609779358,-2.43902444839,1.0,0.0,0.0,0.0,1.0,0.0,0.0,0.0,1.0,-0.991199487305,3.27526787109,8.56166572124,1.0,0.0,0.0,0.0,1.0,0.0,0.0,0.0,1.0
1464075908639229943,604,1464075907726115517,,4.69627094269,-7.48987960815,167.732635498,0.00906699988991,1.0,0.0,0.0,0.0,1.0,0.0,0.0,0.0,1.0,0.365853667259,1.70731711388,-1.76829278469,1.0,0.0,0.0,0.0,1.0,0.0,0.0,0.0,1.0,4.63038601074,-0.972045874023,9.67736311035,1.0,0.0,0.0,0.0,1.0,0.0,0.0,0.0,1.0
1464075908639790723,605,1464075907747790094,,4.6347322464,-7.3732047081,166.538864136,0.00132399995346,1.0,0.0,0.0,0.0,1.0,0.0,0.0,0.0,1.0,20.4268302917,-4.32926845551,-6.34146356583,1.0,0.0,0.0,0.0,1.0,0.0,0.0,0.0,1.0,-1.36469494629,9.70130512695,11.9279126709,1.0,0.0,0.0,0.0,1.0,0.0,0.0,0.0,1.0
1464075908640110097,606,1464075907768611549,,4.48828744888,-7.29471826553,165.362350464,0.00122600002214,1.0,0.0,0.0,0.0,1.0,0.0,0.0,0.0,1.0,4.39024400711,-5.91463422775,-0.975609779358,1.0,0.0,0.0,0.0,1.0,0.0,0.0,0.0,1.0,1.33117612305,-3.07894333496,12.765883252,1.0,0.0,0.0,0.0,1.0,0.0,0.0,0.0,1.0
1464075908640385930,607,1464075907789111494,,4.48172664642,-6.86945676804,164.223922729,0.00133600004483,1.0,0.0,0.0,0.0,1.0,0.0,0.0,0.0,1.0,-6.95121955872,-2.74390244484,0.975609779358,1.0,0.0,0.0,0.0,1.0,0.0,0.0,0.0,1.0,-0.565031591797,-2.55221896973,14.4657664307,1.0,0.0,0.0,0.0,1.0,0.0,0.0,0.0,1.0
1464075908640637439,608,1464075907810249614,,4.33148574829,-6.53878736496,163.169143677,0.00118999998085,1.0,0.0,0.0,0.0,1.0,0.0,0.0,0.0,1.0,1.95121955872,-13.3536586761,9.75609779358,1.0,0.0,0.0,0.0,1.0,0.0,0.0,0.0,1.0,-2.32716386754,12.9286889648,0.900219824219,1.0,0.0,0.0,0.0,1.0,0.0,0.0,0.0,1.0
1464075908641967696,609,1464075907839002714,,4.31298303604,-7.32215499878,161.415756226,0.0103860003874,1.0,0.0,0.0,0.0,1.0,0.0,0.0,0.0,1.0,-2.68292689323,35.6097564697,-11.1585359573,1.0,0.0,0.0,0.0,1.0,0.0,0.0,0.0,1.0,5.88973608398,-12.5168862793,9.43315395649,1.0,0.0,0.0,0.0,1.0,0.0,0.0,0.0,1.0
1464075908642473268,610,1464075907860197813,,4.31727981567,-7.04064178467,160.364776611,0.00180199998431,1.0,0.0,0.0,0.0,1.0,0.0,0.0,0.0,1.0,-21.0365848541,3.04878044128,-11.4024391174,1.0,0.0,0.0,0.0,1.0,0.0,0.0,0.0,1.0,-2.93050283203,-4.50109912109,9.87368764648,1.0,0.0,0.0,0.0,1.0,0.0,0.0,0.0,1.0
1464075908642864204,611,1464075907881326298,,4.05255413055,-6.86456251144,159.255813599,0.0012309999438,1.0,0.0,0.0,0.0,1.0,0.0,0.0,0.0,1.0,-8.04878044128,0.12195122242,-1.46341466904,1.0,0.0,0.0,0.0,1.0,0.0,0.0,0.0,1.0,1.43652099609,-1.28808049316,5.39653054199,1.0,0.0,0.0,0.0,1.0,0.0,0.0,0.0,1.0
1464075908643126860,612,1464075907902469158,,3.95764875412,-7.13722515106,158.005355835,0.00122900004499,1.0,0.0,0.0,0.0,1.0,0.0,0.0,0.0,1.0,34.9390258789,-10.3048782349,1.95121955872,1.0,0.0,0.0,0.0,1.0,0.0,0.0,0.0,1.0,-0.847547387695,-2.49475812988,14.8584155029,1.0,0.0,0.0,0.0,1.0,0.0,0.0,0.0,1.0
1464075908643401807,613,1464075907923590248,,3.78813672066,-6.86631822586,156.812133789,0.00123399996664,1.0,0.0,0.0,0.0,1.0,0.0,0.0,0.0,1.0,12.8658542633,-17.0121955872,-0.12195122242,1.0,0.0,0.0,0.0,1.0,0.0,0.0,0.0,1.0,0.124498486328,3.36145913086,11.1234609131,1.0,0.0,0.0,0.0,1.0,0.0,0.0,0.0,1.0
1464075908643791025,614,1464075907944757639,,3.37901043892,-6.74629163742,155.662322998,0.00141300004907,1.0,0.0,0.0,0.0,1.0,0.0,0.0,0.0,1.0,5.48780488968,-9.26829242706,-3.53658556938,1.0,0.0,0.0,0.0,1.0,0.0,0.0,0.0,1.0,-0.138863696289,-1.01035310059,7.60398447266,1.0,0.0,0.0,0.0,1.0,0.0,0.0,0.0,1.0
1464075908644857220,615,1464075907965215032,,3.25389242172,-6.17963600159,154.556640625,0.00136700004805,1.0,0.0,0.0,0.0,1.0,0.0,0.0,0.0,1.0,6.95121955872,-7.86585378647,0.243902444839,1.0,0.0,0.0,0.0,1.0,0.0,0.0,0.0,1.0,0.579396801758,6.2009822998,8.18338127441,1.0,0.0,0.0,0.0,1.0,0.0,0.0,0.0,1.0
1464075908670044131,616,1464075907988903406,,3.03853130341,-5.63808012009,153.34336853,0.00576800014824,1.0,0.0,0.0,0.0,1.0,0.0,0.0,0.0,1.0,-12.8048782349,-8.96341514587,4.02439022064,1.0,0.0,0.0,0.0,1.0,0.0,0.0,0.0,1.0,0.957680664062,5.73650717773,7.6853873291,1.0,0.0,0.0,0.0,1.0,0.0,0.0,0.0,1.0
1464075908671319909,617,1464075908009388611,,2.90677237511,-5.53685474396,152.274642944,0.0015419999836,1.0,0.0,0.0,0.0,1.0,0.0,0.0,0.0,1.0,22.0731716156,-8.23170757294,0.853658556938,1.0,0.0,0.0,0.0,1.0,0.0,0.0,0.0,1.0,2.77248552246,0.60812722168,16.2470536349,1.0,0.0,0.0,0.0,1.0,0.0,0.0,0.0,1.0
1464075908672216365,618,1464075908030144858,,2.74521636963,-4.83534002304,151.200241089,0.001200000057,1.0,0.0,0.0,0.0,1.0,0.0,0.0,0.0,1.0,-22.1951236725,-15.6097564697,-0.304878056049,1.0,0.0,0.0,0.0,1.0,0.0,0.0,0.0,1.0,-0.205901342773,6.98149204102,11.6645504883,1.0,0.0,0.0,0.0,1.0,0.0,0.0,0.0,1.0
1464075908674367818,619,1464075908051767560,,2.47822880745,-5.13569688797,150.105453491,0.00125700002536,1.0,0.0,0.0,0.0,1.0,0.0,0.0,0.0,1.0,14.3292694092,-2.13414645195,1.2195122242,1.0,0.0,0.0,0.0,1.0,0.0,0.0,0.0,1.0,1.38863696289,-6.742071875,18.1001645508,1.0,0.0,0.0,0.0,1.0,0.0,0.0,0.0,1.0
1464075908675034795,620,1464075908074528280,,2.21611022949,-4.10613298416,149.097335815,0.00344599992968,1.0,0.0,0.0,0.0,1.0,0.0,0.0,0.0,1.0,-42.9268302917,-4.69512224197,5.12195110321,1.0,0.0,0.0,0.0,1.0,0.0,0.0,0.0,1.0,1.56101948242,2.39899020961,13.843273999,1.0,0.0,0.0,0.0,1.0,0.0,0.0,0.0,1.0
1464075908675348180,621,1464075908098301654,,2.04222035408,-3.90386819839,148.001708984,0.00236100004986,1.0,0.0,0.0,0.0,1.0,0.0,0.0,0.0,1.0,-11.2804880142,-16.2195110321,3.53658556938,1.0,0.0,0.0,0.0,1.0,0.0,0.0,0.0,1.0,-1.97282216797,-6.69897624512,9.05965908203,1.0,0.0,0.0,0.0,1.0,0.0,0.0,0.0,1.0
1464075908675663804,622,1464075908117747435,,1.82012021542,-3.22611236572,146.902832031,0.00238700001501,1.0,0.0,0.0,0.0,1.0,0.0,0.0,0.0,1.0,-45.365852356,-15.548781395,3.71951246262,1.0,0.0,0.0,0.0,1.0,0.0,0.0,0.0,1.0,-1.46525141602,12.7467296387,12.1864864502,1.0,0.0,0.0,0.0,1.0,0.0,0.0,0.0,1.0
1464075908675909272,623,1464075908138559880,,1.54044163227,-3.16721010208,145.810165405,0.00117199996021,1.0,0.0,0.0,0.0,1.0,0.0,0.0,0.0,1.0,-24.7560977936,-21.6463432312,3.96341490746,1.0,0.0,0.0,0.0,1.0,0.0,0.0,0.0,1.0,1.54186586914,1.47482822266,4.33350529714,1.0,0.0,0.0,0.0,1.0,0.0,0.0,0.0,1.0
1464075908675959636,624,1464075908159901854,,1.26536357403,-2.65482616425,144.733062744,0.00149299995974,1.0,0.0,0.0,0.0,1.0,0.0,0.0,0.0,1.0,-24.3292694092,-14.3902444839,-2.74390244484,1.0,0.0,0.0,0.0,1.0,0.0,0.0,0.0,1.0,-2.58573779297,6.60799658203,17.6835722929,1.0,0.0,0.0,0.0,1.0,0.0,0.0,0.0,1.0
1464075908676430833,625,1464075908181036484,,0.775006532669,-2.50908875465,143.773925781,0.00280299992301,1.0,0.0,0.0,0.0,1.0,0.0,0.0,0.0,1.0,37.8048782349,-19.4512195587,14.6341466904,1.0,0.0,0.0,0.0,1.0,0.0,0.0,0.0,1.0,2.36068269078,4.80276882253,10.5680061279,1.0,0.0,0.0,0.0,1.0,0.0,0.0,0.0,1.0
1464075908676781666,626,1464075908201514242,,0.451848745346,-2.33824515343,143.042953491,0.00122500001453,1.0,0.0,0.0,0.0,1.0,0.0,0.0,0.0,1.0,12.9268293381,-14.1463422775,16.158536911,1.0,0.0,0.0,0.0,1.0,0.0,0.0,0.0,1.0,1.73819040527,-6.72291826172,15.9166526367,1.0,0.0,0.0,0.0,1.0,0.0,0.0,0.0,1.0
1464075908677426976,627,1464075908222746789,,0.256471037865,-1.93600082397,142.388824463,0.00138699996751,1.0,0.0,0.0,0.0,1.0,0.0,0.0,0.0,1.0,26.5853652954,0.914634168148,20.3048782349,1.0,0.0,0.0,0.0,1.0,0.0,0.0,0.0,1.0,-7.60877287598,-5.21457121582,14.7003981934,1.0,0.0,0.0,0.0,1.0,0.0,0.0,0.0,1.0
1464075908678618119,628,1464075908244002878,,0.0808107405901,-1.29453575611,141.804336548,0.00135300005786,1.0,0.0,0.0,0.0,1.0,0.0,0.0,0.0,1.0,-33.5365867615,4.08536577225,25.7317085266,1.0,0.0,0.0,0.0,1.0,0.0,0.0,0.0,1.0,-6.82826313477,-3.06936652832,8.74362446289,1.0,0.0,0.0,0.0,1.0,0.0,0.0,0.0,1.0
1464075908679208951,629,1464075908264674073,,0.0314616411924,-0.888096928596,141.216690063,0.00140599999577,1.0,0.0,0.0,0.0,1.0,0.0,0.0,0.0,1.0,-27.1951236725,-17.0121955872,23.9634151459,1.0,0.0,0.0,0.0,1.0,0.0,0.0,0.0,1.0,-2.09253210485,3.94564433594,13.3740104736,1.0,0.0,0.0,0.0,1.0,0.0,0.0,0.0,1.0
1464075908679537700,630,1464075908288761300,,-0.644761502743,-0.535110712051,140.638031006,0.00670500006527,1.0,0.0,0.0,0.0,1.0,0.0,0.0,0.0,1.0,115.609764099,-65.2439041138,26.158536911,1.0,0.0,0.0,0.0,1.0,0.0,0.0,0.0,1.0,2.22660754395,-19.2254393311,19.0099623507,1.0,0.0,0.0,0.0,1.0,0.0,0.0,0.0,1.0
1464075908679874991,631,1464075908309277911,,-1.31820416451,1.26983642578,140.349395752,0.0014600000577,1.0,0.0,0.0,0.0,1.0,0.0,0.0,0.0,1.0,57.6219482422,-44.390247345,53.0487823486,1.0,0.0,0.0,0.0,1.0,0.0,0.0,0.0,1.0,0.952892260742,15.8639802002,19.9484882324,1.0,0.0,0.0,0.0,1.0,0.0,0.0,0.0,1.0
1464075908681803058,632,1464075908330312751,,-1.81172573566,0.84631383419,140.19418335,0.00132200005464,1.0,0.0,0.0,0.0,1.0,0.0,0.0,0.0,1.0,-2.62195134163,-17.6219520569,46.9512214661,1.0,0.0,0.0,0.0,1.0,0.0,0.0,0.0,1.0,-2.25054956055,-6.13394465332,1.48919343262,1.0,0.0,0.0,0.0,1.0,0.0,0.0,0.0,1.0
1464075908682231234,633,1464075908351932484,,-2.2855694294,1.38359868526,140.042816162,0.00128500000574,1.0,0.0,0.0,0.0,1.0,0.0,0.0,0.0,1.0,-2.43902444839,-27.4390258789,64.0853729248,1.0,0.0,0.0,0.0,1.0,0.0,0.0,0.0,1.0,3.7253777832,11.9422778809,-2.10689731481,1.0,0.0,0.0,0.0,1.0,0.0,0.0,0.0,1.0
1464075908682749670,634,1464075908373415812,,-2.67901396751,2.18064904213,140.007995605,0.0012529999949,1.0,0.0,0.0,0.0,1.0,0.0,0.0,0.0,1.0,19.4512195587,-21.9512195587,50.9756088257,1.0,0.0,0.0,0.0,1.0,0.0,0.0,0.0,1.0,0.790086547852,6.64151540527,5.88973608398,1.0,0.0,0.0,0.0,1.0,0.0,0.0,0.0,1.0
1464075908682800712,635,1464075908395272941,,-2.85465168953,2.31159186363,139.994430542,0.00158499996178,1.0,0.0,0.0,0.0,1.0,0.0,0.0,0.0,1.0,-2.86585378647,-13.5975618362,47.5609779358,1.0,0.0,0.0,0.0,1.0,0.0,0.0,0.0,1.0,1.24019645996,-3.72058937988,13.0388222412,1.0,0.0,0.0,0.0,1.0,0.0,0.0,0.0,1.0
1464075908682840660,636,1464075908416587780,,-3.18746256828,2.83781909943,140.069290161,0.00412600021809,1.0,0.0,0.0,0.0,1.0,0.0,0.0,0.0,1.0,8.71951198578,-2.62195134163,53.3536605835,1.0,0.0,0.0,0.0,1.0,0.0,0.0,0.0,1.0,4.76924999929,-7.10120212402,25.74245625,1.0,0.0,0.0,0.0,1.0,0.0,0.0,0.0,1.0
1464075908683244773,637,1464075908437092412,,-3.04391646385,4.11159133911,139.923675537,0.00124999997206,1.0,0.0,0.0,0.0,1.0,0.0,0.0,0.0,1.0,-90.792678833,42.8048782349,20.7317085266,1.0,0.0,0.0,0.0,1.0,0.0,0.0,0.0,1.0,4.2329482429,-2.34631748082,18.8519438721,1.0,0.0,0.0,0.0,1.0,0.0,0.0,0.0,1.0
1464075908683538470,638,1464075908458975739,,-2.06366825104,3.43698239326,139.419265747,0.00134800001979,1.0,0.0,0.0,0.0,1.0,0.0,0.0,0.0,1.0,-107.621955872,44.6951217651,25.0609760284,1.0,0.0,0.0,0.0,1.0,0.0,0.0,0.0,1.0,-3.59609089355,-10.3094323486,-0.593762048251,1.0,0.0,0.0,0.0,1.0,0.0,0.0,0.0,1.0
1464075908683981750,639,1464075908479985995,,-1.27244257927,3.96518015862,138.792007446,0.00139200000558,1.0,0.0,0.0,0.0,1.0,0.0,0.0,0.0,1.0,87.9878082275,8.96341514587,30.6097583771,1.0,0.0,0.0,0.0,1.0,0.0,0.0,0.0,1.0,-0.134075302102,-1.52750065918,20.3650793213,1.0,0.0,0.0,0.0,1.0,0.0,0.0,0.0,1.0
1464075908684456957,640,1464075908501728906,,-0.954545676708,4.58908748627,138.395614624,0.00119500001892,1.0,0.0,0.0,0.0,1.0,0.0,0.0,0.0,1.0,107.195121765,-25.2439041138,33.5975608826,1.0,0.0,0.0,0.0,1.0,0.0,0.0,0.0,1.0,-1.28808049316,5.54975944824,15.5048499512,1.0,0.0,0.0,0.0,1.0,0.0,0.0,0.0,1.0
1464075908686881691,641,1464075908522677756,,-0.791209578514,4.80932283401,138.178161621,0.00130999996327,1.0,0.0,0.0,0.0,1.0,0.0,0.0,0.0,1.0,62.5609779358,2.80487799644,57.3780479431,1.0,0.0,0.0,0.0,1.0,0.0,0.0,0.0,1.0,2.24576115723,13.6421610596,3.7493197998,1.0,0.0,0.0,0.0,1.0,0.0,0.0,0.0,1.0
1464075908687619918,642,1464075908543443586,,-0.156895086169,5.38367700577,137.943634033,0.00132100004703,1.0,0.0,0.0,0.0,1.0,0.0,0.0,0.0,1.0,-8.41463470459,15.6707315445,42.1951255798,1.0,0.0,0.0,0.0,1.0,0.0,0.0,0.0,1.0,-5.09486113281,7.66623371582,1.02471831055,1.0,0.0,0.0,0.0,1.0,0.0,0.0,0.0,1.0
1464075908687959813,643,1464075908564452592,,0.173088356853,5.77343940735,137.775177002,0.00128800002858,1.0,0.0,0.0,0.0,1.0,0.0,0.0,0.0,1.0,-18.2317085266,25.3048782349,43.9634170532,1.0,0.0,0.0,0.0,1.0,0.0,0.0,0.0,1.0,-2.77248552246,-5.42047255859,3.76847341309,1.0,0.0,0.0,0.0,1.0,0.0,0.0,0.0,1.0
1464075908688268926,644,1464075908585434827,,0.860081493855,6.54131174088,137.684890747,0.00126699998509,1.0,0.0,0.0,0.0,1.0,0.0,0.0,0.0,1.0,-148.231704712,61.0365905762,50.1219520569,1.0,0.0,0.0,0.0,1.0,0.0,0.0,0.0,1.0,2.85388837891,37.9768267334,12.4690022461,1.0,0.0,0.0,0.0,1.0,0.0,0.0,0.0,1.0
1464075908688859133,645,1464075908606254407,,2.14422941208,5.84932136536,137.432800293,0.0013119999785,1.0,0.0,0.0,0.0,1.0,0.0,0.0,0.0,1.0,45.182926178,52.1951255798,36.9512214661,1.0,0.0,0.0,0.0,1.0,0.0,0.0,0.0,1.0,3.40934316406,-3.90254870605,9.38048151997,1.0,0.0,0.0,0.0,1.0,0.0,0.0,0.0,1.0
1464075908689476736,646,1464075908626446748,,3.37155747414,6.09767866135,137.283905029,0.001200000057,1.0,0.0,0.0,0.0,1.0,0.0,0.0,0.0,1.0,-51.2195129395,65.4878082275,30.1829280853,1.0,0.0,0.0,0.0,1.0,0.0,0.0,0.0,1.0,2.63362182617,1.4844050293,17.7697635526,1.0,0.0,0.0,0.0,1.0,0.0,0.0,0.0,1.0
1464075908689888766,647,1464075908647155287,,5.00862312317,5.83260726929,136.864776611,0.00116200000048,1.0,0.0,0.0,0.0,1.0,0.0,0.0,0.0,1.0,-44.2682914734,92.134147644,28.1097564697,1.0,0.0,0.0,0.0,1.0,0.0,0.0,0.0,1.0,0.0383072265625,-4.89374819336,21.7680814941,1.0,0.0,0.0,0.0,1.0,0.0,0.0,0.0,1.0
1464075908779195610,648,1464075908668088772,,6.45321273804,7.88704824448,136.584564209,0.00111800001469,1.0,0.0,0.0,0.0,1.0,0.0,0.0,0.0,1.0,-117.804878235,48.2317085266,39.1463432312,1.0,0.0,0.0,0.0,1.0,0.0,0.0,0.0,1.0,8.06367119141,31.4693866211,-15.9070758301,1.0,0.0,0.0,0.0,1.0,0.0,0.0,0.0,1.0
1464075908781956904,649,1464075908688796633,,8.40575122833,6.20688486099,135.926620483,0.00124899996445,1.0,0.0,0.0,0.0,1.0,0.0,0.0,0.0,1.0,155.548782349,48.6585388184,-3.53658556938,1.0,0.0,0.0,0.0,1.0,0.0,0.0,0.0,1.0,4.50109912109,2.87304199219,22.2564986328,1.0,0.0,0.0,0.0,1.0,0.0,0.0,0.0,1.0
1464075908782563934,650,1464075908710297044,,9.96992397308,6.58109235764,135.419525146,0.00160600000527,1.0,0.0,0.0,0.0,1.0,0.0,0.0,0.0,1.0,34.1463432312,64.2682952881,7.80487823486,1.0,0.0,0.0,0.0,1.0,0.0,0.0,0.0,1.0,-0.512359155273,11.6837041016,8.77714328613,1.0,0.0,0.0,0.0,1.0,0.0,0.0,0.0,1.0
1464075908782883256,651,1464075908731218499,,11.3065080643,7.12230348587,134.591369629,0.00122400000691,1.0,0.0,0.0,0.0,1.0,0.0,0.0,0.0,1.0,-39.8780479431,75.4268341064,10.7926826477,1.0,0.0,0.0,0.0,1.0,0.0,0.0,0.0,1.0,4.5250411377,13.2686656006,-17.415422876,1.0,0.0,0.0,0.0,1.0,0.0,0.0,0.0,1.0
1464075908783168099,652,1464075908751901204,,13.1163015366,5.36368989944,133.607955933,0.00117099995259,1.0,0.0,0.0,0.0,1.0,0.0,0.0,0.0,1.0,130.548782349,7.74390268326,-4.39024400711,1.0,0.0,0.0,0.0,1.0,0.0,0.0,0.0,1.0,-9.1219083252,-0.392649072266,-2.50912333984,1.0,0.0,0.0,0.0,1.0,0.0,0.0,0.0,1.0
1464075908783450911,653,1464075908772758752,,13.9913282394,5.34448814392,132.602279663,0.00119400001131,1.0,0.0,0.0,0.0,1.0,0.0,0.0,0.0,1.0,-43.1707305908,43.9634170532,-1.76829278469,1.0,0.0,0.0,0.0,1.0,0.0,0.0,0.0,1.0,-0.31124621582,25.2396739014,2.31758720703,1.0,0.0,0.0,0.0,1.0,0.0,0.0,0.0,1.0
1464075908953927954,654,1464075908793460155,,15.0915870667,3.92685127258,131.066925049,0.00123399996664,1.0,0.0,0.0,0.0,1.0,0.0,0.0,0.0,1.0,-36.7682952881,65.7317047119,-16.8292694092,1.0,0.0,0.0,0.0,1.0,0.0,0.0,0.0,1.0,3.45722719727,-20.8774384766,27.6338755615,1.0,0.0,0.0,0.0,1.0,0.0,0.0,0.0,1.0
1464075908954185088,655,1464075908814877076,,15.6387300491,4.10590839386,129.378494263,0.00127000000793,1.0,0.0,0.0,0.0,1.0,0.0,0.0,0.0,1.0,-115.731712341,32.317073822,-52.5609779358,1.0,0.0,0.0,0.0,1.0,0.0,0.0,0.0,1.0,2.75333190918,-18.3491615234,16.2997249023,1.0,0.0,0.0,0.0,1.0,0.0,0.0,0.0,1.0
1464075908954459879,656,1464075908835584833,,16.0941638947,5.05355215073,127.601051331,0.00124400004279,1.0,0.0,0.0,0.0,1.0,0.0,0.0,0.0,1.0,-63.7804908752,3.90243911743,-49.4512176514,1.0,0.0,0.0,0.0,1.0,0.0,0.0,0.0,1.0,-2.62404501953,5.06613071289,-6.01423457031,1.0,0.0,0.0,0.0,1.0,0.0,0.0,0.0,1.0
1464075908954932586,657,1464075908856213164,,16.1085777283,4.92160892487,125.681663513,0.00121699995361,1.0,0.0,0.0,0.0,1.0,0.0,0.0,0.0,1.0,45.1219520569,-27.3780498505,-29.6341457367,1.0,0.0,0.0,0.0,1.0,0.0,0.0,0.0,1.0,-4.01747038574,0.76135612793,10.1035310059,1.0,0.0,0.0,0.0,1.0,0.0,0.0,0.0,1.0
1464075908955382689,658,1464075908876668421,,15.4231185913,4.80851364136,123.678848267,0.00119400001131,1.0,0.0,0.0,0.0,1.0,0.0,0.0,0.0,1.0,130.548782349,-82.8048782349,-35.3048782349,1.0,0.0,0.0,0.0,1.0,0.0,0.0,0.0,1.0,6.01423457031,-6.63672700195,13.6517378662,1.0,0.0,0.0,0.0,1.0,0.0,0.0,0.0,1.0
1464075908955687116,659,1464075908898284249,,14.7387657166,4.30309677124,121.661430359,0.00132299994584,1.0,0.0,0.0,0.0,1.0,0.0,0.0,0.0,1.0,33.5975608826,-94.3292694092,-53.1707305908,1.0,0.0,0.0,0.0,1.0,0.0,0.0,0.0,1.0,1.8626888916,-5.96156213379,7.97747993164,1.0,0.0,0.0,0.0,1.0,0.0,0.0,0.0,1.0
1464075908956027792,660,1464075908917851123,,13.1825342178,4.64196872711,119.536842346,0.0012150000548,1.0,0.0,0.0,0.0,1.0,0.0,0.0,0.0,1.0,31.7073192596,-93.2317123413,-30.0609760284,1.0,0.0,0.0,0.0,1.0,0.0,0.0,0.0,1.0,-3.68228215332,5.67425793457,-0.239420166016,1.0,0.0,0.0,0.0,1.0,0.0,0.0,0.0,1.0
1464075908980563768,661,1464075908943067149,,11.5969247818,4.57293987274,117.66242981,0.00134399998933,1.0,0.0,0.0,0.0,1.0,0.0,0.0,0.0,1.0,-40.3048782349,-108.048782349,-19.0243911743,1.0,0.0,0.0,0.0,1.0,0.0,0.0,0.0,1.0,-4.49152231445,7.18260498047,-5.65031591797,1.0,0.0,0.0,0.0,1.0,0.0,0.0,0.0,1.0
1464075908980857152,662,1464075908961325798,,9.60904884338,3.82998013496,115.709373474,0.00112599995919,1.0,0.0,0.0,0.0,1.0,0.0,0.0,0.0,1.0,105.487808228,-174.39024353,-23.1097564697,1.0,0.0,0.0,0.0,1.0,0.0,0.0,0.0,1.0,8.14028564453,29.180529834,10.0748005859,1.0,0.0,0.0,0.0,1.0,0.0,0.0,0.0,1.0
1464075909018884602,663,1464075908988458694,,7.61513757706,2.11650371552,113.778762817,0.00734400004148,1.0,0.0,0.0,0.0,1.0,0.0,0.0,0.0,1.0,-120.243904114,-101.951217651,-10.1829271317,1.0,0.0,0.0,0.0,1.0,0.0,0.0,0.0,1.0,-2.58094938965,20.2645228516,0.852335791016,1.0,0.0,0.0,0.0,1.0,0.0,0.0,0.0,1.0
1464075909019182310,664,1464075909009284576,,5.56351566315,1.32608520985,112.374389648,0.0028460000176,1.0,0.0,0.0,0.0,1.0,0.0,0.0,0.0,1.0,-40.6097564697,-77.2561035156,-14.0853662491,1.0,0.0,0.0,0.0,1.0,0.0,0.0,0.0,1.0,-0.708683691406,-6.74686027832,27.0927859863,1.0,0.0,0.0,0.0,1.0,0.0,0.0,0.0,1.0
1464075909068894156,665,1464075909029771969,,3.687946558,2.72963547707,111.319496155,0.00160399999004,1.0,0.0,0.0,0.0,1.0,0.0,0.0,0.0,1.0,-52.4390258789,-75.6097564697,1.52439022064,1.0,0.0,0.0,0.0,1.0,0.0,0.0,0.0,1.0,-4.903325,3.68707055664,20.6188646973,1.0,0.0,0.0,0.0,1.0,0.0,0.0,0.0,1.0
1464075909069935507,666,1464075909050032279,,1.88181853294,2.58165359497,110.354415894,0.00143299996853,1.0,0.0,0.0,0.0,1.0,0.0,0.0,0.0,1.0,-12.3170728683,-117.195121765,11.2804880142,1.0,0.0,0.0,0.0,1.0,0.0,0.0,0.0,1.0,-2.06380183105,-7.24964262695,7.4028715332,1.0,0.0,0.0,0.0,1.0,0.0,0.0,0.0,1.0
1464075909151878412,667,1464075909071880189,,-0.212894394994,3.81553006172,109.141853333,0.00146900000982,1.0,0.0,0.0,0.0,1.0,0.0,0.0,0.0,1.0,12.9878053665,-142.256103516,19.0853652954,1.0,0.0,0.0,0.0,1.0,0.0,0.0,0.0,1.0,-5.57848986816,13.7570827393,-5.66468112793,1.0,0.0,0.0,0.0,1.0,0.0,0.0,0.0,1.0
1464075909151949662,668,1464075909093126226,,-2.295586586,2.99158740044,108.001464844,0.00127899996005,1.0,0.0,0.0,0.0,1.0,0.0,0.0,0.0,1.0,218.719528198,-106.219520569,9.75609779358,1.0,0.0,0.0,0.0,1.0,0.0,0.0,0.0,1.0,3.71580097656,-10.2759135254,0.952892260742,1.0,0.0,0.0,0.0,1.0,0.0,0.0,0.0,1.0
1464075909152006485,669,1464075909114632210,,-4.52997303009,2.70650839806,107.22492981,0.00118599995039,1.0,0.0,0.0,0.0,1.0,0.0,0.0,0.0,1.0,171.158538818,-82.7439041138,39.5121955872,1.0,0.0,0.0,0.0,1.0,0.0,0.0,0.0,1.0,4.56334836426,-0.0814028564453,4.20421782297,1.0,0.0,0.0,0.0,1.0,0.0,0.0,0.0,1.0
1464075909152093516,670,1464075909136472777,,-6.41745376587,2.63585710526,106.56098175,0.00119800004177,1.0,0.0,0.0,0.0,1.0,0.0,0.0,0.0,1.0,190.60975647,-116.219512939,46.4024391174,1.0,0.0,0.0,0.0,1.0,0.0,0.0,0.0,1.0,10.9798088135,-13.7762363525,24.7225263428,1.0,0.0,0.0,0.0,1.0,0.0,0.0,0.0,1.0
1464075909193960227,671,1464075909156820326,,-8.55344390869,4.39688444138,106.17881012,0.00125700002536,1.0,0.0,0.0,0.0,1.0,0.0,0.0,0.0,1.0,-178.475616455,-74.8780441284,49.6951217651,1.0,0.0,0.0,0.0,1.0,0.0,0.0,0.0,1.0,4.94163222656,1.01035310059,7.81467421875,1.0,0.0,0.0,0.0,1.0,0.0,0.0,0.0,1.0
1464075909194016320,672,1464075909178392300,,-9.63176822662,5.51517295837,106.152740479,0.00117599999066,1.0,0.0,0.0,0.0,1.0,0.0,0.0,0.0,1.0,67.3170776367,-74.6951217651,74.8780441284,1.0,0.0,0.0,0.0,1.0,0.0,0.0,0.0,1.0,12.2343704834,5.4683565918,-4.72615378489,1.0,0.0,0.0,0.0,1.0,0.0,0.0,0.0,1.0
1464075909222155359,673,1464075909211322732,,-10.0195331573,6.79644680023,106.356124878,0.00135100004263,1.0,0.0,0.0,0.0,1.0,0.0,0.0,0.0,1.0,-44.0853652954,18.7804889679,76.1585388184,1.0,0.0,0.0,0.0,1.0,0.0,0.0,0.0,1.0,-4.29040966726,-35.4533381836,18.267759836,1.0,0.0,0.0,0.0,1.0,0.0,0.0,0.0,1.0
1464075909273226577,674,1464075909235215637,,-9.2684173584,3.44622325897,107.078895569,0.0153480004519,1.0,0.0,0.0,0.0,1.0,0.0,0.0,0.0,1.0,-146.097564697,-20.1829280853,59.3292732239,1.0,0.0,0.0,0.0,1.0,0.0,0.0,0.0,1.0,8.64785698101,14.8105314697,-28.3090404297,1.0,0.0,0.0,0.0,1.0,0.0,0.0,0.0,1.0
