%time,field.header.seq,field.header.stamp,field.header.frame_id,field.orientation.x,field.orientation.y,field.orientation.z,field.orientation.w,field.orientation_covariance0,field.orientation_covariance1,field.orientation_covariance2,field.orientation_covariance3,field.orientation_covariance4,field.orientation_covariance5,field.orientation_covariance6,field.orientation_covariance7,field.orientation_covariance8,field.angular_velocity.x,field.angular_velocity.y,field.angular_velocity.z,field.angular_velocity_covariance0,field.angular_velocity_covariance1,field.angular_velocity_covariance2,field.angular_velocity_covariance3,field.angular_velocity_covariance4,field.angular_velocity_covariance5,field.angular_velocity_covariance6,field.angular_velocity_covariance7,field.angular_velocity_covariance8,field.linear_acceleration.x,field.linear_acceleration.y,field.linear_acceleration.z,field.linear_acceleration_covariance0,field.linear_acceleration_covariance1,field.linear_acceleration_covariance2,field.linear_acceleration_covariance3,field.linear_acceleration_covariance4,field.linear_acceleration_covariance5,field.linear_acceleration_covariance6,field.linear_acceleration_covariance7,field.linear_acceleration_covariance8
1463923321850305313,220,1463923321848005844,,-5.7256565094,-20.6203250885,13.4958591461,0.0202159993351,1.0,0.0,0.0,0.0,1.0,0.0,0.0,0.0,1.0,-0.18292683363,5.30487823486,-0.609756112099,1.0,0.0,0.0,0.0,1.0,0.0,0.0,0.0,1.0,1.78607443848,-0.651222851562,10.793061084,1.0,0.0,0.0,0.0,1.0,0.0,0.0,0.0,1.0
1463923321873748911,221,1463923321868675287,,-5.60479164124,-20.3324432373,13.3740530014,0.0204189997166,1.0,0.0,0.0,0.0,1.0,0.0,0.0,0.0,1.0,-0.18292683363,7.13414621353,-1.8902438879,1.0,0.0,0.0,0.0,1.0,0.0,0.0,0.0,1.0,1.2497732666,-1.11569797363,10.3333743652,1.0,0.0,0.0,0.0,1.0,0.0,0.0,0.0,1.0
1463923321891184722,222,1463923321889398896,,-5.36291313171,-19.9832687378,13.2725391388,0.0208400003612,1.0,0.0,0.0,0.0,1.0,0.0,0.0,0.0,1.0,-0.365853667259,7.86585378647,-0.243902444839,1.0,0.0,0.0,0.0,1.0,0.0,0.0,0.0,1.0,0.387860668945,-0.497993945312,10.0795889893,1.0,0.0,0.0,0.0,1.0,0.0,0.0,0.0,1.0
1463923321911851352,223,1463923321909540737,,-5.24664258957,-19.6369132996,13.1947088242,0.0199580006301,1.0,0.0,0.0,0.0,1.0,0.0,0.0,0.0,1.0,-0.18292683363,1.70731711388,-1.52439022064,1.0,0.0,0.0,0.0,1.0,0.0,0.0,0.0,1.0,0.258573779297,-0.325611425781,9.7348239502,1.0,0.0,0.0,0.0,1.0,0.0,0.0,0.0,1.0
1463923321931713924,224,1463923321929606068,,-5.17077589035,-19.35987854,13.1588201523,0.0204189997166,1.0,0.0,0.0,0.0,1.0,0.0,0.0,0.0,1.0,-0.365853667259,0.853658556938,0.0609756112099,1.0,0.0,0.0,0.0,1.0,0.0,0.0,0.0,1.0,0.598550451572,-0.91458503418,10.1035310059,1.0,0.0,0.0,0.0,1.0,0.0,0.0,0.0,1.0
1463923321959138598,225,1463923321950063585,,-5.12929487228,-19.091802597,13.1391172409,0.0204050000757,1.0,0.0,0.0,0.0,1.0,0.0,0.0,0.0,1.0,-0.792682945728,-1.46341466904,0.0609756112099,1.0,0.0,0.0,0.0,1.0,0.0,0.0,0.0,1.0,0.507570751953,-0.876277807617,10.3573163818,1.0,0.0,0.0,0.0,1.0,0.0,0.0,0.0,1.0
1463923321972774634,226,1463923321970569018,,-5.17466545105,-18.8029098511,13.1221523285,0.0204269997776,1.0,0.0,0.0,0.0,1.0,0.0,0.0,0.0,1.0,-0.365853667259,-2.92682933807,-0.243902444839,1.0,0.0,0.0,0.0,1.0,0.0,0.0,0.0,1.0,0.986411083984,-0.689530078125,10.1466266357,1.0,0.0,0.0,0.0,1.0,0.0,0.0,0.0,1.0
1463923321993123870,227,1463923321990955598,,-5.23209953308,-18.4918327332,13.1164197922,0.0204360000789,1.0,0.0,0.0,0.0,1.0,0.0,0.0,0.0,1.0,0.304878056049,-2.68292689323,0.487804889679,1.0,0.0,0.0,0.0,1.0,0.0,0.0,0.0,1.0,1.17315874041,-0.541089611728,10.0700121826,1.0,0.0,0.0,0.0,1.0,0.0,0.0,0.0,1.0
1463923322020198858,228,1463923322011405979,,-5.19093465805,-18.2265300751,13.1122303009,0.0203820001334,1.0,0.0,0.0,0.0,1.0,0.0,0.0,0.0,1.0,-1.15853655338,-0.18292683363,1.34146344662,1.0,0.0,0.0,0.0,1.0,0.0,0.0,0.0,1.0,0.775721337891,-0.61770402832,9.85932243652,1.0,0.0,0.0,0.0,1.0,0.0,0.0,0.0,1.0
1463923322035253846,229,1463923322031962141,,-5.14028787613,-17.9439411163,13.0941076279,0.0205290000886,1.0,0.0,0.0,0.0,1.0,0.0,0.0,0.0,1.0,-0.243902444839,-0.670731723309,0.426829278469,1.0,0.0,0.0,0.0,1.0,0.0,0.0,0.0,1.0,0.560243188477,-0.61770402832,9.87368764648,1.0,0.0,0.0,0.0,1.0,0.0,0.0,0.0,1.0
1463923322061509150,230,1463923322052261690,,-5.25335073471,-17.6779346466,13.0810308456,0.0202820003033,1.0,0.0,0.0,0.0,1.0,0.0,0.0,0.0,1.0,-0.853658556938,-4.08536577225,-0.426829278469,1.0,0.0,0.0,0.0,1.0,0.0,0.0,0.0,1.0,1.40779057617,-0.579396801758,10.299855542,1.0,0.0,0.0,0.0,1.0,0.0,0.0,0.0,1.0
1463923322089822050,231,1463923322072673477,,-5.19619750977,-17.4140453339,13.1076374054,0.0204130001366,1.0,0.0,0.0,0.0,1.0,0.0,0.0,0.0,1.0,-0.365853667259,3.53658556938,4.02439022064,1.0,0.0,0.0,0.0,1.0,0.0,0.0,0.0,1.0,1.4604630127,-0.61770402832,10.2136642822,1.0,0.0,0.0,0.0,1.0,0.0,0.0,0.0,1.0
1463923322105176880,232,1463923322093009901,,-5.13516998291,-17.2892951965,13.0782871246,0.0203779991716,1.0,0.0,0.0,0.0,1.0,0.0,0.0,0.0,1.0,-3.47560977936,2.74390244484,0.487804889679,1.0,0.0,0.0,0.0,1.0,0.0,0.0,0.0,1.0,1.09654436035,-1.31681091309,10.165780249,1.0,0.0,0.0,0.0,1.0,0.0,0.0,0.0,1.0
1463923322119038540,233,1463923322113355647,,-5.18530321121,-17.0947208405,12.9939155579,0.0204179994762,1.0,0.0,0.0,0.0,1.0,0.0,0.0,0.0,1.0,-2.98780488968,1.58536589146,-2.43902444839,1.0,0.0,0.0,0.0,1.0,0.0,0.0,0.0,1.0,1.70945998535,-0.775721337891,10.1705686523,1.0,0.0,0.0,0.0,1.0,0.0,0.0,0.0,1.0
1463923322144871398,234,1463923322136031904,,-5.04783296585,-16.8125362396,12.9229774475,0.0204319991171,1.0,0.0,0.0,0.0,1.0,0.0,0.0,0.0,1.0,-0.426829278469,7.56097555161,0.243902444839,1.0,0.0,0.0,0.0,1.0,0.0,0.0,0.0,1.0,1.21625444336,-0.421379492187,10.165780249,1.0,0.0,0.0,0.0,1.0,0.0,0.0,0.0,1.0
1463923322174492417,235,1463923322154227452,,-4.86959171295,-16.5399169922,12.8310995102,0.0203889999539,1.0,0.0,0.0,0.0,1.0,0.0,0.0,0.0,1.0,0.487804889679,7.62195110321,-1.03658533096,1.0,0.0,0.0,0.0,1.0,0.0,0.0,0.0,1.0,0.775721337891,-0.646434448242,10.1131078125,1.0,0.0,0.0,0.0,1.0,0.0,0.0,0.0,1.0
1463923322186025493,236,1463923322174696531,,-4.67938137054,-16.3122272491,12.7496700287,0.0204840004444,1.0,0.0,0.0,0.0,1.0,0.0,0.0,0.0,1.0,0.0609756112099,7.80487823486,-0.670731723309,1.0,0.0,0.0,0.0,1.0,0.0,0.0,0.0,1.0,0.708683691406,-0.928950244141,10.1370498291,1.0,0.0,0.0,0.0,1.0,0.0,0.0,0.0,1.0
1463923322199913246,237,1463923322196687478,,-4.50296497345,-16.0913524628,12.6682739258,0.0209090001881,1.0,0.0,0.0,0.0,1.0,0.0,0.0,0.0,1.0,-0.792682945728,5.18292713165,-1.40243899822,1.0,0.0,0.0,0.0,1.0,0.0,0.0,0.0,1.0,0.335188232422,-0.823605371094,10.0269165527,1.0,0.0,0.0,0.0,1.0,0.0,0.0,0.0,1.0
1463923322226438705,238,1463923322217011246,,-4.4231467247,-15.8399553299,12.5803041458,0.0206840001047,1.0,0.0,0.0,0.0,1.0,0.0,0.0,0.0,1.0,-0.243902444839,2.98780488968,-2.37804889679,1.0,0.0,0.0,0.0,1.0,0.0,0.0,0.0,1.0,0.699106884766,-0.598550451572,10.0939541992,1.0,0.0,0.0,0.0,1.0,0.0,0.0,0.0,1.0
1463923322254834834,239,1463923322246702212,,-4.33831310272,-15.6257915497,12.533203125,0.0200909990817,1.0,0.0,0.0,0.0,1.0,0.0,0.0,0.0,1.0,0.18292683363,3.71951246262,-0.365853667259,1.0,0.0,0.0,0.0,1.0,0.0,0.0,0.0,1.0,0.857124194336,-0.881066210937,10.1370498291,1.0,0.0,0.0,0.0,1.0,0.0,0.0,0.0,1.0
1463923322262016105,240,1463923322259098149,,-4.20182991028,-15.3777399063,12.4755086899,0.0198970008641,1.0,0.0,0.0,0.0,1.0,0.0,0.0,0.0,1.0,0.426829278469,5.06097555161,-0.487804889679,1.0,0.0,0.0,0.0,1.0,0.0,0.0,0.0,1.0,0.603338854892,-0.579396801758,10.3812583984,1.0,0.0,0.0,0.0,1.0,0.0,0.0,0.0,1.0
1463923322285471526,241,1463923322280126497,,-4.17323303223,-15.1297502518,12.3827438354,0.0204620007426,1.0,0.0,0.0,0.0,1.0,0.0,0.0,0.0,1.0,0.548780500889,3.10975623131,-2.80487799644,1.0,0.0,0.0,0.0,1.0,0.0,0.0,0.0,1.0,1.07739082014,-0.603338854892,9.88805285645,1.0,0.0,0.0,0.0,1.0,0.0,0.0,0.0,1.0
1463923322303623740,242,1463923322297922879,,-4.05453395844,-14.9048242569,12.3168306351,0.0211369991302,1.0,0.0,0.0,0.0,1.0,0.0,0.0,0.0,1.0,0.243902444839,5.54878091812,-0.792682945728,1.0,0.0,0.0,0.0,1.0,0.0,0.0,0.0,1.0,0.866701000977,-0.780509741211,10.180145459,1.0,0.0,0.0,0.0,1.0,0.0,0.0,0.0,1.0
1463923322327903897,243,1463923322318998674,,-3.85107445717,-14.7058525085,12.250123024,0.0209940001369,1.0,0.0,0.0,0.0,1.0,0.0,0.0,0.0,1.0,0.609756112099,6.64634132385,-0.731707334518,1.0,0.0,0.0,0.0,1.0,0.0,0.0,0.0,1.0,0.31124621582,-1.03429511719,10.2471831055,1.0,0.0,0.0,0.0,1.0,0.0,0.0,0.0,1.0
1463923322373870835,244,1463923322340938216,,-3.79465842247,-14.4942274094,12.1843261719,0.0198630001396,1.0,0.0,0.0,0.0,1.0,0.0,0.0,0.0,1.0,0.243902444839,1.15853655338,-2.25609779358,1.0,0.0,0.0,0.0,1.0,0.0,0.0,0.0,1.0,0.45968671875,-0.675164868164,9.7587659668,1.0,0.0,0.0,0.0,1.0,0.0,0.0,0.0,1.0
1463923322374211251,245,1463923322358467568,,-3.71309876442,-14.2882318497,12.1554164886,0.0195860005915,1.0,0.0,0.0,0.0,1.0,0.0,0.0,0.0,1.0,0.0609756112099,1.64634156227,-0.243902444839,1.0,0.0,0.0,0.0,1.0,0.0,0.0,0.0,1.0,0.407014282227,-0.636857641602,10.1609918457,1.0,0.0,0.0,0.0,1.0,0.0,0.0,0.0,1.0
1463923322456195796,246,1463923322378763783,,-3.61504983902,-14.0888757706,12.1716747284,0.020433999598,1.0,0.0,0.0,0.0,1.0,0.0,0.0,0.0,1.0,-0.548780500889,2.13414645195,2.19512200356,1.0,0.0,0.0,0.0,1.0,0.0,0.0,0.0,1.0,0.474051928711,-0.603338854892,10.2088758789,1.0,0.0,0.0,0.0,1.0,0.0,0.0,0.0,1.0
1463923322456486368,247,1463923322399286456,,-3.55532455444,-13.9014339447,12.2118215561,0.0203510001302,1.0,0.0,0.0,0.0,1.0,0.0,0.0,0.0,1.0,-0.731707334518,-0.548780500889,2.68292689323,1.0,0.0,0.0,0.0,1.0,0.0,0.0,0.0,1.0,0.344765039063,-0.622492431641,10.2136642822,1.0,0.0,0.0,0.0,1.0,0.0,0.0,0.0,1.0
1463923322457719904,248,1463923322419647306,,-3.54510331154,-13.7086133957,12.259057045,0.0204269997776,1.0,0.0,0.0,0.0,1.0,0.0,0.0,0.0,1.0,-1.34146344662,-1.64634156227,2.80487799644,1.0,0.0,0.0,0.0,1.0,0.0,0.0,0.0,1.0,0.574608398438,-0.421379492187,10.0652237793,1.0,0.0,0.0,0.0,1.0,0.0,0.0,0.0,1.0
1463923322458487140,249,1463923322439842064,,-3.55143117905,-13.5059337616,12.31635952,0.0203990004957,1.0,0.0,0.0,0.0,1.0,0.0,0.0,0.0,1.0,-0.670731723309,-2.19512200356,3.17073178291,1.0,0.0,0.0,0.0,1.0,0.0,0.0,0.0,1.0,0.641646044922,-0.416591088867,10.1514150391,1.0,0.0,0.0,0.0,1.0,0.0,0.0,0.0,1.0
1463923322573435086,250,1463923322460345778,,-3.64603662491,-13.3486289978,12.3404827118,0.0204300004989,1.0,0.0,0.0,0.0,1.0,0.0,0.0,0.0,1.0,-1.09756100178,-4.14634132385,0.914634168148,1.0,0.0,0.0,0.0,1.0,0.0,0.0,0.0,1.0,0.991199487305,-0.727837304687,10.1753570557,1.0,0.0,0.0,0.0,1.0,0.0,0.0,0.0,1.0
1463923322573707481,251,1463923322480844857,,-3.83239126205,-13.2062797546,12.3292016983,0.020386999473,1.0,0.0,0.0,0.0,1.0,0.0,0.0,0.0,1.0,-0.914634168148,-4.20731735229,-0.914634168148,1.0,0.0,0.0,0.0,1.0,0.0,0.0,0.0,1.0,1.77170922852,-0.881066210937,10.2950671387,1.0,0.0,0.0,0.0,1.0,0.0,0.0,0.0,1.0
1463923322573982792,252,1463923322501301176,,-3.8799097538,-13.0441455841,12.3031930923,0.0204029995948,1.0,0.0,0.0,0.0,1.0,0.0,0.0,0.0,1.0,0.365853667259,3.84146332741,0.243902444839,1.0,0.0,0.0,0.0,1.0,0.0,0.0,0.0,1.0,2.01591779785,-0.900219824219,10.1178962158,1.0,0.0,0.0,0.0,1.0,0.0,0.0,0.0,1.0
1463923322574268468,253,1463923322521765099,,-3.78477025032,-12.869020462,12.2347249985,0.0204440001398,1.0,0.0,0.0,0.0,1.0,0.0,0.0,0.0,1.0,-0.0609756112099,9.39024448395,-0.548780500889,1.0,0.0,0.0,0.0,1.0,0.0,0.0,0.0,1.0,1.67594116211,-0.703895288086,10.0125513428,1.0,0.0,0.0,0.0,1.0,0.0,0.0,0.0,1.0
1463923322574550759,254,1463923322542063866,,-3.59472155571,-12.6636009216,12.1306238174,0.0203889999539,1.0,0.0,0.0,0.0,1.0,0.0,0.0,0.0,1.0,0.914634168148,11.5243911743,-1.8902438879,1.0,0.0,0.0,0.0,1.0,0.0,0.0,0.0,1.0,1.17315874041,-0.627280834961,10.3333743652,1.0,0.0,0.0,0.0,1.0,0.0,0.0,0.0,1.0
1463923322574975444,255,1463923322562528466,,-3.3030807972,-12.5097494125,12.0353279114,0.0204119998962,1.0,0.0,0.0,0.0,1.0,0.0,0.0,0.0,1.0,0.853658556938,12.5,-1.46341466904,1.0,0.0,0.0,0.0,1.0,0.0,0.0,0.0,1.0,0.411802685547,-1.01514150391,9.98860932617,1.0,0.0,0.0,0.0,1.0,0.0,0.0,0.0,1.0
1463923322692621712,256,1463923322582888275,,-3.00133657455,-12.3581314087,11.9876146317,0.0204160008579,1.0,0.0,0.0,0.0,1.0,0.0,0.0,0.0,1.0,0.12195122242,11.7682924271,0.731707334518,1.0,0.0,0.0,0.0,1.0,0.0,0.0,0.0,1.0,0.234631762695,-0.861912597656,10.1226846191,1.0,0.0,0.0,0.0,1.0,0.0,0.0,0.0,1.0
1463923322692958794,257,1463923322603185376,,-2.73717355728,-12.1894187927,11.9551944733,0.0203900001943,1.0,0.0,0.0,0.0,1.0,0.0,0.0,0.0,1.0,-0.792682945728,8.47560977936,0.792682945728,1.0,0.0,0.0,0.0,1.0,0.0,0.0,0.0,1.0,-0.067037651051,-0.502782348633,10.0556469727,1.0,0.0,0.0,0.0,1.0,0.0,0.0,0.0,1.0
1463923322693237022,258,1463923322623613570,,-2.61067938805,-11.9877901077,11.9112844467,0.0204140003771,1.0,0.0,0.0,0.0,1.0,0.0,0.0,0.0,1.0,-0.365853667259,3.84146332741,-0.792682945728,1.0,0.0,0.0,0.0,1.0,0.0,0.0,0.0,1.0,0.229843359375,-0.272938989258,10.3477395752,1.0,0.0,0.0,0.0,1.0,0.0,0.0,0.0,1.0
1463923322693560614,259,1463923322644042285,,-2.5615773201,-11.8037366867,11.8896360397,0.0203990004957,1.0,0.0,0.0,0.0,1.0,0.0,0.0,0.0,1.0,-0.731707334518,2.01219511032,-0.12195122242,1.0,0.0,0.0,0.0,1.0,0.0,0.0,0.0,1.0,0.593762048251,-0.31124621582,10.2376062988,1.0,0.0,0.0,0.0,1.0,0.0,0.0,0.0,1.0
1463923322693844311,260,1463923322664509541,,-2.46507692337,-11.6318712234,11.8770704269,0.0204300004989,1.0,0.0,0.0,0.0,1.0,0.0,0.0,0.0,1.0,-0.243902444839,2.80487799644,0.426829278469,1.0,0.0,0.0,0.0,1.0,0.0,0.0,0.0,1.0,0.335188232422,-0.488417138672,10.4482960449,1.0,0.0,0.0,0.0,1.0,0.0,0.0,0.0,1.0
1463923322694205560,261,1463923322684878516,,-2.43820357323,-11.5157775879,11.8701858521,0.0203910004348,1.0,0.0,0.0,0.0,1.0,0.0,0.0,0.0,1.0,-0.975609779358,-1.2804877758,-0.243902444839,1.0,0.0,0.0,0.0,1.0,0.0,0.0,0.0,1.0,0.181959326172,-0.809240161133,10.2280294922,1.0,0.0,0.0,0.0,1.0,0.0,0.0,0.0,1.0
1463923322733274091,262,1463923322705456345,,-2.45832800865,-11.411491394,11.870672226,0.020422000438,1.0,0.0,0.0,0.0,1.0,0.0,0.0,0.0,1.0,-0.853658556938,-3.23170733452,-0.304878056049,1.0,0.0,0.0,0.0,1.0,0.0,0.0,0.0,1.0,0.244208569336,-0.905008227539,10.1178962158,1.0,0.0,0.0,0.0,1.0,0.0,0.0,0.0,1.0
1463923322733628672,263,1463923322725677300,,-2.52285528183,-11.3138084412,11.8895559311,0.0204140003771,1.0,0.0,0.0,0.0,1.0,0.0,0.0,0.0,1.0,-1.40243899822,-3.65853667259,0.548780500889,1.0,0.0,0.0,0.0,1.0,0.0,0.0,0.0,1.0,0.584185168546,-0.823605371094,9.96945571289,1.0,0.0,0.0,0.0,1.0,0.0,0.0,0.0,1.0
1463923322756740501,264,1463923322746126327,,-2.62036299706,-11.1582317352,11.9312791824,0.0203840006143,1.0,0.0,0.0,0.0,1.0,0.0,0.0,0.0,1.0,-0.12195122242,-5.24390268326,1.46341466904,1.0,0.0,0.0,0.0,1.0,0.0,0.0,0.0,1.0,0.636857641602,-0.517147558594,9.98382092285,1.0,0.0,0.0,0.0,1.0,0.0,0.0,0.0,1.0
1463923322771659291,265,1463923322766550094,,-2.74206233025,-10.9657039642,11.9408426285,0.0204169992357,1.0,0.0,0.0,0.0,1.0,0.0,0.0,0.0,1.0,3.53658556938,-4.81707286835,-0.12195122242,1.0,0.0,0.0,0.0,1.0,0.0,0.0,0.0,1.0,0.890643017578,-0.837970581055,10.0412817627,1.0,0.0,0.0,0.0,1.0,0.0,0.0,0.0,1.0
1463923322792141703,266,1463923322786970267,,-2.89809799194,-10.7821035385,11.9110145569,0.020408000797,1.0,0.0,0.0,0.0,1.0,0.0,0.0,0.0,1.0,3.59756112099,-2.56097555161,-1.64634156227,1.0,0.0,0.0,0.0,1.0,0.0,0.0,0.0,1.0,1.5562310791,-0.895431420898,9.97424411621,1.0,0.0,0.0,0.0,1.0,0.0,0.0,0.0,1.0
1463923322928379767,267,1463923322807375909,,-2.91139817238,-10.6125612259,11.895734787,0.0204029995948,1.0,0.0,0.0,0.0,1.0,0.0,0.0,0.0,1.0,2.62195134163,3.71951246262,0.304878056049,1.0,0.0,0.0,0.0,1.0,0.0,0.0,0.0,1.0,1.57538469238,-0.847547387695,10.4866032715,1.0,0.0,0.0,0.0,1.0,0.0,0.0,0.0,1.0
1463923322929160128,268,1463923322827675041,,-2.74837374687,-10.4906892776,11.9002256393,0.0204140003771,1.0,0.0,0.0,0.0,1.0,0.0,0.0,0.0,1.0,-0.853658556938,6.40243911743,1.8292683363,1.0,0.0,0.0,0.0,1.0,0.0,0.0,0.0,1.0,0.507570751953,-0.612915625,10.6111017578,1.0,0.0,0.0,0.0,1.0,0.0,0.0,0.0,1.0
1463923322929796740,269,1463923322852896860,,-2.59900093079,-10.2728681564,11.8718776703,0.0240690000355,1.0,0.0,0.0,0.0,1.0,0.0,0.0,0.0,1.0,0.853658556938,0.487804889679,-0.670731723309,1.0,0.0,0.0,0.0,1.0,0.0,0.0,0.0,1.0,-0.344765039063,-0.320823022461,9.96945571289,1.0,0.0,0.0,0.0,1.0,0.0,0.0,0.0,1.0
1463923322930277832,270,1463923322868552106,,-2.65406298637,-10.1801185608,11.9066457748,0.0167289990932,1.0,0.0,0.0,0.0,1.0,0.0,0.0,0.0,1.0,-0.18292683363,-7.31707334518,1.09756100178,1.0,0.0,0.0,0.0,1.0,0.0,0.0,0.0,1.0,0.00957680664062,-0.703895288086,10.0652237793,1.0,0.0,0.0,0.0,1.0,0.0,0.0,0.0,1.0
1463923322930624809,271,1463923322889164726,,-2.77512788773,-10.0815973282,11.9563465118,0.020687000826,1.0,0.0,0.0,0.0,1.0,0.0,0.0,0.0,1.0,-0.975609779358,-6.21951246262,1.64634156227,1.0,0.0,0.0,0.0,1.0,0.0,0.0,0.0,1.0,0.699106884766,-0.694318481445,10.2759135254,1.0,0.0,0.0,0.0,1.0,0.0,0.0,0.0,1.0
1463923322930945068,272,1463923322909358806,,-2.97286438942,-9.98692035675,12.0316495895,0.0201350003481,1.0,0.0,0.0,0.0,1.0,0.0,0.0,0.0,1.0,-0.487804889679,-7.01219511032,2.86585378647,1.0,0.0,0.0,0.0,1.0,0.0,0.0,0.0,1.0,1.34554133301,-0.756567724609,10.2711251221,1.0,0.0,0.0,0.0,1.0,0.0,0.0,0.0,1.0
1463923322931216161,273,1463923322929708199,,-3.11817193031,-9.87199687958,12.1033535004,0.0204140003771,1.0,0.0,0.0,0.0,1.0,0.0,0.0,0.0,1.0,-0.18292683363,-3.29268312454,3.35365867615,1.0,0.0,0.0,0.0,1.0,0.0,0.0,0.0,1.0,1.54186586914,-0.60812722168,10.0700121826,1.0,0.0,0.0,0.0,1.0,0.0,0.0,0.0,1.0
1463923323174085279,274,1463923322950143788,,-3.19336819649,-9.74948501587,12.1372680664,0.0204089991748,1.0,0.0,0.0,0.0,1.0,0.0,0.0,0.0,1.0,-0.609756112099,0.853658556938,2.25609779358,1.0,0.0,0.0,0.0,1.0,0.0,0.0,0.0,1.0,1.65678754883,-0.45968671875,10.1178962158,1.0,0.0,0.0,0.0,1.0,0.0,0.0,0.0,1.0
1463923323174402830,275,1463923322970574378,,-3.13694214821,-9.61154556274,12.1862363815,0.0203949995339,1.0,0.0,0.0,0.0,1.0,0.0,0.0,0.0,1.0,-0.304878056049,5.91463422775,3.90243911743,1.0,0.0,0.0,0.0,1.0,0.0,0.0,0.0,1.0,1.42694418945,-0.344765039063,9.95509050293,1.0,0.0,0.0,0.0,1.0,0.0,0.0,0.0,1.0
1463923323174445538,276,1463923322990996322,,-3.09563183784,-9.48789310455,12.1666698456,0.0204199999571,1.0,0.0,0.0,0.0,1.0,0.0,0.0,0.0,1.0,-0.18292683363,3.47560977936,0.0,1.0,0.0,0.0,0.0,1.0,0.0,0.0,0.0,1.0,1.02950671387,-0.521935925381,10.1992990723,1.0,0.0,0.0,0.0,1.0,0.0,0.0,0.0,1.0
1463923323174478090,277,1463923323011403579,,-3.34649062157,-9.06292724609,12.0298643112,0.0204089991748,1.0,0.0,0.0,0.0,1.0,0.0,0.0,0.0,1.0,14.5121955872,-3.7804877758,-7.01219511032,1.0,0.0,0.0,0.0,1.0,0.0,0.0,0.0,1.0,2.26491477051,-0.555454785156,10.7882726807,1.0,0.0,0.0,0.0,1.0,0.0,0.0,0.0,1.0
1463923323174920379,278,1463923323031750627,,-3.22117161751,-8.7951669693,11.9304037094,0.0204140003771,1.0,0.0,0.0,0.0,1.0,0.0,0.0,0.0,1.0,8.90243911743,14.7560987473,-2.31707310677,1.0,0.0,0.0,0.0,1.0,0.0,0.0,0.0,1.0,2.13562802699,-0.751779321289,9.39484672993,1.0,0.0,0.0,0.0,1.0,0.0,0.0,0.0,1.0
1463923323174973504,279,1463923323052134081,,-2.87489175797,-8.70936107635,11.8891391754,0.0204119998962,1.0,0.0,0.0,0.0,1.0,0.0,0.0,0.0,1.0,-0.914634168148,12.8658542633,0.243902444839,1.0,0.0,0.0,0.0,1.0,0.0,0.0,0.0,1.0,0.0287304199219,-0.588973571866,10.1035310059,1.0,0.0,0.0,0.0,1.0,0.0,0.0,0.0,1.0
1463923323175389596,280,1463923323072548578,,-2.64835381508,-8.66368865967,11.828953743,0.0203889999539,1.0,0.0,0.0,0.0,1.0,0.0,0.0,0.0,1.0,-1.58536589146,5.06097555161,-2.01219511032,1.0,0.0,0.0,0.0,1.0,0.0,0.0,0.0,1.0,-0.426167895508,-0.814028564453,10.1226846191,1.0,0.0,0.0,0.0,1.0,0.0,0.0,0.0,1.0
1463923323175745168,281,1463923323092891095,,-2.54103922844,-8.56415653229,11.8123321533,0.0204009991139,1.0,0.0,0.0,0.0,1.0,0.0,0.0,0.0,1.0,-0.12195122242,1.03658533096,-0.426829278469,1.0,0.0,0.0,0.0,1.0,0.0,0.0,0.0,1.0,-0.0861912597656,-0.569819995117,10.0269165527,1.0,0.0,0.0,0.0,1.0,0.0,0.0,0.0,1.0
1463923323175800636,282,1463923323113289185,,-2.52043366432,-8.45217037201,11.8385534286,0.0204199999571,1.0,0.0,0.0,0.0,1.0,0.0,0.0,0.0,1.0,-0.731707334518,-2.43902444839,1.2195122242,1.0,0.0,0.0,0.0,1.0,0.0,0.0,0.0,1.0,0.0814028564453,-0.316034619141,9.95030209961,1.0,0.0,0.0,0.0,1.0,0.0,0.0,0.0,1.0
1463923323175989125,283,1463923323133705087,,-2.58387231827,-8.36380577087,11.8644180298,0.0204150006175,1.0,0.0,0.0,0.0,1.0,0.0,0.0,0.0,1.0,-0.975609779358,-6.15853643417,0.609756112099,1.0,0.0,0.0,0.0,1.0,0.0,0.0,0.0,1.0,0.138863696289,-0.45489831543,9.88805285645,1.0,0.0,0.0,0.0,1.0,0.0,0.0,0.0,1.0
1463923323181161811,284,1463923323154558487,,-2.724162817,-8.31318283081,11.9020414352,0.0204000007361,1.0,0.0,0.0,0.0,1.0,0.0,0.0,0.0,1.0,-0.792682945728,-6.70731735229,1.03658533096,1.0,0.0,0.0,0.0,1.0,0.0,0.0,0.0,1.0,0.732625708008,-0.794874951172,9.94551369629,1.0,0.0,0.0,0.0,1.0,0.0,0.0,0.0,1.0
1463923323490340958,285,1463923323186660485,,-2.96818971634,-8.26175880432,11.9265966415,0.0203970000148,1.0,0.0,0.0,0.0,1.0,0.0,0.0,0.0,1.0,-1.70731711388,-6.89024400711,0.426829278469,1.0,0.0,0.0,0.0,1.0,0.0,0.0,0.0,1.0,1.66636435547,-0.632069238281,10.2519715088,1.0,0.0,0.0,0.0,1.0,0.0,0.0,0.0,1.0
1463923323490593665,286,1463923323195127793,,-3.15178322792,-8.28295993805,11.9520654678,0.0204460006207,1.0,0.0,0.0,0.0,1.0,0.0,0.0,0.0,1.0,-3.84146332741,-4.69512224197,0.731707334518,1.0,0.0,0.0,0.0,1.0,0.0,0.0,0.0,1.0,1.54665427246,-0.871489404297,10.0891657959,1.0,0.0,0.0,0.0,1.0,0.0,0.0,0.0,1.0
1463923323490852310,287,1463923323215693278,,-3.26854419708,-8.30480289459,12.0049619675,0.0203939992934,1.0,0.0,0.0,0.0,1.0,0.0,0.0,0.0,1.0,-3.23170733452,-1.34146344662,2.56097555161,1.0,0.0,0.0,0.0,1.0,0.0,0.0,0.0,1.0,1.59453830566,-0.948103857422,9.79228479004,1.0,0.0,0.0,0.0,1.0,0.0,0.0,0.0,1.0
1463923323491125955,288,1463923323235872671,,-3.37516140938,-8.27731895447,12.0223264694,0.0204019993544,1.0,0.0,0.0,0.0,1.0,0.0,0.0,0.0,1.0,-1.8902438879,-0.18292683363,1.03658533096,1.0,0.0,0.0,0.0,1.0,0.0,0.0,0.0,1.0,1.77649763184,-0.818816967773,10.3094323486,1.0,0.0,0.0,0.0,1.0,0.0,0.0,0.0,1.0
1463923323491413141,289,1463923323256908466,,-3.35064888,-8.21937274933,11.9964017868,0.0204039998353,1.0,0.0,0.0,0.0,1.0,0.0,0.0,0.0,1.0,0.0,5.48780488968,-0.304878056049,1.0,0.0,0.0,0.0,1.0,0.0,0.0,0.0,1.0,1.62805712891,-0.92416184082,10.4435076416,1.0,0.0,0.0,0.0,1.0,0.0,0.0,0.0,1.0
1463923323491693556,290,1463923323276672861,,-3.25229883194,-8.10742950439,11.9723520279,0.0204060003161,1.0,0.0,0.0,0.0,1.0,0.0,0.0,0.0,1.0,0.731707334518,8.35365867615,0.304878056049,1.0,0.0,0.0,0.0,1.0,0.0,0.0,0.0,1.0,1.46525141602,-0.545877978516,10.2950671387,1.0,0.0,0.0,0.0,1.0,0.0,0.0,0.0,1.0
1463923323491982149,291,1463923323297632928,,-3.14025497437,-8.1084728241,11.9479398727,0.0204089991748,1.0,0.0,0.0,0.0,1.0,0.0,0.0,0.0,1.0,-2.98780488968,5.12195110321,-0.304878056049,1.0,0.0,0.0,0.0,1.0,0.0,0.0,0.0,1.0,0.742202514648,-0.890643017578,10.5775829346,1.0,0.0,0.0,0.0,1.0,0.0,0.0,0.0,1.0
1463923323492964124,292,1463923323318078101,,-3.06772494316,-8.08098316193,11.8401994705,0.0204119998962,1.0,0.0,0.0,0.0,1.0,0.0,0.0,0.0,1.0,-2.56097555161,4.69512224197,-4.45121955872,1.0,0.0,0.0,0.0,1.0,0.0,0.0,0.0,1.0,0.842758984375,-0.703895288086,9.95987890625,1.0,0.0,0.0,0.0,1.0,0.0,0.0,0.0,1.0
1463923323493025321,293,1463923323338602023,,-2.94654965401,-7.99359512329,11.7828502655,0.0207449998707,1.0,0.0,0.0,0.0,1.0,0.0,0.0,0.0,1.0,-1.34146344662,5.54878091812,-1.70731711388,1.0,0.0,0.0,0.0,1.0,0.0,0.0,0.0,1.0,0.641646044922,-0.383072265625,9.97424411621,1.0,0.0,0.0,0.0,1.0,0.0,0.0,0.0,1.0
1463923323493066832,294,1463923323359370789,,-2.7957918644,-7.94265556335,11.7651567459,0.0211880002171,1.0,0.0,0.0,0.0,1.0,0.0,0.0,0.0,1.0,-3.04878044128,5.73170757294,0.243902444839,1.0,0.0,0.0,0.0,1.0,0.0,0.0,0.0,1.0,0.46447512207,-0.359130249023,9.73961235352,1.0,0.0,0.0,0.0,1.0,0.0,0.0,0.0,1.0
1463923323493372195,295,1463923323379382422,,-2.62688660622,-7.9280591011,11.796002388,0.0193440001458,1.0,0.0,0.0,0.0,1.0,0.0,0.0,0.0,1.0,-3.59756112099,3.96341490746,2.37804889679,1.0,0.0,0.0,0.0,1.0,0.0,0.0,0.0,1.0,-0.0909796630859,-0.531512805087,9.90720646973,1.0,0.0,0.0,0.0,1.0,0.0,0.0,0.0,1.0
1463923323493669017,296,1463923323399069994,,-2.64602088928,-8.02707290649,11.8227109909,0.0203469991684,1.0,0.0,0.0,0.0,1.0,0.0,0.0,0.0,1.0,-4.69512224197,-3.29268312454,0.853658556938,1.0,0.0,0.0,0.0,1.0,0.0,0.0,0.0,1.0,0.287304199219,-1.35032973633,10.0412817627,1.0,0.0,0.0,0.0,1.0,0.0,0.0,0.0,1.0
1463923323493975265,297,1463923323419720895,,-2.79750108719,-8.0354385376,11.8277654648,0.020428000018,1.0,0.0,0.0,0.0,1.0,0.0,0.0,0.0,1.0,-4.02439022064,-5.97560977936,-0.426829278469,1.0,0.0,0.0,0.0,1.0,0.0,0.0,0.0,1.0,0.943315454102,-0.699106884766,10.1083194092,1.0,0.0,0.0,0.0,1.0,0.0,0.0,0.0,1.0
1463923323494291566,298,1463923323441082366,,-2.97568297386,-7.9623169899,11.8424110413,0.0206020008773,1.0,0.0,0.0,0.0,1.0,0.0,0.0,0.0,1.0,-2.92682933807,-4.39024400711,0.426829278469,1.0,0.0,0.0,0.0,1.0,0.0,0.0,0.0,1.0,1.50355864258,-0.172382519531,10.1609918457,1.0,0.0,0.0,0.0,1.0,0.0,0.0,0.0,1.0
1463923323494624846,299,1463923323460972490,,-3.08946418762,-7.92497396469,11.8798799515,0.0204819999635,1.0,0.0,0.0,0.0,1.0,0.0,0.0,0.0,1.0,-0.609756112099,-1.09756100178,1.8292683363,1.0,0.0,0.0,0.0,1.0,0.0,0.0,0.0,1.0,1.59453830566,-0.876277807617,10.0556469727,1.0,0.0,0.0,0.0,1.0,0.0,0.0,0.0,1.0
1463923323495088906,300,1463923323481433340,,-3.06798553467,-7.89625406265,11.896024704,0.0206780005246,1.0,0.0,0.0,0.0,1.0,0.0,0.0,0.0,1.0,-0.426829278469,3.23170733452,1.34146344662,1.0,0.0,0.0,0.0,1.0,0.0,0.0,0.0,1.0,1.22583125,-1.02950671387,10.4147772217,1.0,0.0,0.0,0.0,1.0,0.0,0.0,0.0,1.0
1463923323550183931,301,1463923323502385177,,-3.05129170418,-7.84167432785,11.8762779236,0.0203070007265,1.0,0.0,0.0,0.0,1.0,0.0,0.0,0.0,1.0,-0.12195122242,3.7804877758,-0.304878056049,1.0,0.0,0.0,0.0,1.0,0.0,0.0,0.0,1.0,1.26413847656,-0.818816967773,9.97424411621,1.0,0.0,0.0,0.0,1.0,0.0,0.0,0.0,1.0
1463923323550487107,302,1463923323521546762,,-2.95095801353,-7.77412700653,11.8642959595,0.0199720002711,1.0,0.0,0.0,0.0,1.0,0.0,0.0,0.0,1.0,-0.304878056049,6.95121955872,0.548780500889,1.0,0.0,0.0,0.0,1.0,0.0,0.0,0.0,1.0,1.09175595703,-0.651222851562,9.99339772949,1.0,0.0,0.0,0.0,1.0,0.0,0.0,0.0,1.0
1463923323636852415,303,1463923323541959852,,-2.77131986618,-7.6987490654,11.8734235764,0.020408000797,1.0,0.0,0.0,0.0,1.0,0.0,0.0,0.0,1.0,0.731707334518,8.10975551605,1.70731711388,1.0,0.0,0.0,0.0,1.0,0.0,0.0,0.0,1.0,0.641646044922,-0.77093293457,10.1131078125,1.0,0.0,0.0,0.0,1.0,0.0,0.0,0.0,1.0
1463923323637411319,304,1463923323563733144,,-2.55607104301,-7.66826725006,11.8621835709,0.0210299994797,1.0,0.0,0.0,0.0,1.0,0.0,0.0,0.0,1.0,-1.70731711388,5.18292713165,0.304878056049,1.0,0.0,0.0,0.0,1.0,0.0,0.0,0.0,1.0,-0.181959326172,-0.665588061523,9.18894597168,1.0,0.0,0.0,0.0,1.0,0.0,0.0,0.0,1.0
1463923323637479287,305,1463923323585108574,,-2.52220869064,-7.68392515182,11.8437843323,0.0200699996203,1.0,0.0,0.0,0.0,1.0,0.0,0.0,0.0,1.0,1.15853655338,0.365853667259,-0.975609779358,1.0,0.0,0.0,0.0,1.0,0.0,0.0,0.0,1.0,0.402225878906,-1.61369191895,9.86889924316,1.0,0.0,0.0,0.0,1.0,0.0,0.0,0.0,1.0
1463923323638823813,306,1463923323605322446,,-2.44240927696,-7.66417312622,11.8372907639,0.0205320008099,1.0,0.0,0.0,0.0,1.0,0.0,0.0,0.0,1.0,-0.853658556938,7.68292665482,0.792682945728,1.0,0.0,0.0,0.0,1.0,0.0,0.0,0.0,1.0,1.35990654297,-0.967257470703,10.1274730225,1.0,0.0,0.0,0.0,1.0,0.0,0.0,0.0,1.0
1463923323653831821,307,1463923323623682159,,-2.37535858154,-7.57380437851,11.8226556778,0.0199989993125,1.0,0.0,0.0,0.0,1.0,0.0,0.0,0.0,1.0,-1.76829278469,3.10975623131,-0.0609756112099,1.0,0.0,0.0,0.0,1.0,0.0,0.0,0.0,1.0,0.579396801758,-0.15801730957,9.86411083984,1.0,0.0,0.0,0.0,1.0,0.0,0.0,0.0,1.0
1463923323654122341,308,1463923323644092280,,-2.32738208771,-7.49469089508,11.8056564331,0.0204050000757,1.0,0.0,0.0,0.0,1.0,0.0,0.0,0.0,1.0,-0.0609756112099,1.52439022064,-0.487804889679,1.0,0.0,0.0,0.0,1.0,0.0,0.0,0.0,1.0,0.483628735352,-0.584185168546,10.3477395752,1.0,0.0,0.0,0.0,1.0,0.0,0.0,0.0,1.0
1463923323710459756,309,1463923323664486099,,-2.27733635902,-7.4211192131,11.8096551895,0.020428000018,1.0,0.0,0.0,0.0,1.0,0.0,0.0,0.0,1.0,0.243902444839,1.2804877758,0.487804889679,1.0,0.0,0.0,0.0,1.0,0.0,0.0,0.0,1.0,0.440533105469,-0.675164868164,10.4435076416,1.0,0.0,0.0,0.0,1.0,0.0,0.0,0.0,1.0
1463923323710509860,310,1463923323685320281,,-2.38006186485,-7.38909101486,11.8219347,0.0210040006787,1.0,0.0,0.0,0.0,1.0,0.0,0.0,0.0,1.0,0.365853667259,-1.03658533096,0.487804889679,1.0,0.0,0.0,0.0,1.0,0.0,0.0,0.0,1.0,1.28808049316,-0.995987890625,9.76834277344,1.0,0.0,0.0,0.0,1.0,0.0,0.0,0.0,1.0
1463923323733614866,311,1463923323705271497,,-2.44055104256,-7.3314538002,11.7820005417,0.0197899993509,1.0,0.0,0.0,0.0,1.0,0.0,0.0,0.0,1.0,1.52439022064,0.792682945728,-1.8902438879,1.0,0.0,0.0,0.0,1.0,0.0,0.0,0.0,1.0,1.33596452637,-1.03908344744,10.4674496582,1.0,0.0,0.0,0.0,1.0,0.0,0.0,0.0,1.0
1463923323733654553,312,1463923323725617712,,-2.41092348099,-7.30516958237,11.7668533325,0.0204230006784,1.0,0.0,0.0,0.0,1.0,0.0,0.0,0.0,1.0,-0.0609756112099,6.89024400711,0.18292683363,1.0,0.0,0.0,0.0,1.0,0.0,0.0,0.0,1.0,1.73819040527,-1.0534486574,10.7643306641,1.0,0.0,0.0,0.0,1.0,0.0,0.0,0.0,1.0
1463923323769489296,313,1463923323745983927,,-2.22134423256,-7.27642345428,11.76121521,0.0203779991716,1.0,0.0,0.0,0.0,1.0,0.0,0.0,0.0,1.0,-0.609756112099,6.89024400711,0.670731723309,1.0,0.0,0.0,0.0,1.0,0.0,0.0,0.0,1.0,0.205901342773,-0.828393774414,9.70130512695,1.0,0.0,0.0,0.0,1.0,0.0,0.0,0.0,1.0
1463923323769537368,314,1463923323766320768,,-2.1116373539,-7.22900533676,11.7228555679,0.0204169992357,1.0,0.0,0.0,0.0,1.0,0.0,0.0,0.0,1.0,-0.243902444839,4.20731735229,-1.2804877758,1.0,0.0,0.0,0.0,1.0,0.0,0.0,0.0,1.0,0.363918652344,-0.77093293457,10.1083194092,1.0,0.0,0.0,0.0,1.0,0.0,0.0,0.0,1.0
1463923323823872709,315,1463923323786967242,,-2.03582334518,-7.17058992386,11.7600193024,0.0204249992967,1.0,0.0,0.0,0.0,1.0,0.0,0.0,0.0,1.0,-0.548780500889,2.01219511032,2.19512200356,1.0,0.0,0.0,0.0,1.0,0.0,0.0,0.0,1.0,0.320823022461,-0.569819995117,9.8305920166,1.0,0.0,0.0,0.0,1.0,0.0,0.0,0.0,1.0
1463923323823937553,316,1463923323807772882,,-2.01895332336,-7.11812448502,11.7811594009,0.0204019993544,1.0,0.0,0.0,0.0,1.0,0.0,0.0,0.0,1.0,-0.487804889679,-1.70731711388,0.914634168148,1.0,0.0,0.0,0.0,1.0,0.0,0.0,0.0,1.0,0.143652099609,-0.641646044922,10.0652237793,1.0,0.0,0.0,0.0,1.0,0.0,0.0,0.0,1.0
1463923323863193166,317,1463923323827701286,,-2.13733744621,-7.14855098724,11.7741527557,0.0204039998353,1.0,0.0,0.0,0.0,1.0,0.0,0.0,0.0,1.0,-0.853658556938,-3.17073178291,-0.792682945728,1.0,0.0,0.0,0.0,1.0,0.0,0.0,0.0,1.0,1.08217922346,-1.36469494629,10.524910498,1.0,0.0,0.0,0.0,1.0,0.0,0.0,0.0,1.0
1463923323863260405,318,1463923323848195261,,-2.24329900742,-7.10903358459,11.7863073349,0.0204230006784,1.0,0.0,0.0,0.0,1.0,0.0,0.0,0.0,1.0,-0.487804889679,-1.46341466904,0.487804889679,1.0,0.0,0.0,0.0,1.0,0.0,0.0,0.0,1.0,1.29286889648,-0.76135612793,10.2136642822,1.0,0.0,0.0,0.0,1.0,0.0,0.0,0.0,1.0
1463923323892236948,319,1463923323869463452,,-2.30685091019,-7.05147838593,11.7699079514,0.0203889999539,1.0,0.0,0.0,0.0,1.0,0.0,0.0,0.0,1.0,-0.487804889679,0.243902444839,-0.670731723309,1.0,0.0,0.0,0.0,1.0,0.0,0.0,0.0,1.0,1.21625444336,-0.603338854892,10.2280294922,1.0,0.0,0.0,0.0,1.0,0.0,0.0,0.0,1.0
1463923323892570957,320,1463923323888906598,,-2.31075620651,-6.95975255966,11.740904808,0.0204019993544,1.0,0.0,0.0,0.0,1.0,0.0,0.0,0.0,1.0,0.0609756112099,5.36585378647,-0.609756112099,1.0,0.0,0.0,0.0,1.0,0.0,0.0,0.0,1.0,1.62805712891,-0.387860668945,10.2423947021,1.0,0.0,0.0,0.0,1.0,0.0,0.0,0.0,1.0
1463923323911337856,321,1463923323909163074,,-2.33865261078,-6.9135093689,11.7134418488,0.0204169992357,1.0,0.0,0.0,0.0,1.0,0.0,0.0,0.0,1.0,1.2195122242,7.92682981491,-0.365853667259,1.0,0.0,0.0,0.0,1.0,0.0,0.0,0.0,1.0,2.22660754395,-0.938527050781,9.69651672363,1.0,0.0,0.0,0.0,1.0,0.0,0.0,0.0,1.0
1463923323937938523,322,1463923323929528143,,-2.23295879364,-6.81693506241,11.6272449493,0.0203990004957,1.0,0.0,0.0,0.0,1.0,0.0,0.0,0.0,1.0,1.58536589146,8.65853691101,-3.10975623131,1.0,0.0,0.0,0.0,1.0,0.0,0.0,0.0,1.0,1.22583125,-0.641646044922,10.539275708,1.0,0.0,0.0,0.0,1.0,0.0,0.0,0.0,1.0
1463923323957164900,323,1463923323950053732,,-2.08144402504,-6.77134466171,11.5234298706,0.0204210001975,1.0,0.0,0.0,0.0,1.0,0.0,0.0,0.0,1.0,-0.365853667259,8.10975551605,-4.08536577225,1.0,0.0,0.0,0.0,1.0,0.0,0.0,0.0,1.0,0.627280834961,-0.694318481445,9.96945571289,1.0,0.0,0.0,0.0,1.0,0.0,0.0,0.0,1.0
1463923323978183143,324,1463923323970758904,,-1.915320158,-6.74018192291,11.4853210449,0.0204089991748,1.0,0.0,0.0,0.0,1.0,0.0,0.0,0.0,1.0,-0.792682945728,7.19512224197,-0.975609779358,1.0,0.0,0.0,0.0,1.0,0.0,0.0,0.0,1.0,0.383072265625,-0.723048901367,10.0939541992,1.0,0.0,0.0,0.0,1.0,0.0,0.0,0.0,1.0
1463923324001958823,325,1463923323991071369,,-1.69846224785,-6.73669528961,11.4690494537,0.0205140002072,1.0,0.0,0.0,0.0,1.0,0.0,0.0,0.0,1.0,-1.03658533096,6.70731735229,0.0,1.0,0.0,0.0,0.0,1.0,0.0,0.0,0.0,1.0,-0.15322890625,-0.952892260742,10.5632177246,1.0,0.0,0.0,0.0,1.0,0.0,0.0,0.0,1.0
1463923324014758820,326,1463923324011868312,,-1.656203866,-6.70949792862,11.4419708252,0.0207780003548,1.0,0.0,0.0,0.0,1.0,0.0,0.0,0.0,1.0,-0.18292683363,0.731707334518,-1.2195122242,1.0,0.0,0.0,0.0,1.0,0.0,0.0,0.0,1.0,0.258573779297,-0.871489404297,10.2184526855,1.0,0.0,0.0,0.0,1.0,0.0,0.0,0.0,1.0
1463923324039228872,327,1463923324031754372,,-1.75019359589,-6.70620012283,11.4101676941,0.0199180003256,1.0,0.0,0.0,0.0,1.0,0.0,0.0,0.0,1.0,-0.670731723309,-1.76829278469,-1.8292683363,1.0,0.0,0.0,0.0,1.0,0.0,0.0,0.0,1.0,0.991199487305,-0.962469067383,9.96945571289,1.0,0.0,0.0,0.0,1.0,0.0,0.0,0.0,1.0
1463923324055169585,328,1463923324052759960,,-1.78137230873,-6.63015699387,11.4233312607,0.0204319991171,1.0,0.0,0.0,0.0,1.0,0.0,0.0,0.0,1.0,-0.0609756112099,4.63414621353,1.2804877758,1.0,0.0,0.0,0.0,1.0,0.0,0.0,0.0,1.0,1.71903679199,-0.440533105469,10.4674496582,1.0,0.0,0.0,0.0,1.0,0.0,0.0,0.0,1.0
1463923324077662093,329,1463923324072360084,,-1.65422391891,-6.55252122879,11.4468278885,0.0203889999539,1.0,0.0,0.0,0.0,1.0,0.0,0.0,0.0,1.0,-0.243902444839,6.0365858078,1.95121955872,1.0,0.0,0.0,0.0,1.0,0.0,0.0,0.0,1.0,0.517147558594,-0.363918652344,9.95987890625,1.0,0.0,0.0,0.0,1.0,0.0,0.0,0.0,1.0
1463923324094615562,330,1463923324092952704,,-1.53493750095,-6.51884269714,11.4478063583,0.020422000438,1.0,0.0,0.0,0.0,1.0,0.0,0.0,0.0,1.0,0.12195122242,2.74390244484,0.365853667259,1.0,0.0,0.0,0.0,1.0,0.0,0.0,0.0,1.0,-0.0430956298828,-0.818816967773,10.1466266357,1.0,0.0,0.0,0.0,1.0,0.0,0.0,0.0,1.0
1463923324116581145,331,1463923324115011933,,-1.5426068306,-6.52484798431,11.4638338089,0.020494999364,1.0,0.0,0.0,0.0,1.0,0.0,0.0,0.0,1.0,-0.243902444839,-3.29268312454,0.365853667259,1.0,0.0,0.0,0.0,1.0,0.0,0.0,0.0,1.0,-0.0239420166016,-1.06302561017,9.85932243652,1.0,0.0,0.0,0.0,1.0,0.0,0.0,0.0,1.0
1463923324136297050,332,1463923324134677318,,-1.63053202629,-6.53835725784,11.517665863,0.0203220006078,1.0,0.0,0.0,0.0,1.0,0.0,0.0,0.0,1.0,-1.2195122242,-7.07317113876,1.8292683363,1.0,0.0,0.0,0.0,1.0,0.0,0.0,0.0,1.0,0.0430956298828,-0.981622680664,10.1992990723,1.0,0.0,0.0,0.0,1.0,0.0,0.0,0.0,1.0
1463923324158423727,333,1463923324154703743,,-1.78626942635,-6.50200748444,11.588054657,0.0207289997488,1.0,0.0,0.0,0.0,1.0,0.0,0.0,0.0,1.0,-1.58536589146,-6.40243911743,2.74390244484,1.0,0.0,0.0,0.0,1.0,0.0,0.0,0.0,1.0,0.751779321289,-0.45968671875,9.92636008301,1.0,0.0,0.0,0.0,1.0,0.0,0.0,0.0,1.0
1463923324201967603,334,1463923324174957771,,-2.03539419174,-6.48592329025,11.6506309509,0.0204099994153,1.0,0.0,0.0,0.0,1.0,0.0,0.0,0.0,1.0,-0.975609779358,-7.98780536652,2.19512200356,1.0,0.0,0.0,0.0,1.0,0.0,0.0,0.0,1.0,1.33117612305,-0.732625708008,9.97424411621,1.0,0.0,0.0,0.0,1.0,0.0,0.0,0.0,1.0
1463923324205376130,335,1463923324196251482,,-2.22038054466,-6.47677707672,11.6763153076,0.0205620005727,1.0,0.0,0.0,0.0,1.0,0.0,0.0,0.0,1.0,-2.43902444839,-4.14634132385,0.853658556938,1.0,0.0,0.0,0.0,1.0,0.0,0.0,0.0,1.0,1.49877023926,-0.555454785156,10.2759135254,1.0,0.0,0.0,0.0,1.0,0.0,0.0,0.0,1.0
1463923324222175642,336,1463923324216166136,,-2.31112360954,-6.53392410278,11.686504364,0.0200139991939,1.0,0.0,0.0,0.0,1.0,0.0,0.0,0.0,1.0,-3.04878044128,1.64634156227,0.670731723309,1.0,0.0,0.0,0.0,1.0,0.0,0.0,0.0,1.0,1.82438166504,-1.08217922346,10.5440641113,1.0,0.0,0.0,0.0,1.0,0.0,0.0,0.0,1.0
1463923324242652169,337,1463923324236541934,,-2.38230252266,-6.55300712585,11.6944494247,0.0203169994056,1.0,0.0,0.0,0.0,1.0,0.0,0.0,0.0,1.0,-2.13414645195,2.80487799644,0.731707334518,1.0,0.0,0.0,0.0,1.0,0.0,0.0,0.0,1.0,1.838746875,-0.890643017578,10.405200415,1.0,0.0,0.0,0.0,1.0,0.0,0.0,0.0,1.0
1463923324258075853,338,1463923324256262683,,-2.30097389221,-6.51984167099,11.6789245605,0.0204119998962,1.0,0.0,0.0,0.0,1.0,0.0,0.0,0.0,1.0,-0.609756112099,7.19512224197,0.12195122242,1.0,0.0,0.0,0.0,1.0,0.0,0.0,0.0,1.0,1.20667770978,-0.689530078125,10.0843773926,1.0,0.0,0.0,0.0,1.0,0.0,0.0,0.0,1.0
1463923324315873731,339,1463923324277803997,,-2.17378640175,-6.4822177887,11.6528263092,0.0204000007361,1.0,0.0,0.0,0.0,1.0,0.0,0.0,0.0,1.0,-0.18292683363,7.13414621353,-0.426829278469,1.0,0.0,0.0,0.0,1.0,0.0,0.0,0.0,1.0,0.76135612793,-0.723048901367,10.0412817627,1.0,0.0,0.0,0.0,1.0,0.0,0.0,0.0,1.0
1463923324315915397,340,1463923324297350633,,-2.07660746574,-6.44968700409,11.6329317093,0.0206140000373,1.0,0.0,0.0,0.0,1.0,0.0,0.0,0.0,1.0,-0.12195122242,6.15853643417,-0.243902444839,1.0,0.0,0.0,0.0,1.0,0.0,0.0,0.0,1.0,0.876277807617,-0.804451757813,10.4578728516,1.0,0.0,0.0,0.0,1.0,0.0,0.0,0.0,1.0
1463923324335454376,341,1463923324317589713,,-1.93580460548,-6.41279506683,11.6198749542,0.020204000175,1.0,0.0,0.0,0.0,1.0,0.0,0.0,0.0,1.0,-0.487804889679,5.36585378647,0.0,1.0,0.0,0.0,0.0,1.0,0.0,0.0,0.0,1.0,0.282515795898,-0.646434448242,9.90241806641,1.0,0.0,0.0,0.0,1.0,0.0,0.0,0.0,1.0
1463923324358448444,342,1463923324347757136,,-1.83197915554,-6.36815881729,11.6396045685,0.0226109996438,1.0,0.0,0.0,0.0,1.0,0.0,0.0,0.0,1.0,-0.670731723309,1.52439022064,1.09756100178,1.0,0.0,0.0,0.0,1.0,0.0,0.0,0.0,1.0,0.0287304199219,-0.593762048251,10.2519715088,1.0,0.0,0.0,0.0,1.0,0.0,0.0,0.0,1.0
1463923324368863452,343,1463923324359034692,,-1.80167090893,-6.36758232117,11.6689004898,0.0190270002931,1.0,0.0,0.0,0.0,1.0,0.0,0.0,0.0,1.0,-0.975609779358,-1.76829278469,1.34146344662,1.0,0.0,0.0,0.0,1.0,0.0,0.0,0.0,1.0,-0.0335188255255,-0.866701000977,10.0939541992,1.0,0.0,0.0,0.0,1.0,0.0,0.0,0.0,1.0
1463923324380908088,344,1463923324379052940,,-1.90898442268,-6.34739971161,11.705031395,0.0196850001812,1.0,0.0,0.0,0.0,1.0,0.0,0.0,0.0,1.0,-0.914634168148,-6.34146356583,1.15853655338,1.0,0.0,0.0,0.0,1.0,0.0,0.0,0.0,1.0,0.397437475586,-0.684741674805,9.92157167969,1.0,0.0,0.0,0.0,1.0,0.0,0.0,0.0,1.0
1463923324403436325,345,1463923324400057850,,-2.11213541031,-6.31643819809,11.7445859909,0.0209190007299,1.0,0.0,0.0,0.0,1.0,0.0,0.0,0.0,1.0,-0.731707334518,-6.46341466904,1.2195122242,1.0,0.0,0.0,0.0,1.0,0.0,0.0,0.0,1.0,1.1875240965,-0.651222851562,10.2615483154,1.0,0.0,0.0,0.0,1.0,0.0,0.0,0.0,1.0
1463923324423134053,346,1463923324419730474,,-2.28968262672,-6.28581905365,11.7861919403,0.0197919998318,1.0,0.0,0.0,0.0,1.0,0.0,0.0,0.0,1.0,-0.609756112099,-4.63414621353,1.64634156227,1.0,0.0,0.0,0.0,1.0,0.0,0.0,0.0,1.0,1.43173259277,-0.651222851562,10.2567599121,1.0,0.0,0.0,0.0,1.0,0.0,0.0,0.0,1.0
1463923324449949772,347,1463923324440481739,,-2.41868400574,-6.26206684113,11.8065710068,0.0204140003771,1.0,0.0,0.0,0.0,1.0,0.0,0.0,0.0,1.0,-0.670731723309,-1.70731711388,0.853658556938,1.0,0.0,0.0,0.0,1.0,0.0,0.0,0.0,1.0,1.47003981934,-0.699106884766,10.0748005859,1.0,0.0,0.0,0.0,1.0,0.0,0.0,0.0,1.0
1463923324463216486,348,1463923324460689101,,-2.49700474739,-6.23503684998,11.8464031219,0.0204140003771,1.0,0.0,0.0,0.0,1.0,0.0,0.0,0.0,1.0,-0.487804889679,0.0609756112099,2.01219511032,1.0,0.0,0.0,0.0,1.0,0.0,0.0,0.0,1.0,1.40779057617,-0.703895288086,10.2519715088,1.0,0.0,0.0,0.0,1.0,0.0,0.0,0.0,1.0
1463923324530492292,349,1463923324480960525,,-2.49206376076,-6.22472715378,11.8527412415,0.0204150006175,1.0,0.0,0.0,0.0,1.0,0.0,0.0,0.0,1.0,-0.731707334518,1.46341466904,0.487804889679,1.0,0.0,0.0,0.0,1.0,0.0,0.0,0.0,1.0,0.861912597656,-0.785298144531,9.8305920166,1.0,0.0,0.0,0.0,1.0,0.0,0.0,0.0,1.0
1463923324545466395,350,1463923324501386323,,-2.55409693718,-6.20793008804,11.8669433594,0.0203939992934,1.0,0.0,0.0,0.0,1.0,0.0,0.0,0.0,1.0,-0.609756112099,0.609756112099,0.792682945728,1.0,0.0,0.0,0.0,1.0,0.0,0.0,0.0,1.0,1.31681091309,-0.756567724609,9.98860932617,1.0,0.0,0.0,0.0,1.0,0.0,0.0,0.0,1.0
1463923324545607280,351,1463923324521823163,,-2.54185032845,-6.18096733093,11.8849935532,0.0204119998962,1.0,0.0,0.0,0.0,1.0,0.0,0.0,0.0,1.0,-0.0609756112099,2.80487799644,1.2195122242,1.0,0.0,0.0,0.0,1.0,0.0,0.0,0.0,1.0,1.07260241682,-0.76135612793,9.97903251953,1.0,0.0,0.0,0.0,1.0,0.0,0.0,0.0,1.0
1463923324547011857,352,1463923324541854327,,-2.50706219673,-6.1539273262,11.9025373459,0.0203980002552,1.0,0.0,0.0,0.0,1.0,0.0,0.0,0.0,1.0,-0.12195122242,4.14634132385,1.34146344662,1.0,0.0,0.0,0.0,1.0,0.0,0.0,0.0,1.0,1.13006318359,-0.756567724609,10.1322614258,1.0,0.0,0.0,0.0,1.0,0.0,0.0,0.0,1.0
1463923324623168458,353,1463923324562402833,,-2.53515863419,-6.14089298248,11.8901805878,0.0204249992967,1.0,0.0,0.0,0.0,1.0,0.0,0.0,0.0,1.0,-0.12195122242,2.31707310677,-0.365853667259,1.0,0.0,0.0,0.0,1.0,0.0,0.0,0.0,1.0,1.34075292969,-0.900219824219,10.2759135254,1.0,0.0,0.0,0.0,1.0,0.0,0.0,0.0,1.0
1463923324623479968,354,1463923324583123942,,-2.47342634201,-6.15841054916,11.8988437653,0.0204189997166,1.0,0.0,0.0,0.0,1.0,0.0,0.0,0.0,1.0,-1.15853655338,4.20731735229,0.853658556938,1.0,0.0,0.0,0.0,1.0,0.0,0.0,0.0,1.0,0.881066210937,-0.948103857422,9.99339772949,1.0,0.0,0.0,0.0,1.0,0.0,0.0,0.0,1.0
1463923324623878820,355,1463923324603675521,,-2.3841843605,-6.13644695282,11.8989086151,0.020494999364,1.0,0.0,0.0,0.0,1.0,0.0,0.0,0.0,1.0,-1.15853655338,3.41463422775,0.426829278469,1.0,0.0,0.0,0.0,1.0,0.0,0.0,0.0,1.0,0.502782348633,-0.636857641602,10.4004120117,1.0,0.0,0.0,0.0,1.0,0.0,0.0,0.0,1.0
1463923324677310831,356,1463923324623815174,,-2.34932541847,-6.10643100739,11.8814706802,0.0202939994633,1.0,0.0,0.0,0.0,1.0,0.0,0.0,0.0,1.0,-0.914634168148,1.2804877758,-0.670731723309,1.0,0.0,0.0,0.0,1.0,0.0,0.0,0.0,1.0,0.545877978516,-0.593762048251,10.1418382324,1.0,0.0,0.0,0.0,1.0,0.0,0.0,0.0,1.0
1463923324677610569,357,1463923324643994515,,-2.42171740532,-6.05737113953,11.8842487335,0.0204290002584,1.0,0.0,0.0,0.0,1.0,0.0,0.0,0.0,1.0,-0.670731723309,-2.07317066193,0.0,1.0,0.0,0.0,0.0,1.0,0.0,0.0,0.0,1.0,0.885854614258,-0.450109912109,9.98860932617,1.0,0.0,0.0,0.0,1.0,0.0,0.0,0.0,1.0
1463923324677792392,358,1463923324664442032,,-2.5649087429,-6.04626750946,11.8552618027,0.0203850008547,1.0,0.0,0.0,0.0,1.0,0.0,0.0,0.0,1.0,-0.609756112099,-0.365853667259,-1.46341466904,1.0,0.0,0.0,0.0,1.0,0.0,0.0,0.0,1.0,1.88184250488,-0.823605371094,10.3908352051,1.0,0.0,0.0,0.0,1.0,0.0,0.0,0.0,1.0
1463923324691922279,359,1463923324684817362,,-2.60537195206,-6.03683948517,11.8257627487,0.0204179994762,1.0,0.0,0.0,0.0,1.0,0.0,0.0,0.0,1.0,-0.365853667259,5.12195110321,-0.914634168148,1.0,0.0,0.0,0.0,1.0,0.0,0.0,0.0,1.0,1.96324536133,-0.866701000977,10.1992990723,1.0,0.0,0.0,0.0,1.0,0.0,0.0,0.0,1.0
1463923324719146850,360,1463923324705358732,,-2.50691533089,-6.00080013275,11.7847251892,0.0204360000789,1.0,0.0,0.0,0.0,1.0,0.0,0.0,0.0,1.0,0.609756112099,9.20731735229,-1.03658533096,1.0,0.0,0.0,0.0,1.0,0.0,0.0,0.0,1.0,1.4604630127,-0.814028564453,10.2328178955,1.0,0.0,0.0,0.0,1.0,0.0,0.0,0.0,1.0
1463923324761642346,361,1463923324725956300,,-2.32362890244,-5.97788476944,11.7128219604,0.0204039998353,1.0,0.0,0.0,0.0,1.0,0.0,0.0,0.0,1.0,0.487804889679,11.2804880142,-2.37804889679,1.0,0.0,0.0,0.0,1.0,0.0,0.0,0.0,1.0,1.02471831055,-0.909796630859,10.180145459,1.0,0.0,0.0,0.0,1.0,0.0,0.0,0.0,1.0
1463923324775407287,362,1463923324746280745,,-2.12844252586,-5.96576213837,11.6368703842,0.020372999832,1.0,0.0,0.0,0.0,1.0,0.0,0.0,0.0,1.0,0.243902444839,9.93902492523,-2.74390244484,1.0,0.0,0.0,0.0,1.0,0.0,0.0,0.0,1.0,0.612915625,-0.92416184082,9.8305920166,1.0,0.0,0.0,0.0,1.0,0.0,0.0,0.0,1.0
1463923324804682682,363,1463923324766682897,,-1.93969023228,-5.92886972427,11.5854597092,0.0204160008579,1.0,0.0,0.0,0.0,1.0,0.0,0.0,0.0,1.0,0.0609756112099,8.35365867615,-1.64634156227,1.0,0.0,0.0,0.0,1.0,0.0,0.0,0.0,1.0,0.387860668945,-0.679953271484,9.99818613281,1.0,0.0,0.0,0.0,1.0,0.0,0.0,0.0,1.0
1463923324805161795,364,1463923324786945519,,-1.76514899731,-5.88985300064,11.5633468628,0.0204189997166,1.0,0.0,0.0,0.0,1.0,0.0,0.0,0.0,1.0,-0.0609756112099,6.82926845551,-0.365853667259,1.0,0.0,0.0,0.0,1.0,0.0,0.0,0.0,1.0,0.234631762695,-0.627280834961,10.0508585693,1.0,0.0,0.0,0.0,1.0,0.0,0.0,0.0,1.0
1463923324814768368,365,1463923324807634024,,-1.66560399532,-5.86290597916,11.5465354919,0.0204559992999,1.0,0.0,0.0,0.0,1.0,0.0,0.0,0.0,1.0,0.0,3.41463422775,-0.487804889679,1.0,0.0,0.0,0.0,1.0,0.0,0.0,0.0,1.0,0.253785375977,-0.737414111328,10.0795889893,1.0,0.0,0.0,0.0,1.0,0.0,0.0,0.0,1.0
1463923324831858972,366,1463923324827787636,,-1.65844714642,-5.8359503746,11.5256547928,0.0203920006752,1.0,0.0,0.0,0.0,1.0,0.0,0.0,0.0,1.0,-0.12195122242,0.0609756112099,-1.03658533096,1.0,0.0,0.0,0.0,1.0,0.0,0.0,0.0,1.0,0.435744702148,-0.708683691406,10.0508585693,1.0,0.0,0.0,0.0,1.0,0.0,0.0,0.0,1.0
1463923324873697387,367,1463923324854761895,,-1.66382610798,-5.79466199875,11.5092163086,0.0253180004656,1.0,0.0,0.0,0.0,1.0,0.0,0.0,0.0,1.0,-0.18292683363,1.03658533096,-0.548780500889,1.0,0.0,0.0,0.0,1.0,0.0,0.0,0.0,1.0,0.718260498047,-0.636857641602,10.0748005859,1.0,0.0,0.0,0.0,1.0,0.0,0.0,0.0,1.0
1463923324873756397,368,1463923324868969855,,-1.68514895439,-5.76262712479,11.5149850845,0.0154830003157,1.0,0.0,0.0,0.0,1.0,0.0,0.0,0.0,1.0,-0.426829278469,1.52439022064,0.548780500889,1.0,0.0,0.0,0.0,1.0,0.0,0.0,0.0,1.0,1.06781401349,-0.517147558594,10.4004120117,1.0,0.0,0.0,0.0,1.0,0.0,0.0,0.0,1.0
1463923324921300569,369,1463923324895321097,,-1.6645873785,-5.74068641663,11.5314741135,0.0261829998344,1.0,0.0,0.0,0.0,1.0,0.0,0.0,0.0,1.0,0.0609756112099,2.5,0.853658556938,1.0,0.0,0.0,0.0,1.0,0.0,0.0,0.0,1.0,0.828393774414,-0.799663354492,10.0364933594,1.0,0.0,0.0,0.0,1.0,0.0,0.0,0.0,1.0
1463923324921367913,370,1463923324909748379,,-1.64957487583,-5.73783636093,11.5400362015,0.0145950000733,1.0,0.0,0.0,0.0,1.0,0.0,0.0,0.0,1.0,-0.670731723309,2.31707310677,0.792682945728,1.0,0.0,0.0,0.0,1.0,0.0,0.0,0.0,1.0,0.756567724609,-0.790086547852,10.1609918457,1.0,0.0,0.0,0.0,1.0,0.0,0.0,0.0,1.0
1463923325149495010,371,1463923324930181573,,-1.62735724449,-5.74299097061,11.5721158981,0.0204360000789,1.0,0.0,0.0,0.0,1.0,0.0,0.0,0.0,1.0,-0.487804889679,1.76829278469,1.70731711388,1.0,0.0,0.0,0.0,1.0,0.0,0.0,0.0,1.0,0.656011254883,-0.890643017578,10.0700121826,1.0,0.0,0.0,0.0,1.0,0.0,0.0,0.0,1.0
1463923325149538604,372,1463923324950226279,,-1.63996553421,-6.08875989914,11.6169090271,0.0203840006143,1.0,0.0,0.0,0.0,1.0,0.0,0.0,0.0,1.0,0.18292683363,-0.12195122242,1.64634156227,1.0,0.0,0.0,0.0,1.0,0.0,0.0,0.0,1.0,0.675164868164,-4.36702382812,10.3381627686,1.0,0.0,0.0,0.0,1.0,0.0,0.0,0.0,1.0
1463923325152843069,373,1463923324970828118,,-1.7485306263,-6.0636267662,11.6625900269,0.0204199999571,1.0,0.0,0.0,0.0,1.0,0.0,0.0,0.0,1.0,0.18292683363,-5.48780488968,1.64634156227,1.0,0.0,0.0,0.0,1.0,0.0,0.0,0.0,1.0,0.531512805087,-0.837970581055,10.4961800781,1.0,0.0,0.0,0.0,1.0,0.0,0.0,0.0,1.0
1463923325152903173,374,1463923324991003136,,-1.90545487404,-6.02355861664,11.7059545517,0.0204409994185,1.0,0.0,0.0,0.0,1.0,0.0,0.0,0.0,1.0,-0.365853667259,-5.97560977936,1.52439022064,1.0,0.0,0.0,0.0,1.0,0.0,0.0,0.0,1.0,0.876277807617,-0.579396801758,10.2471831055,1.0,0.0,0.0,0.0,1.0,0.0,0.0,0.0,1.0
1463923325153118016,375,1463923325011354611,,-2.06606674194,-6.01221942902,11.7564020157,0.0203660000116,1.0,0.0,0.0,0.0,1.0,0.0,0.0,0.0,1.0,-1.95121955872,-7.19512224197,1.76829278469,1.0,0.0,0.0,0.0,1.0,0.0,0.0,0.0,1.0,0.713472094727,-0.526724328702,10.0652237793,1.0,0.0,0.0,0.0,1.0,0.0,0.0,0.0,1.0
1463923325153166140,376,1463923325031868430,,-2.23074054718,-5.99379968643,11.8036994934,0.0204269997776,1.0,0.0,0.0,0.0,1.0,0.0,0.0,0.0,1.0,-1.09756100178,-6.15853643417,1.70731711388,1.0,0.0,0.0,0.0,1.0,0.0,0.0,0.0,1.0,0.976834277344,-0.627280834961,10.2711251221,1.0,0.0,0.0,0.0,1.0,0.0,0.0,0.0,1.0
1463923325153206401,377,1463923325052550633,,-2.47195339203,-5.98004627228,11.8233642578,0.0204199999571,1.0,0.0,0.0,0.0,1.0,0.0,0.0,0.0,1.0,-0.609756112099,-6.95121955872,0.243902444839,1.0,0.0,0.0,0.0,1.0,0.0,0.0,0.0,1.0,1.51792385254,-0.756567724609,10.2040874756,1.0,0.0,0.0,0.0,1.0,0.0,0.0,0.0,1.0
1463923325156363106,378,1463923325072890390,,-2.65249633789,-5.99360942841,11.8483181,0.0204199999571,1.0,0.0,0.0,0.0,1.0,0.0,0.0,0.0,1.0,-0.914634168148,-3.84146332741,0.792682945728,1.0,0.0,0.0,0.0,1.0,0.0,0.0,0.0,1.0,1.61848032227,-0.952892260742,10.3381627686,1.0,0.0,0.0,0.0,1.0,0.0,0.0,0.0,1.0
1463923325156823625,379,1463923325093012023,,-2.70975065231,-6.03739881516,11.9064302444,0.0203639995307,1.0,0.0,0.0,0.0,1.0,0.0,0.0,0.0,1.0,-1.95121955872,0.426829278469,2.86585378647,1.0,0.0,0.0,0.0,1.0,0.0,0.0,0.0,1.0,1.28329208984,-0.967257470703,9.7587659668,1.0,0.0,0.0,0.0,1.0,0.0,0.0,0.0,1.0
1463923325156880760,380,1463923325113702559,,-2.75791835785,-6.01772117615,11.9337348938,0.0204470008612,1.0,0.0,0.0,0.0,1.0,0.0,0.0,0.0,1.0,-1.34146344662,1.03658533096,1.52439022064,1.0,0.0,0.0,0.0,1.0,0.0,0.0,0.0,1.0,1.39342536621,-0.593762048251,10.5488525146,1.0,0.0,0.0,0.0,1.0,0.0,0.0,0.0,1.0
1463923325419135732,381,1463923325133822369,,-2.75413227081,-6.00950717926,11.9409151077,0.0203770007938,1.0,0.0,0.0,0.0,1.0,0.0,0.0,0.0,1.0,-1.09756100178,3.84146332741,0.792682945728,1.0,0.0,0.0,0.0,1.0,0.0,0.0,0.0,1.0,1.33117612305,-0.694318481445,9.76834277344,1.0,0.0,0.0,0.0,1.0,0.0,0.0,0.0,1.0
1463923325420984735,382,1463923325154223636,,-2.74592804909,-5.99047899246,11.928606987,0.0204019993544,1.0,0.0,0.0,0.0,1.0,0.0,0.0,0.0,1.0,-0.853658556938,3.59756112099,-0.18292683363,1.0,0.0,0.0,0.0,1.0,0.0,0.0,0.0,1.0,1.28329208984,-0.679953271484,10.1897222656,1.0,0.0,0.0,0.0,1.0,0.0,0.0,0.0,1.0
1463923325422641707,383,1463923325175095578,,-2.66831755638,-5.98775196075,11.9174041748,0.0204360000789,1.0,0.0,0.0,0.0,1.0,0.0,0.0,0.0,1.0,-0.365853667259,5.42682933807,0.0,1.0,0.0,0.0,0.0,1.0,0.0,0.0,0.0,1.0,0.976834277344,-0.890643017578,9.95987890625,1.0,0.0,0.0,0.0,1.0,0.0,0.0,0.0,1.0
1463923325422704728,384,1463923325195187419,,-2.61371588707,-5.9469909668,11.8883571625,0.020422000438,1.0,0.0,0.0,0.0,1.0,0.0,0.0,0.0,1.0,-0.487804889679,3.65853667259,-0.975609779358,1.0,0.0,0.0,0.0,1.0,0.0,0.0,0.0,1.0,0.837970581055,-0.550666381836,10.060435376,1.0,0.0,0.0,0.0,1.0,0.0,0.0,0.0,1.0
1463923325424441751,385,1463923325215772644,,-2.57527184486,-5.95355987549,11.888258934,0.0204089991748,1.0,0.0,0.0,0.0,1.0,0.0,0.0,0.0,1.0,-0.487804889679,3.90243911743,0.365853667259,1.0,0.0,0.0,0.0,1.0,0.0,0.0,0.0,1.0,1.0534486574,-0.957680664062,10.1705686523,1.0,0.0,0.0,0.0,1.0,0.0,0.0,0.0,1.0
1463923325424496178,386,1463923325236092244,,-2.47338271141,-5.94600296021,11.8924894333,0.0203690007329,1.0,0.0,0.0,0.0,1.0,0.0,0.0,0.0,1.0,-0.548780500889,3.29268312454,0.548780500889,1.0,0.0,0.0,0.0,1.0,0.0,0.0,0.0,1.0,0.373495458984,-0.818816967773,10.1418382324,1.0,0.0,0.0,0.0,1.0,0.0,0.0,0.0,1.0
1463923325424855239,387,1463923325256556688,,-2.4706056118,-5.94191217422,11.8824634552,0.0204259995371,1.0,0.0,0.0,0.0,1.0,0.0,0.0,0.0,1.0,-0.731707334518,0.12195122242,-0.487804889679,1.0,0.0,0.0,0.0,1.0,0.0,0.0,0.0,1.0,0.632069238281,-0.804451757813,9.94551369629,1.0,0.0,0.0,0.0,1.0,0.0,0.0,0.0,1.0
1463923325425128155,388,1463923325277336026,,-2.50405025482,-5.93015193939,11.9024677277,0.0204189997166,1.0,0.0,0.0,0.0,1.0,0.0,0.0,0.0,1.0,-1.03658533096,0.243902444839,1.03658533096,1.0,0.0,0.0,0.0,1.0,0.0,0.0,0.0,1.0,1.00077629395,-0.675164868164,10.0077629395,1.0,0.0,0.0,0.0,1.0,0.0,0.0,0.0,1.0
1463923325425398310,389,1463923325297554377,,-2.54862308502,-5.91909265518,11.9184484482,0.0204089991748,1.0,0.0,0.0,0.0,1.0,0.0,0.0,0.0,1.0,-0.670731723309,0.548780500889,0.853658556938,1.0,0.0,0.0,0.0,1.0,0.0,0.0,0.0,1.0,1.17315874041,-0.756567724609,10.1562034424,1.0,0.0,0.0,0.0,1.0,0.0,0.0,0.0,1.0
1463923325429467251,390,1463923325318399340,,-2.58300566673,-5.89594554901,11.9252004623,0.0204150006175,1.0,0.0,0.0,0.0,1.0,0.0,0.0,0.0,1.0,-0.853658556938,1.64634156227,0.548780500889,1.0,0.0,0.0,0.0,1.0,0.0,0.0,0.0,1.0,1.2737152832,-0.612915625,10.0891657959,1.0,0.0,0.0,0.0,1.0,0.0,0.0,0.0,1.0
1463923325429911468,391,1463923325338450557,,-2.59197902679,-5.86730146408,11.914349556,0.0204009991139,1.0,0.0,0.0,0.0,1.0,0.0,0.0,0.0,1.0,-0.487804889679,3.59756112099,-0.12195122242,1.0,0.0,0.0,0.0,1.0,0.0,0.0,0.0,1.0,1.39342536621,-0.632069238281,10.0843773926,1.0,0.0,0.0,0.0,1.0,0.0,0.0,0.0,1.0
1463923325432475102,392,1463923325358842136,,-2.56474685669,-5.82484769821,11.8939151764,0.0204210001975,1.0,0.0,0.0,0.0,1.0,0.0,0.0,0.0,1.0,-0.365853667259,5.0,-0.426829278469,1.0,0.0,0.0,0.0,1.0,0.0,0.0,0.0,1.0,1.33117612305,-0.536301208408,10.1753570557,1.0,0.0,0.0,0.0,1.0,0.0,0.0,0.0,1.0
1463923325432835674,393,1463923325380185066,,-2.44107460976,-5.8423037529,11.8674659729,0.0204840004444,1.0,0.0,0.0,0.0,1.0,0.0,0.0,0.0,1.0,-1.15853655338,7.07317113876,-0.609756112099,1.0,0.0,0.0,0.0,1.0,0.0,0.0,0.0,1.0,0.842758984375,-0.9193734375,10.1562034424,1.0,0.0,0.0,0.0,1.0,0.0,0.0,0.0,1.0
1463923325433181662,394,1463923325399238057,,-2.31454396248,-5.81454133987,11.8490905762,0.0203040000051,1.0,0.0,0.0,0.0,1.0,0.0,0.0,0.0,1.0,0.0,7.01219511032,-0.18292683363,1.0,0.0,0.0,0.0,1.0,0.0,0.0,0.0,1.0,0.751779321289,-0.699106884766,9.77313117676,1.0,0.0,0.0,0.0,1.0,0.0,0.0,0.0,1.0
1463923325651398177,395,1463923325419887865,,-2.22079515457,-5.77670288086,11.8448123932,0.0204169992357,1.0,0.0,0.0,0.0,1.0,0.0,0.0,0.0,1.0,-0.304878056049,4.69512224197,0.304878056049,1.0,0.0,0.0,0.0,1.0,0.0,0.0,0.0,1.0,0.641646044922,-0.569819995117,10.0795889893,1.0,0.0,0.0,0.0,1.0,0.0,0.0,0.0,1.0
1463923325651434218,396,1463923325440367412,,-2.34480834007,-5.91441965103,11.8519353867,0.0204900000244,1.0,0.0,0.0,0.0,1.0,0.0,0.0,0.0,1.0,0.365853667259,2.25609779358,0.243902444839,1.0,0.0,0.0,0.0,1.0,0.0,0.0,0.0,1.0,1.9105729248,-1.99676418457,8.8633345459,1.0,0.0,0.0,0.0,1.0,0.0,0.0,0.0,1.0
1463923325651564010,397,1463923325460673784,,-2.39524269104,-5.84582901001,11.8655252457,0.0202970001847,1.0,0.0,0.0,0.0,1.0,0.0,0.0,0.0,1.0,2.01219511032,-1.8902438879,0.487804889679,1.0,0.0,0.0,0.0,1.0,0.0,0.0,0.0,1.0,0.746990917969,-0.723048901367,10.0891657959,1.0,0.0,0.0,0.0,1.0,0.0,0.0,0.0,1.0
1463923325651627551,398,1463923325481064478,,-2.46493577957,-5.78215360641,11.8685350418,0.0204210001975,1.0,0.0,0.0,0.0,1.0,0.0,0.0,0.0,1.0,2.01219511032,-0.853658556938,0.0609756112099,1.0,0.0,0.0,0.0,1.0,0.0,0.0,0.0,1.0,1.11569797363,-0.77093293457,10.2232410889,1.0,0.0,0.0,0.0,1.0,0.0,0.0,0.0,1.0
1463923325651668540,399,1463923325501368766,,-2.54665493965,-5.71512126923,11.87849617,0.0204070005566,1.0,0.0,0.0,0.0,1.0,0.0,0.0,0.0,1.0,1.2804877758,-1.03658533096,0.426829278469,1.0,0.0,0.0,0.0,1.0,0.0,0.0,0.0,1.0,1.22104284668,-0.598550451572,10.3285859619,1.0,0.0,0.0,0.0,1.0,0.0,0.0,0.0,1.0
1463923325651703592,400,1463923325521856231,,-2.61477541924,-5.67425680161,11.8889293671,0.0204000007361,1.0,0.0,0.0,0.0,1.0,0.0,0.0,0.0,1.0,0.304878056049,0.0609756112099,0.548780500889,1.0,0.0,0.0,0.0,1.0,0.0,0.0,0.0,1.0,1.26892687988,-0.61770402832,9.94072529297,1.0,0.0,0.0,0.0,1.0,0.0,0.0,0.0,1.0
1463923325651754373,401,1463923325542253904,,-2.56775808334,-5.63046312332,11.8942260742,0.0204140003771,1.0,0.0,0.0,0.0,1.0,0.0,0.0,0.0,1.0,0.975609779358,2.86585378647,0.548780500889,1.0,0.0,0.0,0.0,1.0,0.0,0.0,0.0,1.0,0.790086547852,-0.723048901367,10.1514150391,1.0,0.0,0.0,0.0,1.0,0.0,0.0,0.0,1.0
1463923325651792394,402,1463923325562315641,,-2.57056975365,-5.59648799896,11.8974647522,0.0204109996557,1.0,0.0,0.0,0.0,1.0,0.0,0.0,0.0,1.0,0.487804889679,2.68292689323,0.426829278469,1.0,0.0,0.0,0.0,1.0,0.0,0.0,0.0,1.0,1.17315874041,-0.703895288086,10.0125513428,1.0,0.0,0.0,0.0,1.0,0.0,0.0,0.0,1.0
1463923325651828748,403,1463923325582922949,,-2.55050230026,-5.56293678284,11.8879394531,0.0204329993576,1.0,0.0,0.0,0.0,1.0,0.0,0.0,0.0,1.0,-0.304878056049,3.17073178291,-0.12195122242,1.0,0.0,0.0,0.0,1.0,0.0,0.0,0.0,1.0,1.08217922346,-0.584185168546,10.3333743652,1.0,0.0,0.0,0.0,1.0,0.0,0.0,0.0,1.0
1463923325651864842,404,1463923325603717912,,-2.51647591591,-5.55719518661,11.8789262772,0.0204009991139,1.0,0.0,0.0,0.0,1.0,0.0,0.0,0.0,1.0,-0.426829278469,4.14634132385,-0.0609756112099,1.0,0.0,0.0,0.0,1.0,0.0,0.0,0.0,1.0,1.12527478027,-0.799663354492,10.2519715088,1.0,0.0,0.0,0.0,1.0,0.0,0.0,0.0,1.0
1463923325651901612,405,1463923325623593660,,-2.49901413918,-5.52146053314,11.8647880554,0.0204109996557,1.0,0.0,0.0,0.0,1.0,0.0,0.0,0.0,1.0,0.853658556938,3.53658556938,-0.365853667259,1.0,0.0,0.0,0.0,1.0,0.0,0.0,0.0,1.0,1.17315874041,-0.780509741211,10.4482960449,1.0,0.0,0.0,0.0,1.0,0.0,0.0,0.0,1.0
1463923325652047185,406,1463923325644097635,,-2.45873856544,-5.47726297379,11.8483247757,0.0204089991748,1.0,0.0,0.0,0.0,1.0,0.0,0.0,0.0,1.0,0.487804889679,3.7804877758,-0.426829278469,1.0,0.0,0.0,0.0,1.0,0.0,0.0,0.0,1.0,0.962469067383,-0.603338854892,10.0125513428,1.0,0.0,0.0,0.0,1.0,0.0,0.0,0.0,1.0
1463923325688513435,407,1463923325665299315,,-2.38800430298,-5.47719144821,11.8348350525,0.0203799996525,1.0,0.0,0.0,0.0,1.0,0.0,0.0,0.0,1.0,-0.426829278469,4.14634132385,-0.304878056049,1.0,0.0,0.0,0.0,1.0,0.0,0.0,0.0,1.0,0.77093293457,-0.833182177734,10.2040874756,1.0,0.0,0.0,0.0,1.0,0.0,0.0,0.0,1.0
1463923325688793746,408,1463923325684702774,,-2.34630393982,-5.49446058273,11.8212995529,0.0204169992357,1.0,0.0,0.0,0.0,1.0,0.0,0.0,0.0,1.0,-0.792682945728,3.10975623131,-0.426829278469,1.0,0.0,0.0,0.0,1.0,0.0,0.0,0.0,1.0,0.818816967773,-0.909796630859,10.0795889893,1.0,0.0,0.0,0.0,1.0,0.0,0.0,0.0,1.0
1463923325734252302,409,1463923325705263780,,-2.31609988213,-5.50324773788,11.8255929947,0.0204039998353,1.0,0.0,0.0,0.0,1.0,0.0,0.0,0.0,1.0,0.0609756112099,1.76829278469,0.304878056049,1.0,0.0,0.0,0.0,1.0,0.0,0.0,0.0,1.0,0.679953271484,-0.976834277344,9.99339772949,1.0,0.0,0.0,0.0,1.0,0.0,0.0,0.0,1.0
1463923325734296156,410,1463923325725498225,,-2.28653621674,-5.50518417358,11.818359375,0.0204130001366,1.0,0.0,0.0,0.0,1.0,0.0,0.0,0.0,1.0,0.12195122242,1.2195122242,-0.304878056049,1.0,0.0,0.0,0.0,1.0,0.0,0.0,0.0,1.0,0.569819995117,-0.928950244141,9.94551369629,1.0,0.0,0.0,0.0,1.0,0.0,0.0,0.0,1.0
1463923325768766738,411,1463923325745917044,,-2.31268072128,-5.49910497665,11.8275632858,0.0204060003161,1.0,0.0,0.0,0.0,1.0,0.0,0.0,0.0,1.0,-0.487804889679,0.609756112099,0.487804889679,1.0,0.0,0.0,0.0,1.0,0.0,0.0,0.0,1.0,0.967257470703,-0.756567724609,10.0939541992,1.0,0.0,0.0,0.0,1.0,0.0,0.0,0.0,1.0
1463923325768901529,412,1463923325766285654,,-2.34210014343,-5.51055335999,11.843462944,0.0204009991139,1.0,0.0,0.0,0.0,1.0,0.0,0.0,0.0,1.0,-0.914634168148,-0.731707334518,0.670731723309,1.0,0.0,0.0,0.0,1.0,0.0,0.0,0.0,1.0,0.76614453125,-0.833182177734,10.1178962158,1.0,0.0,0.0,0.0,1.0,0.0,0.0,0.0,1.0
1463923325790395864,413,1463923325787021347,,-2.31573700905,-5.45848655701,11.8629331589,0.020422000438,1.0,0.0,0.0,0.0,1.0,0.0,0.0,0.0,1.0,0.914634168148,1.95121955872,1.15853655338,1.0,0.0,0.0,0.0,1.0,0.0,0.0,0.0,1.0,0.76135612793,-0.598550451572,10.046070166,1.0,0.0,0.0,0.0,1.0,0.0,0.0,0.0,1.0
1463923325812391655,414,1463923325807410166,,-2.33471417427,-5.35832548141,11.8832817078,0.0204000007361,1.0,0.0,0.0,0.0,1.0,0.0,0.0,0.0,1.0,1.2195122242,0.0,1.09756100178,1.0,0.0,0.0,0.0,1.0,0.0,0.0,0.0,1.0,0.814028564453,-0.225054956055,10.180145459,1.0,0.0,0.0,0.0,1.0,0.0,0.0,0.0,1.0
1463923325830814597,415,1463923325827769767,,-2.46491622925,-5.36830711365,11.9151039124,0.0204119998962,1.0,0.0,0.0,0.0,1.0,0.0,0.0,0.0,1.0,-0.548780500889,-4.39024400711,1.09756100178,1.0,0.0,0.0,0.0,1.0,0.0,0.0,0.0,1.0,1.01992990723,-0.861912597656,10.2040874756,1.0,0.0,0.0,0.0,1.0,0.0,0.0,0.0,1.0
1463923325870232450,416,1463923325848257960,,-2.60477542877,-5.35451936722,11.912361145,0.0204169992357,1.0,0.0,0.0,0.0,1.0,0.0,0.0,0.0,1.0,0.853658556938,-1.76829278469,-0.365853667259,1.0,0.0,0.0,0.0,1.0,0.0,0.0,0.0,1.0,1.65199914551,-0.957680664062,10.6254669678,1.0,0.0,0.0,0.0,1.0,0.0,0.0,0.0,1.0
1463923325870982707,417,1463923325868904591,,-2.75594329834,-5.3259935379,11.884139061,0.0203970000148,1.0,0.0,0.0,0.0,1.0,0.0,0.0,0.0,1.0,0.731707334518,2.07317066193,-1.2195122242,1.0,0.0,0.0,0.0,1.0,0.0,0.0,0.0,1.0,2.38462499965,-0.756567724609,10.0269165527,1.0,0.0,0.0,0.0,1.0,0.0,0.0,0.0,1.0
1463923325891809284,418,1463923325888902161,,-2.73361611366,-5.2949719429,11.8486242294,0.0204029995948,1.0,0.0,0.0,0.0,1.0,0.0,0.0,0.0,1.0,0.18292683363,8.84146404266,-0.914634168148,1.0,0.0,0.0,0.0,1.0,0.0,0.0,0.0,1.0,2.12126281703,-0.646434448242,10.2184526855,1.0,0.0,0.0,0.0,1.0,0.0,0.0,0.0,1.0
1463923325917196780,419,1463923325909341345,,-2.53188681602,-5.28250360489,11.7942447662,0.0204269997776,1.0,0.0,0.0,0.0,1.0,0.0,0.0,0.0,1.0,0.18292683363,13.4756097794,-1.46341466904,1.0,0.0,0.0,0.0,1.0,0.0,0.0,0.0,1.0,1.30723410645,-0.804451757813,10.046070166,1.0,0.0,0.0,0.0,1.0,0.0,0.0,0.0,1.0
1463923325934202124,420,1463923325929662977,,-2.27714133263,-5.23059844971,11.7323455811,0.0203980002552,1.0,0.0,0.0,0.0,1.0,0.0,0.0,0.0,1.0,1.03658533096,13.1707324982,-1.8292683363,1.0,0.0,0.0,0.0,1.0,0.0,0.0,0.0,1.0,0.742202514648,-0.612915625,10.0843773926,1.0,0.0,0.0,0.0,1.0,0.0,0.0,0.0,1.0
1463923325961902110,421,1463923325950171327,,-2.05861258507,-5.18281650543,11.6713924408,0.0204509999603,1.0,0.0,0.0,0.0,1.0,0.0,0.0,0.0,1.0,1.03658533096,9.5731716156,-2.13414645195,1.0,0.0,0.0,0.0,1.0,0.0,0.0,0.0,1.0,0.373495458984,-0.636857641602,10.0508585693,1.0,0.0,0.0,0.0,1.0,0.0,0.0,0.0,1.0
1463923325975045387,422,1463923325970562125,,-1.90273880959,-5.15946245193,11.6113853455,0.020386999473,1.0,0.0,0.0,0.0,1.0,0.0,0.0,0.0,1.0,0.365853667259,5.48780488968,-2.5,1.0,0.0,0.0,0.0,1.0,0.0,0.0,0.0,1.0,0.143652099609,-0.703895288086,9.83538041992,1.0,0.0,0.0,0.0,1.0,0.0,0.0,0.0,1.0
1463923325993169528,423,1463923325991051048,,-1.80689799786,-5.12330913544,11.5980987549,0.0203900001943,1.0,0.0,0.0,0.0,1.0,0.0,0.0,0.0,1.0,0.304878056049,3.41463422775,-0.365853667259,1.0,0.0,0.0,0.0,1.0,0.0,0.0,0.0,1.0,0.316034619141,-0.588973571866,10.2376062988,1.0,0.0,0.0,0.0,1.0,0.0,0.0,0.0,1.0
1463923326036218771,424,1463923326011445179,,-1.73879683018,-5.09255552292,11.6337213516,0.0204199999571,1.0,0.0,0.0,0.0,1.0,0.0,0.0,0.0,1.0,-0.12195122242,-0.975609779358,1.64634156227,1.0,0.0,0.0,0.0,1.0,0.0,0.0,0.0,1.0,-0.205901342773,-0.521935925381,9.90241806641,1.0,0.0,0.0,0.0,1.0,0.0,0.0,0.0,1.0
1463923326036637051,425,1463923326031792332,,-1.82149863243,-5.09180450439,11.6671457291,0.0203889999539,1.0,0.0,0.0,0.0,1.0,0.0,0.0,0.0,1.0,-1.03658533096,-5.73170757294,1.09756100178,1.0,0.0,0.0,0.0,1.0,0.0,0.0,0.0,1.0,0.244208569336,-0.627280834961,10.1035310059,1.0,0.0,0.0,0.0,1.0,0.0,0.0,0.0,1.0
1463923326066937911,426,1463923326052160734,,-2.00200390816,-5.10032176971,11.7198810577,0.0204109996557,1.0,0.0,0.0,0.0,1.0,0.0,0.0,0.0,1.0,-0.975609779358,-6.64634132385,1.95121955872,1.0,0.0,0.0,0.0,1.0,0.0,0.0,0.0,1.0,0.995987890625,-0.732625708008,10.3908352051,1.0,0.0,0.0,0.0,1.0,0.0,0.0,0.0,1.0
1463923326075299542,427,1463923326072740021,,-2.25181651115,-5.08445358276,11.7363109589,0.0204160008579,1.0,0.0,0.0,0.0,1.0,0.0,0.0,0.0,1.0,-0.365853667259,-5.36585378647,0.304878056049,1.0,0.0,0.0,0.0,1.0,0.0,0.0,0.0,1.0,1.87705410156,-0.632069238281,10.3764699951,1.0,0.0,0.0,0.0,1.0,0.0,0.0,0.0,1.0
1463923326099141679,428,1463923326093046705,,-2.39026474953,-5.04487228394,11.7614688873,0.0204450003803,1.0,0.0,0.0,0.0,1.0,0.0,0.0,0.0,1.0,1.09756100178,0.12195122242,1.2195122242,1.0,0.0,0.0,0.0,1.0,0.0,0.0,0.0,1.0,1.93451494141,-0.679953271484,10.3477395752,1.0,0.0,0.0,0.0,1.0,0.0,0.0,0.0,1.0
1463923326116676136,429,1463923326113491566,,-2.39481592178,-5.04240083694,11.743847847,0.0203840006143,1.0,0.0,0.0,0.0,1.0,0.0,0.0,0.0,1.0,0.304878056049,5.12195110321,-0.487804889679,1.0,0.0,0.0,0.0,1.0,0.0,0.0,0.0,1.0,1.58496149902,-0.852335791016,10.0221281494,1.0,0.0,0.0,0.0,1.0,0.0,0.0,0.0,1.0
1463923326138980780,430,1463923326133813041,,-2.32986760139,-5.01933431625,11.6921682358,0.0203760005534,1.0,0.0,0.0,0.0,1.0,0.0,0.0,0.0,1.0,0.12195122242,9.08536529541,-1.76829278469,1.0,0.0,0.0,0.0,1.0,0.0,0.0,0.0,1.0,1.69030637207,-0.660799658203,10.2040874756,1.0,0.0,0.0,0.0,1.0,0.0,0.0,0.0,1.0
1463923326160995894,431,1463923326154267902,,-2.13898301125,-4.97410964966,11.6421422958,0.0204099994153,1.0,0.0,0.0,0.0,1.0,0.0,0.0,0.0,1.0,0.426829278469,12.0121955872,-1.40243899822,1.0,0.0,0.0,0.0,1.0,0.0,0.0,0.0,1.0,1.04866025408,-0.497993945312,9.86889924316,1.0,0.0,0.0,0.0,1.0,0.0,0.0,0.0,1.0
1463923326179558523,432,1463923326174710523,,-1.88657915592,-4.95656251907,11.5834217072,0.0204319991171,1.0,0.0,0.0,0.0,1.0,0.0,0.0,0.0,1.0,0.0609756112099,11.2195119858,-1.95121955872,1.0,0.0,0.0,0.0,1.0,0.0,0.0,0.0,1.0,0.349553442383,-0.679953271484,10.0652237793,1.0,0.0,0.0,0.0,1.0,0.0,0.0,0.0,1.0
1463923326209138501,433,1463923326195056842,,-1.67285239697,-4.92005777359,11.559088707,0.0203900001943,1.0,0.0,0.0,0.0,1.0,0.0,0.0,0.0,1.0,0.853658556938,9.39024448395,-0.426829278469,1.0,0.0,0.0,0.0,1.0,0.0,0.0,0.0,1.0,0.330399829102,-0.627280834961,9.85932243652,1.0,0.0,0.0,0.0,1.0,0.0,0.0,0.0,1.0
1463923326222018081,434,1463923326215487484,,-1.49908256531,-4.85980987549,11.5642986298,0.0204310007393,1.0,0.0,0.0,0.0,1.0,0.0,0.0,0.0,1.0,0.0,6.82926845551,0.853658556938,1.0,0.0,0.0,0.0,1.0,0.0,0.0,0.0,1.0,0.220266552734,-0.272938989258,10.2519715088,1.0,0.0,0.0,0.0,1.0,0.0,0.0,0.0,1.0
1463923326243386271,435,1463923326235843230,,-1.3745136261,-4.81912279129,11.5801048279,0.0203900001943,1.0,0.0,0.0,0.0,1.0,0.0,0.0,0.0,1.0,-0.548780500889,3.17073178291,1.03658533096,1.0,0.0,0.0,0.0,1.0,0.0,0.0,0.0,1.0,-0.0335188255255,-0.330399829102,10.1609918457,1.0,0.0,0.0,0.0,1.0,0.0,0.0,0.0,1.0
1463923326270447197,436,1463923326256222154,,-1.39038956165,-4.84375619888,11.6232042313,0.0204380005598,1.0,0.0,0.0,0.0,1.0,0.0,0.0,0.0,1.0,-0.853658556938,-2.37804889679,1.8292683363,1.0,0.0,0.0,0.0,1.0,0.0,0.0,0.0,1.0,0.201112939453,-0.837970581055,10.1514150391,1.0,0.0,0.0,0.0,1.0,0.0,0.0,0.0,1.0
1463923326282655999,437,1463923326276649410,,-1.47640669346,-4.89415359497,11.66547966,0.0203649997711,1.0,0.0,0.0,0.0,1.0,0.0,0.0,0.0,1.0,-2.80487799644,-6.46341466904,1.46341466904,1.0,0.0,0.0,0.0,1.0,0.0,0.0,0.0,1.0,0.0861912597656,-0.713472094727,10.0652237793,1.0,0.0,0.0,0.0,1.0,0.0,0.0,0.0,1.0
1463923326337334671,438,1463923326297195155,,-1.65734422207,-4.91820955276,11.7152013779,0.0204119998962,1.0,0.0,0.0,0.0,1.0,0.0,0.0,0.0,1.0,-1.58536589146,-8.5365858078,1.64634156227,1.0,0.0,0.0,0.0,1.0,0.0,0.0,0.0,1.0,0.569819995117,-0.713472094727,10.1753570557,1.0,0.0,0.0,0.0,1.0,0.0,0.0,0.0,1.0
1463923326338315969,439,1463923326317694287,,-1.89455854893,-4.89557647705,11.7889404297,0.0204329993576,1.0,0.0,0.0,0.0,1.0,0.0,0.0,0.0,1.0,-0.426829278469,-9.20731735229,2.80487799644,1.0,0.0,0.0,0.0,1.0,0.0,0.0,0.0,1.0,1.01035310059,-0.512359155273,10.3285859619,1.0,0.0,0.0,0.0,1.0,0.0,0.0,0.0,1.0
1463923326366245798,440,1463923326338130241,,-2.1097342968,-4.89038324356,11.8434829712,0.0203990004957,1.0,0.0,0.0,0.0,1.0,0.0,0.0,0.0,1.0,-0.670731723309,-7.37804937363,2.01219511032,1.0,0.0,0.0,0.0,1.0,0.0,0.0,0.0,1.0,1.16358193377,-0.612915625,10.1609918457,1.0,0.0,0.0,0.0,1.0,0.0,0.0,0.0,1.0
1463923326368579486,441,1463923326358465571,,-2.32303881645,-4.90334272385,11.8803873062,0.0204130001366,1.0,0.0,0.0,0.0,1.0,0.0,0.0,0.0,1.0,-1.15853655338,-4.93902444839,1.34146344662,1.0,0.0,0.0,0.0,1.0,0.0,0.0,0.0,1.0,1.61369191895,-0.684741674805,10.1131078125,1.0,0.0,0.0,0.0,1.0,0.0,0.0,0.0,1.0
1463923326384257856,442,1463923326378635172,,-2.47764873505,-4.91468858719,11.9075212479,0.0204610005021,1.0,0.0,0.0,0.0,1.0,0.0,0.0,0.0,1.0,-0.914634168148,-1.40243899822,1.15853655338,1.0,0.0,0.0,0.0,1.0,0.0,0.0,0.0,1.0,1.77649763184,-0.723048901367,10.1705686523,1.0,0.0,0.0,0.0,1.0,0.0,0.0,0.0,1.0
1463923326409471082,443,1463923326398944200,,-2.54693889618,-4.89708280563,11.9144935608,0.0203220006078,1.0,0.0,0.0,0.0,1.0,0.0,0.0,0.0,1.0,-0.18292683363,1.8902438879,0.487804889679,1.0,0.0,0.0,0.0,1.0,0.0,0.0,0.0,1.0,1.64721074219,-0.612915625,10.2711251221,1.0,0.0,0.0,0.0,1.0,0.0,0.0,0.0,1.0
1463923326433800509,444,1463923326426552415,,-2.51617836952,-4.90981578827,11.8959932327,0.0214089993387,1.0,0.0,0.0,0.0,1.0,0.0,0.0,0.0,1.0,-0.365853667259,6.0365858078,-0.426829278469,1.0,0.0,0.0,0.0,1.0,0.0,0.0,0.0,1.0,1.47482822266,-0.833182177734,10.0029745361,1.0,0.0,0.0,0.0,1.0,0.0,0.0,0.0,1.0
1463923326472348730,445,1463923326440913968,,-2.44509291649,-4.90866374969,11.8681812286,0.0196139998734,1.0,0.0,0.0,0.0,1.0,0.0,0.0,0.0,1.0,-0.365853667259,7.19512224197,-0.853658556938,1.0,0.0,0.0,0.0,1.0,0.0,0.0,0.0,1.0,1.28329208984,-0.727837304687,10.0748005859,1.0,0.0,0.0,0.0,1.0,0.0,0.0,0.0,1.0
1463923326473466537,446,1463923326460862685,,-2.31870961189,-4.91754436493,11.8364620209,0.020320000127,1.0,0.0,0.0,0.0,1.0,0.0,0.0,0.0,1.0,-0.426829278469,7.68292665482,-0.975609779358,1.0,0.0,0.0,0.0,1.0,0.0,0.0,0.0,1.0,0.890643017578,-0.809240161133,10.1035310059,1.0,0.0,0.0,0.0,1.0,0.0,0.0,0.0,1.0
1463923326537449076,447,1463923326481360149,,-2.1748418808,-4.91299676895,11.8177967072,0.0203210003674,1.0,0.0,0.0,0.0,1.0,0.0,0.0,0.0,1.0,-0.243902444839,6.34146356583,-0.426829278469,1.0,0.0,0.0,0.0,1.0,0.0,0.0,0.0,1.0,0.483628735352,-0.723048901367,10.1466266357,1.0,0.0,0.0,0.0,1.0,0.0,0.0,0.0,1.0
1463923326538114959,448,1463923326501404803,,-2.07760930061,-4.91551065445,11.8097219467,0.0204189997166,1.0,0.0,0.0,0.0,1.0,0.0,0.0,0.0,1.0,-0.243902444839,3.96341490746,-0.12195122242,1.0,0.0,0.0,0.0,1.0,0.0,0.0,0.0,1.0,0.445321508789,-0.76614453125,9.95509050293,1.0,0.0,0.0,0.0,1.0,0.0,0.0,0.0,1.0
1463923326538201104,449,1463923326521827789,,-2.03077363968,-4.90894031525,11.8170251846,0.0204680003226,1.0,0.0,0.0,0.0,1.0,0.0,0.0,0.0,1.0,-0.487804889679,1.2804877758,0.426829278469,1.0,0.0,0.0,0.0,1.0,0.0,0.0,0.0,1.0,0.402225878906,-0.641646044922,9.97903251953,1.0,0.0,0.0,0.0,1.0,0.0,0.0,0.0,1.0
1463923326730743094,450,1463923326542824157,,-2.06137871742,-4.89683961868,11.8380584717,0.0203450005502,1.0,0.0,0.0,0.0,1.0,0.0,0.0,0.0,1.0,-1.15853655338,-1.34146344662,0.914634168148,1.0,0.0,0.0,0.0,1.0,0.0,0.0,0.0,1.0,0.622492431641,-0.478840332031,10.1897222656,1.0,0.0,0.0,0.0,1.0,0.0,0.0,0.0,1.0
1463923326730802000,451,1463923326564650783,,-2.13413023949,-4.89589309692,11.8677959442,0.0204039998353,1.0,0.0,0.0,0.0,1.0,0.0,0.0,0.0,1.0,-0.792682945728,-2.37804889679,1.2195122242,1.0,0.0,0.0,0.0,1.0,0.0,0.0,0.0,1.0,0.823605371094,-0.641646044922,10.2376062988,1.0,0.0,0.0,0.0,1.0,0.0,0.0,0.0,1.0
1463923326730844395,452,1463923326582797372,,-2.26011800766,-4.88732862473,11.8945617676,0.0204189997166,1.0,0.0,0.0,0.0,1.0,0.0,0.0,0.0,1.0,-0.792682945728,-2.98780488968,1.03658533096,1.0,0.0,0.0,0.0,1.0,0.0,0.0,0.0,1.0,1.19231249982,-0.569819995117,10.180145459,1.0,0.0,0.0,0.0,1.0,0.0,0.0,0.0,1.0
1463923326730882572,453,1463923326603231451,,-2.36177539825,-4.89402961731,11.9212617874,0.0203799996525,1.0,0.0,0.0,0.0,1.0,0.0,0.0,0.0,1.0,-0.731707334518,-1.2195122242,1.15853655338,1.0,0.0,0.0,0.0,1.0,0.0,0.0,0.0,1.0,1.33117612305,-0.718260498047,10.2328178955,1.0,0.0,0.0,0.0,1.0,0.0,0.0,0.0,1.0
1463923326730921322,454,1463923326623547719,,-2.4097673893,-4.90976381302,11.9252004623,0.0203980002552,1.0,0.0,0.0,0.0,1.0,0.0,0.0,0.0,1.0,-0.853658556938,1.34146344662,0.243902444839,1.0,0.0,0.0,0.0,1.0,0.0,0.0,0.0,1.0,1.32638771973,-0.790086547852,10.2807019287,1.0,0.0,0.0,0.0,1.0,0.0,0.0,0.0,1.0
1463923326731400278,455,1463923326644225859,,-2.42974042892,-4.91506624222,11.9200115204,0.0204249992967,1.0,0.0,0.0,0.0,1.0,0.0,0.0,0.0,1.0,-0.243902444839,3.04878044128,-0.0609756112099,1.0,0.0,0.0,0.0,1.0,0.0,0.0,0.0,1.0,1.37427175293,-0.804451757813,10.1562034424,1.0,0.0,0.0,0.0,1.0,0.0,0.0,0.0,1.0
1463923326734614379,456,1463923326664459627,,-2.38886284828,-4.92074489594,11.8948478699,0.0204119998962,1.0,0.0,0.0,0.0,1.0,0.0,0.0,0.0,1.0,-0.487804889679,5.85365867615,-0.792682945728,1.0,0.0,0.0,0.0,1.0,0.0,0.0,0.0,1.0,1.32159931641,-0.76614453125,10.0795889893,1.0,0.0,0.0,0.0,1.0,0.0,0.0,0.0,1.0
1463923326734676983,457,1463923326685078705,,-2.30315566063,-4.92617082596,11.8920154572,0.0204039998353,1.0,0.0,0.0,0.0,1.0,0.0,0.0,0.0,1.0,-0.365853667259,5.18292713165,0.243902444839,1.0,0.0,0.0,0.0,1.0,0.0,0.0,0.0,1.0,0.809240161133,-0.775721337891,10.0364933594,1.0,0.0,0.0,0.0,1.0,0.0,0.0,0.0,1.0
1463923326783593388,458,1463923326711699737,,-2.17677807808,-4.89983129501,11.87550354,0.0268019996583,1.0,0.0,0.0,0.0,1.0,0.0,0.0,0.0,1.0,0.0609756112099,5.42682933807,-0.18292683363,1.0,0.0,0.0,0.0,1.0,0.0,0.0,0.0,1.0,0.742202514648,-0.636857641602,10.0939541992,1.0,0.0,0.0,0.0,1.0,0.0,0.0,0.0,1.0
1463923326783827554,459,1463923326725554157,,-2.11451745033,-4.89580821991,11.8670053482,0.0139939999208,1.0,0.0,0.0,0.0,1.0,0.0,0.0,0.0,1.0,-0.18292683363,4.87804889679,-0.243902444839,1.0,0.0,0.0,0.0,1.0,0.0,0.0,0.0,1.0,0.656011254883,-0.699106884766,9.89762966309,1.0,0.0,0.0,0.0,1.0,0.0,0.0,0.0,1.0
1463923326783871564,460,1463923326745915685,,-2.06363010406,-4.89321947098,11.8688688278,0.0204060003161,1.0,0.0,0.0,0.0,1.0,0.0,0.0,0.0,1.0,-0.304878056049,1.70731711388,0.18292683363,1.0,0.0,0.0,0.0,1.0,0.0,0.0,0.0,1.0,0.445321508789,-0.708683691406,10.0077629395,1.0,0.0,0.0,0.0,1.0,0.0,0.0,0.0,1.0
1463923326784177605,461,1463923326766388670,,-2.04343676567,-4.88981628418,11.8690357208,0.0204160008579,1.0,0.0,0.0,0.0,1.0,0.0,0.0,0.0,1.0,-0.670731723309,1.09756100178,0.0609756112099,1.0,0.0,0.0,0.0,1.0,0.0,0.0,0.0,1.0,0.593762048251,-0.636857641602,10.0125513428,1.0,0.0,0.0,0.0,1.0,0.0,0.0,0.0,1.0
1463923326818615635,462,1463923326787575923,,-2.09489560127,-4.8793964386,11.8841428757,0.0204119998962,1.0,0.0,0.0,0.0,1.0,0.0,0.0,0.0,1.0,-0.365853667259,-1.09756100178,0.609756112099,1.0,0.0,0.0,0.0,1.0,0.0,0.0,0.0,1.0,0.857124194336,-0.641646044922,10.2902787354,1.0,0.0,0.0,0.0,1.0,0.0,0.0,0.0,1.0
1463923326819039070,463,1463923326807315943,,-2.18650603294,-4.87397146225,11.8978643417,0.0204150006175,1.0,0.0,0.0,0.0,1.0,0.0,0.0,0.0,1.0,-0.243902444839,-1.58536589146,0.487804889679,1.0,0.0,0.0,0.0,1.0,0.0,0.0,0.0,1.0,1.12527478027,-0.699106884766,10.180145459,1.0,0.0,0.0,0.0,1.0,0.0,0.0,0.0,1.0
1463923326881229481,464,1463923326827635127,,-2.2589161396,-4.87019538879,11.9113063812,0.0204000007361,1.0,0.0,0.0,0.0,1.0,0.0,0.0,0.0,1.0,-0.18292683363,-0.670731723309,0.548780500889,1.0,0.0,0.0,0.0,1.0,0.0,0.0,0.0,1.0,1.14442839355,-0.727837304687,10.2376062988,1.0,0.0,0.0,0.0,1.0,0.0,0.0,0.0,1.0
1463923326881267867,465,1463923326848269310,,-2.32229661942,-4.87735080719,11.9124345779,0.0204860009253,1.0,0.0,0.0,0.0,1.0,0.0,0.0,0.0,1.0,-0.548780500889,0.792682945728,0.0609756112099,1.0,0.0,0.0,0.0,1.0,0.0,0.0,0.0,1.0,1.35032973633,-0.77093293457,10.3573163818,1.0,0.0,0.0,0.0,1.0,0.0,0.0,0.0,1.0
1463923326897935608,466,1463923326868804274,,-2.37158608437,-4.8717546463,11.9078683853,0.0203329995275,1.0,0.0,0.0,0.0,1.0,0.0,0.0,0.0,1.0,0.0609756112099,2.62195134163,-0.0609756112099,1.0,0.0,0.0,0.0,1.0,0.0,0.0,0.0,1.0,1.54665427246,-0.756567724609,10.1609918457,1.0,0.0,0.0,0.0,1.0,0.0,0.0,0.0,1.0
1463923326898284877,467,1463923326888901480,,-2.36620330811,-4.86606359482,11.9060735703,0.0204109996557,1.0,0.0,0.0,0.0,1.0,0.0,0.0,0.0,1.0,0.12195122242,3.90243911743,0.18292683363,1.0,0.0,0.0,0.0,1.0,0.0,0.0,0.0,1.0,1.29286889648,-0.76135612793,10.1083194092,1.0,0.0,0.0,0.0,1.0,0.0,0.0,0.0,1.0
1463923326940119125,468,1463923326909199153,,-2.30159282684,-4.87244939804,11.8905725479,0.0204050000757,1.0,0.0,0.0,0.0,1.0,0.0,0.0,0.0,1.0,0.0609756112099,4.93902444839,-0.426829278469,1.0,0.0,0.0,0.0,1.0,0.0,0.0,0.0,1.0,0.928950244141,-0.847547387695,9.94551369629,1.0,0.0,0.0,0.0,1.0,0.0,0.0,0.0,1.0
1463923326940244229,469,1463923326929817555,,-2.25405240059,-4.86265134811,11.8808698654,0.0204119998962,1.0,0.0,0.0,0.0,1.0,0.0,0.0,0.0,1.0,-0.12195122242,4.69512224197,-0.12195122242,1.0,0.0,0.0,0.0,1.0,0.0,0.0,0.0,1.0,1.02950671387,-0.675164868164,9.97424411621,1.0,0.0,0.0,0.0,1.0,0.0,0.0,0.0,1.0
1463923326978140838,470,1463923326951731524,,-2.19387555122,-4.85218381882,11.883058548,0.0210459996015,1.0,0.0,0.0,0.0,1.0,0.0,0.0,0.0,1.0,-0.18292683363,2.86585378647,0.304878056049,1.0,0.0,0.0,0.0,1.0,0.0,0.0,0.0,1.0,0.622492431641,-0.670376464844,10.1897222656,1.0,0.0,0.0,0.0,1.0,0.0,0.0,0.0,1.0
1463923326978346983,471,1463923326973377108,,-2.14235043526,-4.83546352386,11.8674898148,0.0197659991682,1.0,0.0,0.0,0.0,1.0,0.0,0.0,0.0,1.0,0.18292683363,2.68292689323,-0.609756112099,1.0,0.0,0.0,0.0,1.0,0.0,0.0,0.0,1.0,0.60812722168,-0.675164868164,10.1514150391,1.0,0.0,0.0,0.0,1.0,0.0,0.0,0.0,1.0
1463923327018080615,472,1463923326992330986,,-2.14826416969,-4.79775285721,11.8819713593,0.0204060003161,1.0,0.0,0.0,0.0,1.0,0.0,0.0,0.0,1.0,0.304878056049,1.09756100178,0.792682945728,1.0,0.0,0.0,0.0,1.0,0.0,0.0,0.0,1.0,0.857124194336,-0.502782348633,10.1514150391,1.0,0.0,0.0,0.0,1.0,0.0,0.0,0.0,1.0
1463923327018132802,473,1463923327011319134,,-2.1896944046,-4.78824949265,11.9000482559,0.0204099994153,1.0,0.0,0.0,0.0,1.0,0.0,0.0,0.0,1.0,-0.12195122242,-1.2804877758,0.731707334518,1.0,0.0,0.0,0.0,1.0,0.0,0.0,0.0,1.0,0.737414111328,-0.660799658203,10.0508585693,1.0,0.0,0.0,0.0,1.0,0.0,0.0,0.0,1.0
1463923327059281897,474,1463923327034888252,,-2.22084641457,-4.77829170227,11.9170293808,0.0235050003976,1.0,0.0,0.0,0.0,1.0,0.0,0.0,0.0,1.0,-0.670731723309,0.426829278469,0.731707334518,1.0,0.0,0.0,0.0,1.0,0.0,0.0,0.0,1.0,0.938527050781,-0.579396801758,10.2280294922,1.0,0.0,0.0,0.0,1.0,0.0,0.0,0.0,1.0
1463923327059326532,475,1463923327052157709,,-2.29852080345,-4.76380157471,11.9212093353,0.0173080004752,1.0,0.0,0.0,0.0,1.0,0.0,0.0,0.0,1.0,-0.12195122242,-1.03658533096,0.12195122242,1.0,0.0,0.0,0.0,1.0,0.0,0.0,0.0,1.0,1.26413847656,-0.612915625,10.3668931885,1.0,0.0,0.0,0.0,1.0,0.0,0.0,0.0,1.0
1463923327100855990,476,1463923327072532101,,-2.32453083992,-4.77776670456,11.9184522629,0.0204140003771,1.0,0.0,0.0,0.0,1.0,0.0,0.0,0.0,1.0,-0.670731723309,1.03658533096,-0.12195122242,1.0,0.0,0.0,0.0,1.0,0.0,0.0,0.0,1.0,1.03908344744,-0.775721337891,10.1370498291,1.0,0.0,0.0,0.0,1.0,0.0,0.0,0.0,1.0
1463923327100908490,477,1463923327093065242,,-2.33600783348,-4.76496267319,11.9192638397,0.0204210001975,1.0,0.0,0.0,0.0,1.0,0.0,0.0,0.0,1.0,0.12195122242,1.58536589146,0.12195122242,1.0,0.0,0.0,0.0,1.0,0.0,0.0,0.0,1.0,0.991199487305,-0.665588061523,9.8784760498,1.0,0.0,0.0,0.0,1.0,0.0,0.0,0.0,1.0
1463923327140468998,478,1463923327113397187,,-2.34163117409,-4.76144981384,11.9135007858,0.0203879997134,1.0,0.0,0.0,0.0,1.0,0.0,0.0,0.0,1.0,0.18292683363,2.07317066193,-0.18292683363,1.0,0.0,0.0,0.0,1.0,0.0,0.0,0.0,1.0,1.02471831055,-0.756567724609,9.8784760498,1.0,0.0,0.0,0.0,1.0,0.0,0.0,0.0,1.0
1463923327140518477,479,1463923327133962724,,-2.30901622772,-4.75005054474,11.9039535522,0.0204230006784,1.0,0.0,0.0,0.0,1.0,0.0,0.0,0.0,1.0,-0.12195122242,3.23170733452,-0.243902444839,1.0,0.0,0.0,0.0,1.0,0.0,0.0,0.0,1.0,0.905008227539,-0.641646044922,9.96945571289,1.0,0.0,0.0,0.0,1.0,0.0,0.0,0.0,1.0
1463923327179021750,480,1463923327156507523,,-2.30954647064,-4.73506355286,11.8997268677,0.021528000012,1.0,0.0,0.0,0.0,1.0,0.0,0.0,0.0,1.0,-0.304878056049,2.74390244484,0.0,1.0,0.0,0.0,0.0,1.0,0.0,0.0,0.0,1.0,1.13006318359,-0.593762048251,10.1992990723,1.0,0.0,0.0,0.0,1.0,0.0,0.0,0.0,1.0
1463923327179076281,481,1463923327174493332,,-2.25123214722,-4.72544193268,11.9096002579,0.0192840006202,1.0,0.0,0.0,0.0,1.0,0.0,0.0,0.0,1.0,-0.670731723309,2.19512200356,0.670731723309,1.0,0.0,0.0,0.0,1.0,0.0,0.0,0.0,1.0,0.474051928711,-0.541089611728,9.91678327637,1.0,0.0,0.0,0.0,1.0,0.0,0.0,0.0,1.0
1463923327221437558,482,1463923327194921057,,-2.23101568222,-4.71508932114,11.9017953873,0.0204089991748,1.0,0.0,0.0,0.0,1.0,0.0,0.0,0.0,1.0,-0.426829278469,2.13414645195,-0.243902444839,1.0,0.0,0.0,0.0,1.0,0.0,0.0,0.0,1.0,0.833182177734,-0.612915625,10.3573163818,1.0,0.0,0.0,0.0,1.0,0.0,0.0,0.0,1.0
1463923327221491100,483,1463923327215497531,,-2.27298283577,-4.71689939499,11.9194250107,0.0204070005566,1.0,0.0,0.0,0.0,1.0,0.0,0.0,0.0,1.0,-0.18292683363,0.670731723309,0.853658556938,1.0,0.0,0.0,0.0,1.0,0.0,0.0,0.0,1.0,1.09175595703,-0.723048901367,9.90241806641,1.0,0.0,0.0,0.0,1.0,0.0,0.0,0.0,1.0
1463923327260671661,484,1463923327235964840,,-2.29113507271,-4.71290206909,11.9321908951,0.0204150006175,1.0,0.0,0.0,0.0,1.0,0.0,0.0,0.0,1.0,-0.548780500889,1.03658533096,0.670731723309,1.0,0.0,0.0,0.0,1.0,0.0,0.0,0.0,1.0,0.986411083984,-0.632069238281,10.2519715088,1.0,0.0,0.0,0.0,1.0,0.0,0.0,0.0,1.0
1463923327260908900,485,1463923327256367825,,-2.33126354218,-4.73205423355,11.9299001694,0.020386999473,1.0,0.0,0.0,0.0,1.0,0.0,0.0,0.0,1.0,-0.792682945728,1.58536589146,-0.0609756112099,1.0,0.0,0.0,0.0,1.0,0.0,0.0,0.0,1.0,1.26413847656,-0.790086547852,10.1322614258,1.0,0.0,0.0,0.0,1.0,0.0,0.0,0.0,1.0
1463923327282200840,486,1463923327276548000,,-2.31730246544,-4.73522377014,11.9394245148,0.0204189997166,1.0,0.0,0.0,0.0,1.0,0.0,0.0,0.0,1.0,-0.426829278469,2.43902444839,0.609756112099,1.0,0.0,0.0,0.0,1.0,0.0,0.0,0.0,1.0,0.952892260742,-0.713472094727,10.1274730225,1.0,0.0,0.0,0.0,1.0,0.0,0.0,0.0,1.0
1463923327303991893,487,1463923327297329109,,-2.31573748589,-4.73876619339,11.9295101166,0.0204109996557,1.0,0.0,0.0,0.0,1.0,0.0,0.0,0.0,1.0,-0.853658556938,2.01219511032,-0.365853667259,1.0,0.0,0.0,0.0,1.0,0.0,0.0,0.0,1.0,0.952892260742,-0.636857641602,9.96466730957,1.0,0.0,0.0,0.0,1.0,0.0,0.0,0.0,1.0
1463923327327729239,488,1463923327317783500,,-2.2821893692,-4.754591465,11.937297821,0.0204590000212,1.0,0.0,0.0,0.0,1.0,0.0,0.0,0.0,1.0,-1.03658533096,3.47560977936,0.609756112099,1.0,0.0,0.0,0.0,1.0,0.0,0.0,0.0,1.0,0.972045874023,-0.723048901367,10.2136642822,1.0,0.0,0.0,0.0,1.0,0.0,0.0,0.0,1.0
1463923327350738776,489,1463923327338081643,,-2.27354693413,-4.76152801514,11.9421424866,0.0203600004315,1.0,0.0,0.0,0.0,1.0,0.0,0.0,0.0,1.0,-0.365853667259,1.64634156227,0.304878056049,1.0,0.0,0.0,0.0,1.0,0.0,0.0,0.0,1.0,0.857124194336,-0.775721337891,10.285490332,1.0,0.0,0.0,0.0,1.0,0.0,0.0,0.0,1.0
1463923327373695813,490,1463923327359419468,,-2.29149889946,-4.75591373444,11.9358892441,0.02131799981,1.0,0.0,0.0,0.0,1.0,0.0,0.0,0.0,1.0,0.12195122242,2.13414645195,-0.18292683363,1.0,0.0,0.0,0.0,1.0,0.0,0.0,0.0,1.0,1.14442839355,-0.742202514648,10.0556469727,1.0,0.0,0.0,0.0,1.0,0.0,0.0,0.0,1.0
1463923327385509565,491,1463923327379299748,,-2.31407427788,-4.74885988235,11.9385967255,0.0195480007678,1.0,0.0,0.0,0.0,1.0,0.0,0.0,0.0,1.0,-0.487804889679,1.70731711388,0.243902444839,1.0,0.0,0.0,0.0,1.0,0.0,0.0,0.0,1.0,1.14442839355,-0.61770402832,10.1609918457,1.0,0.0,0.0,0.0,1.0,0.0,0.0,0.0,1.0
1463923327401432361,492,1463923327399652213,,-2.3282122612,-4.77468490601,11.9474239349,0.0204009991139,1.0,0.0,0.0,0.0,1.0,0.0,0.0,0.0,1.0,-0.609756112099,1.09756100178,0.426829278469,1.0,0.0,0.0,0.0,1.0,0.0,0.0,0.0,1.0,0.962469067383,-0.890643017578,10.1992990723,1.0,0.0,0.0,0.0,1.0,0.0,0.0,0.0,1.0
1463923327426157933,493,1463923327419619263,,-2.32459926605,-4.79100418091,11.9402971268,0.0203760005534,1.0,0.0,0.0,0.0,1.0,0.0,0.0,0.0,1.0,-0.548780500889,2.98780488968,-0.18292683363,1.0,0.0,0.0,0.0,1.0,0.0,0.0,0.0,1.0,1.13485158691,-0.823605371094,10.1514150391,1.0,0.0,0.0,0.0,1.0,0.0,0.0,0.0,1.0
1463923327446172691,494,1463923327439890582,,-2.34018802643,-4.80958080292,11.9437742233,0.0203930009156,1.0,0.0,0.0,0.0,1.0,0.0,0.0,0.0,1.0,-0.670731723309,1.8292683363,0.243902444839,1.0,0.0,0.0,0.0,1.0,0.0,0.0,0.0,1.0,1.12527478027,-0.837970581055,10.3668931885,1.0,0.0,0.0,0.0,1.0,0.0,0.0,0.0,1.0
1463923327494654619,495,1463923327460376589,,-2.33327937126,-4.83425712585,11.9361515045,0.0204150006175,1.0,0.0,0.0,0.0,1.0,0.0,0.0,0.0,1.0,-1.09756100178,3.17073178291,-0.18292683363,1.0,0.0,0.0,0.0,1.0,0.0,0.0,0.0,1.0,1.12048637695,-0.790086547852,9.96945571289,1.0,0.0,0.0,0.0,1.0,0.0,0.0,0.0,1.0
1463923327495011232,496,1463923327480824626,,-2.3150241375,-4.85547924042,11.9371671677,0.0203980002552,1.0,0.0,0.0,0.0,1.0,0.0,0.0,0.0,1.0,-0.670731723309,3.29268312454,0.243902444839,1.0,0.0,0.0,0.0,1.0,0.0,0.0,0.0,1.0,1.07260241682,-0.857124194336,10.2040874756,1.0,0.0,0.0,0.0,1.0,0.0,0.0,0.0,1.0
1463923327533949347,497,1463923327501180164,,-2.28714799881,-4.85759687424,11.9177904129,0.0204179994762,1.0,0.0,0.0,0.0,1.0,0.0,0.0,0.0,1.0,-0.426829278469,2.56097555161,-0.792682945728,1.0,0.0,0.0,0.0,1.0,0.0,0.0,0.0,1.0,0.828393774414,-0.737414111328,10.1370498291,1.0,0.0,0.0,0.0,1.0,0.0,0.0,0.0,1.0
1463923327534003722,498,1463923327521600233,,-2.27577781677,-4.82445335388,11.930729866,0.0204000007361,1.0,0.0,0.0,0.0,1.0,0.0,0.0,0.0,1.0,0.0609756112099,2.62195134163,0.853658556938,1.0,0.0,0.0,0.0,1.0,0.0,0.0,0.0,1.0,1.00556469727,-0.502782348633,10.1514150391,1.0,0.0,0.0,0.0,1.0,0.0,0.0,0.0,1.0
1463923327552209529,499,1463923327541885042,,-2.25134038925,-4.83809423447,11.9486989975,0.0204060003161,1.0,0.0,0.0,0.0,1.0,0.0,0.0,0.0,1.0,-0.975609779358,1.76829278469,0.975609779358,1.0,0.0,0.0,0.0,1.0,0.0,0.0,0.0,1.0,0.723048901367,-0.708683691406,9.95509050293,1.0,0.0,0.0,0.0,1.0,0.0,0.0,0.0,1.0
1463923327566882123,500,1463923327562382715,,-2.24596643448,-4.82150697708,11.9339952469,0.020422000438,1.0,0.0,0.0,0.0,1.0,0.0,0.0,0.0,1.0,-0.426829278469,2.31707310677,-0.548780500889,1.0,0.0,0.0,0.0,1.0,0.0,0.0,0.0,1.0,0.995987890625,-0.579396801758,10.3573163818,1.0,0.0,0.0,0.0,1.0,0.0,0.0,0.0,1.0
1463923327592147796,501,1463923327583046012,,-2.28569245338,-4.79074430466,11.9501314163,0.0204009991139,1.0,0.0,0.0,0.0,1.0,0.0,0.0,0.0,1.0,-0.0609756112099,0.792682945728,0.853658556938,1.0,0.0,0.0,0.0,1.0,0.0,0.0,0.0,1.0,1.12048637695,-0.493205541992,10.1370498291,1.0,0.0,0.0,0.0,1.0,0.0,0.0,0.0,1.0
1463923327610899487,502,1463923327603525352,,-2.28879022598,-4.78549432755,11.9494924545,0.0205010008067,1.0,0.0,0.0,0.0,1.0,0.0,0.0,0.0,1.0,-0.487804889679,2.31707310677,0.12195122242,1.0,0.0,0.0,0.0,1.0,0.0,0.0,0.0,1.0,1.09654436035,-0.660799658203,10.419565625,1.0,0.0,0.0,0.0,1.0,0.0,0.0,0.0,1.0
1463923327641175816,503,1463923327623606412,,-2.2854847908,-4.79563713074,11.955450058,0.0203019995242,1.0,0.0,0.0,0.0,1.0,0.0,0.0,0.0,1.0,-0.365853667259,1.76829278469,0.365853667259,1.0,0.0,0.0,0.0,1.0,0.0,0.0,0.0,1.0,0.928950244141,-0.809240161133,10.2759135254,1.0,0.0,0.0,0.0,1.0,0.0,0.0,0.0,1.0
1463923327707577459,504,1463923327644277625,,-2.28646254539,-4.7937078476,11.959939003,0.0204189997166,1.0,0.0,0.0,0.0,1.0,0.0,0.0,0.0,1.0,-0.304878056049,2.37804889679,0.365853667259,1.0,0.0,0.0,0.0,1.0,0.0,0.0,0.0,1.0,1.07739082014,-0.713472094727,10.2711251221,1.0,0.0,0.0,0.0,1.0,0.0,0.0,0.0,1.0
1463923327707860166,505,1463923327664714205,,-2.26173424721,-4.79917812347,11.9500017166,0.0204349998385,1.0,0.0,0.0,0.0,1.0,0.0,0.0,0.0,1.0,-0.243902444839,3.04878044128,-0.304878056049,1.0,0.0,0.0,0.0,1.0,0.0,0.0,0.0,1.0,0.92416184082,-0.76614453125,9.88805285645,1.0,0.0,0.0,0.0,1.0,0.0,0.0,0.0,1.0
1463923327709378441,506,1463923327685427554,,-2.25790858269,-4.81174945831,11.9517803192,0.0204160008579,1.0,0.0,0.0,0.0,1.0,0.0,0.0,0.0,1.0,0.0609756112099,1.58536589146,0.12195122242,1.0,0.0,0.0,0.0,1.0,0.0,0.0,0.0,1.0,0.861912597656,-0.890643017578,10.0269165527,1.0,0.0,0.0,0.0,1.0,0.0,0.0,0.0,1.0
1463923327738853836,507,1463923327705300229,,-2.20763063431,-4.81474542618,11.9419536591,0.0203639995307,1.0,0.0,0.0,0.0,1.0,0.0,0.0,0.0,1.0,0.12195122242,3.10975623131,-0.304878056049,1.0,0.0,0.0,0.0,1.0,0.0,0.0,0.0,1.0,0.713472094727,-0.818816967773,9.96466730957,1.0,0.0,0.0,0.0,1.0,0.0,0.0,0.0,1.0
1463923327739249667,508,1463923327726021911,,-2.21125292778,-4.81543588638,11.941734314,0.0204590000212,1.0,0.0,0.0,0.0,1.0,0.0,0.0,0.0,1.0,-0.548780500889,1.46341466904,0.0609756112099,1.0,0.0,0.0,0.0,1.0,0.0,0.0,0.0,1.0,0.885854614258,-0.675164868164,9.94072529297,1.0,0.0,0.0,0.0,1.0,0.0,0.0,0.0,1.0
1463923327760950668,509,1463923327746443595,,-2.20974874496,-4.82883453369,11.9433755875,0.0204029995948,1.0,0.0,0.0,0.0,1.0,0.0,0.0,0.0,1.0,-0.914634168148,1.2195122242,0.12195122242,1.0,0.0,0.0,0.0,1.0,0.0,0.0,0.0,1.0,0.818816967773,-0.737414111328,10.1753570557,1.0,0.0,0.0,0.0,1.0,0.0,0.0,0.0,1.0
1463923327778174553,510,1463923327766879393,,-2.22963166237,-4.83422279358,11.9629211426,0.0204930007458,1.0,0.0,0.0,0.0,1.0,0.0,0.0,0.0,1.0,-0.18292683363,0.365853667259,0.914634168148,1.0,0.0,0.0,0.0,1.0,0.0,0.0,0.0,1.0,0.871489404297,-0.799663354492,10.2376062988,1.0,0.0,0.0,0.0,1.0,0.0,0.0,0.0,1.0
1463923327794483910,511,1463923327786968630,,-2.24087190628,-4.83186244965,11.9446105957,0.0203460007906,1.0,0.0,0.0,0.0,1.0,0.0,0.0,0.0,1.0,-0.426829278469,2.62195134163,-0.731707334518,1.0,0.0,0.0,0.0,1.0,0.0,0.0,0.0,1.0,1.18273554705,-0.699106884766,10.2280294922,1.0,0.0,0.0,0.0,1.0,0.0,0.0,0.0,1.0
1463923327827883195,512,1463923327807490000,,-2.29444813728,-4.82146883011,11.9355173111,0.0203399993479,1.0,0.0,0.0,0.0,1.0,0.0,0.0,0.0,1.0,0.12195122242,0.914634168148,-0.426829278469,1.0,0.0,0.0,0.0,1.0,0.0,0.0,0.0,1.0,1.25935007324,-0.723048901367,10.2232410889,1.0,0.0,0.0,0.0,1.0,0.0,0.0,0.0,1.0
1463923327855996303,513,1463923327828093819,,-2.26756381989,-4.78567028046,11.9617872238,0.0204600002617,1.0,0.0,0.0,0.0,1.0,0.0,0.0,0.0,1.0,0.548780500889,2.31707310677,1.46341466904,1.0,0.0,0.0,0.0,1.0,0.0,0.0,0.0,1.0,0.828393774414,-0.560243188477,10.1992990723,1.0,0.0,0.0,0.0,1.0,0.0,0.0,0.0,1.0
1463923327858165409,514,1463923327848721022,,-2.24276518822,-4.80158901215,11.9325380325,0.0204019993544,1.0,0.0,0.0,0.0,1.0,0.0,0.0,0.0,1.0,-0.18292683363,3.04878044128,-1.2804877758,1.0,0.0,0.0,0.0,1.0,0.0,0.0,0.0,1.0,0.900219824219,-0.866701000977,9.82101520996,1.0,0.0,0.0,0.0,1.0,0.0,0.0,0.0,1.0
1463923327889319130,515,1463923327869026092,,-2.2687497139,-4.81213903427,11.9300889969,0.0203900001943,1.0,0.0,0.0,0.0,1.0,0.0,0.0,0.0,1.0,0.0609756112099,1.8292683363,-0.0609756112099,1.0,0.0,0.0,0.0,1.0,0.0,0.0,0.0,1.0,1.16358193377,-0.876277807617,10.0412817627,1.0,0.0,0.0,0.0,1.0,0.0,0.0,0.0,1.0
1463923327910353675,516,1463923327889299911,,-2.24924921989,-4.81161737442,11.9199609756,0.0204169992357,1.0,0.0,0.0,0.0,1.0,0.0,0.0,0.0,1.0,-0.426829278469,2.92682933807,-0.304878056049,1.0,0.0,0.0,0.0,1.0,0.0,0.0,0.0,1.0,0.962469067383,-0.699106884766,10.0843773926,1.0,0.0,0.0,0.0,1.0,0.0,0.0,0.0,1.0
1463923327925625225,517,1463923327909818105,,-2.26703214645,-4.82255792618,11.9322481155,0.0204189997166,1.0,0.0,0.0,0.0,1.0,0.0,0.0,0.0,1.0,-0.365853667259,1.70731711388,0.670731723309,1.0,0.0,0.0,0.0,1.0,0.0,0.0,0.0,1.0,1.06781401349,-0.790086547852,9.92157167969,1.0,0.0,0.0,0.0,1.0,0.0,0.0,0.0,1.0
1463923327949820850,518,1463923327930208070,,-2.25626111031,-4.79963588715,11.9213542938,0.0203980002552,1.0,0.0,0.0,0.0,1.0,0.0,0.0,0.0,1.0,-0.548780500889,2.07317066193,-0.365853667259,1.0,0.0,0.0,0.0,1.0,0.0,0.0,0.0,1.0,0.885854614258,-0.483628735352,10.1083194092,1.0,0.0,0.0,0.0,1.0,0.0,0.0,0.0,1.0
1463923327965722449,519,1463923327950275796,,-2.26765823364,-4.78082990646,11.9061155319,0.020372999832,1.0,0.0,0.0,0.0,1.0,0.0,0.0,0.0,1.0,-0.18292683363,2.01219511032,-0.609756112099,1.0,0.0,0.0,0.0,1.0,0.0,0.0,0.0,1.0,1.04387185076,-0.569819995117,9.89284125977,1.0,0.0,0.0,0.0,1.0,0.0,0.0,0.0,1.0
1463923327995040813,520,1463923327970844927,,-2.25927209854,-4.77871894836,11.9215898514,0.0204959996045,1.0,0.0,0.0,0.0,1.0,0.0,0.0,0.0,1.0,0.0,1.2195122242,0.792682945728,1.0,0.0,0.0,0.0,1.0,0.0,0.0,0.0,1.0,0.76614453125,-0.742202514648,10.0125513428,1.0,0.0,0.0,0.0,1.0,0.0,0.0,0.0,1.0
1463923327996577890,521,1463923327990999528,,-2.26580023766,-4.77586746216,11.9159927368,0.0203290004283,1.0,0.0,0.0,0.0,1.0,0.0,0.0,0.0,1.0,-0.426829278469,1.70731711388,-0.18292683363,1.0,0.0,0.0,0.0,1.0,0.0,0.0,0.0,1.0,0.986411083984,-0.679953271484,10.2184526855,1.0,0.0,0.0,0.0,1.0,0.0,0.0,0.0,1.0
1463923328019463157,522,1463923328011496264,,-2.28796458244,-4.77824449539,11.9147377014,0.0204099994153,1.0,0.0,0.0,0.0,1.0,0.0,0.0,0.0,1.0,-0.670731723309,0.609756112099,-0.0609756112099,1.0,0.0,0.0,0.0,1.0,0.0,0.0,0.0,1.0,0.909796630859,-0.665588061523,9.99818613281,1.0,0.0,0.0,0.0,1.0,0.0,0.0,0.0,1.0
1463923328037595423,523,1463923328031900083,,-2.30411148071,-4.76762199402,11.9171085358,0.0204160008579,1.0,0.0,0.0,0.0,1.0,0.0,0.0,0.0,1.0,-0.365853667259,1.2195122242,0.18292683363,1.0,0.0,0.0,0.0,1.0,0.0,0.0,0.0,1.0,0.976834277344,-0.60812722168,10.0412817627,1.0,0.0,0.0,0.0,1.0,0.0,0.0,0.0,1.0
1463923328055962740,524,1463923328052557182,,-2.33423876762,-4.77299261093,11.9167346954,0.0204179994762,1.0,0.0,0.0,0.0,1.0,0.0,0.0,0.0,1.0,-0.365853667259,0.304878056049,-0.0609756112099,1.0,0.0,0.0,0.0,1.0,0.0,0.0,0.0,1.0,0.92416184082,-0.737414111328,9.90720646973,1.0,0.0,0.0,0.0,1.0,0.0,0.0,0.0,1.0
1463923328077157545,525,1463923328072608867,,-2.35848379135,-4.77603340149,11.9278383255,0.0203939992934,1.0,0.0,0.0,0.0,1.0,0.0,0.0,0.0,1.0,-0.304878056049,1.52439022064,0.609756112099,1.0,0.0,0.0,0.0,1.0,0.0,0.0,0.0,1.0,1.14442839355,-0.751779321289,10.2759135254,1.0,0.0,0.0,0.0,1.0,0.0,0.0,0.0,1.0
1463923328116154358,526,1463923328093123935,,-2.37991929054,-4.76618289948,11.9258775711,0.0204119998962,1.0,0.0,0.0,0.0,1.0,0.0,0.0,0.0,1.0,0.0,1.03658533096,-0.0609756112099,1.0,0.0,0.0,0.0,1.0,0.0,0.0,0.0,1.0,0.991199487305,-0.675164868164,9.95030209961,1.0,0.0,0.0,0.0,1.0,0.0,0.0,0.0,1.0
1463923328116772689,527,1463923328113490828,,-2.3907289505,-4.77129888535,11.9260282516,0.0204290002584,1.0,0.0,0.0,0.0,1.0,0.0,0.0,0.0,1.0,-0.792682945728,1.95121955872,0.12195122242,1.0,0.0,0.0,0.0,1.0,0.0,0.0,0.0,1.0,1.07260241682,-0.665588061523,10.0029745361,1.0,0.0,0.0,0.0,1.0,0.0,0.0,0.0,1.0
1463923328139191603,528,1463923328133857772,,-2.39440369606,-4.76986885071,11.9257411957,0.0203859992325,1.0,0.0,0.0,0.0,1.0,0.0,0.0,0.0,1.0,-0.365853667259,2.25609779358,0.12195122242,1.0,0.0,0.0,0.0,1.0,0.0,0.0,0.0,1.0,1.07260241682,-0.689530078125,10.060435376,1.0,0.0,0.0,0.0,1.0,0.0,0.0,0.0,1.0
1463923328196977554,529,1463923328154265445,,-2.39149618149,-4.75914573669,11.9238367081,0.0204300004989,1.0,0.0,0.0,0.0,1.0,0.0,0.0,0.0,1.0,-0.365853667259,1.52439022064,0.0,1.0,0.0,0.0,0.0,1.0,0.0,0.0,0.0,1.0,0.881066210937,-0.60812722168,10.0508585693,1.0,0.0,0.0,0.0,1.0,0.0,0.0,0.0,1.0
1463923328197379167,530,1463923328174643066,,-2.36373710632,-4.75745248795,11.9326753616,0.0203789994121,1.0,0.0,0.0,0.0,1.0,0.0,0.0,0.0,1.0,-0.792682945728,2.5,0.609756112099,1.0,0.0,0.0,0.0,1.0,0.0,0.0,0.0,1.0,0.842758984375,-0.603338854892,10.0221281494,1.0,0.0,0.0,0.0,1.0,0.0,0.0,0.0,1.0
1463923328198081091,531,1463923328195050635,,-2.36360788345,-4.73301887512,11.9199094772,0.0204169992357,1.0,0.0,0.0,0.0,1.0,0.0,0.0,0.0,1.0,-0.243902444839,1.09756100178,-0.548780500889,1.0,0.0,0.0,0.0,1.0,0.0,0.0,0.0,1.0,0.823605371094,-0.517147558594,10.1562034424,1.0,0.0,0.0,0.0,1.0,0.0,0.0,0.0,1.0
1463923328314021585,532,1463923328215422840,,-2.39430689812,-4.73180198669,11.9314308167,0.0203879997134,1.0,0.0,0.0,0.0,1.0,0.0,0.0,0.0,1.0,-0.487804889679,0.365853667259,0.548780500889,1.0,0.0,0.0,0.0,1.0,0.0,0.0,0.0,1.0,0.976834277344,-0.660799658203,10.0939541992,1.0,0.0,0.0,0.0,1.0,0.0,0.0,0.0,1.0
1463923328314070230,533,1463923328236753061,,-2.4143178463,-4.74917268753,11.9416122437,0.0213089995086,1.0,0.0,0.0,0.0,1.0,0.0,0.0,0.0,1.0,-0.792682945728,0.243902444839,0.426829278469,1.0,0.0,0.0,0.0,1.0,0.0,0.0,0.0,1.0,0.881066210937,-0.785298144531,10.3764699951,1.0,0.0,0.0,0.0,1.0,0.0,0.0,0.0,1.0
1463923328315871316,534,1463923328256271936,,-2.44927310944,-4.75425767899,11.9497213364,0.0195220001042,1.0,0.0,0.0,0.0,1.0,0.0,0.0,0.0,1.0,-0.731707334518,0.0,0.365853667259,1.0,0.0,0.0,0.0,1.0,0.0,0.0,0.0,1.0,0.957680664062,-0.670376464844,9.97424411621,1.0,0.0,0.0,0.0,1.0,0.0,0.0,0.0,1.0
1463923328316538657,535,1463923328277765594,,-2.48686051369,-4.74877309799,11.9620885849,0.0204499997199,1.0,0.0,0.0,0.0,1.0,0.0,0.0,0.0,1.0,-0.487804889679,-0.243902444839,0.548780500889,1.0,0.0,0.0,0.0,1.0,0.0,0.0,0.0,1.0,0.943315454102,-0.627280834961,10.1035310059,1.0,0.0,0.0,0.0,1.0,0.0,0.0,0.0,1.0
1463923328414776883,536,1463923328297630978,,-2.53127384186,-4.75509738922,11.9705104828,0.0203760005534,1.0,0.0,0.0,0.0,1.0,0.0,0.0,0.0,1.0,-1.03658533096,-0.12195122242,0.365853667259,1.0,0.0,0.0,0.0,1.0,0.0,0.0,0.0,1.0,1.02950671387,-0.632069238281,10.0891657959,1.0,0.0,0.0,0.0,1.0,0.0,0.0,0.0,1.0
1463923328415129590,537,1463923328319220417,,-2.57090878487,-4.75452423096,11.9794034958,0.0216359999031,1.0,0.0,0.0,0.0,1.0,0.0,0.0,0.0,1.0,-0.487804889679,0.731707334518,0.426829278469,1.0,0.0,0.0,0.0,1.0,0.0,0.0,0.0,1.0,1.12048637695,-0.665588061523,10.0077629395,1.0,0.0,0.0,0.0,1.0,0.0,0.0,0.0,1.0
1463923328415174954,538,1463923328344384528,,-2.59082269669,-4.78250932693,11.976852417,0.0197279993445,1.0,0.0,0.0,0.0,1.0,0.0,0.0,0.0,1.0,-0.792682945728,1.2804877758,-0.12195122242,1.0,0.0,0.0,0.0,1.0,0.0,0.0,0.0,1.0,1.06302561017,-0.866701000977,9.92636008301,1.0,0.0,0.0,0.0,1.0,0.0,0.0,0.0,1.0
1463923328415514120,539,1463923328360854770,,-2.61026978493,-4.78307771683,11.9730978012,0.0208369996399,1.0,0.0,0.0,0.0,1.0,0.0,0.0,0.0,1.0,-0.365853667259,2.07317066193,-0.0609756112099,1.0,0.0,0.0,0.0,1.0,0.0,0.0,0.0,1.0,1.23061965332,-0.723048901367,10.2423947021,1.0,0.0,0.0,0.0,1.0,0.0,0.0,0.0,1.0
1463923328416872291,540,1463923328382528636,,-2.60880875587,-4.78211164474,11.9769926071,0.0195330008864,1.0,0.0,0.0,0.0,1.0,0.0,0.0,0.0,1.0,-0.731707334518,1.64634156227,0.304878056049,1.0,0.0,0.0,0.0,1.0,0.0,0.0,0.0,1.0,0.957680664062,-0.627280834961,10.046070166,1.0,0.0,0.0,0.0,1.0,0.0,0.0,0.0,1.0
1463923328416936405,541,1463923328399805228,,-2.61420822144,-4.80322217941,11.9758787155,0.020488999784,1.0,0.0,0.0,0.0,1.0,0.0,0.0,0.0,1.0,-0.487804889679,2.5,0.0609756112099,1.0,0.0,0.0,0.0,1.0,0.0,0.0,0.0,1.0,1.16358193377,-0.861912597656,9.99339772949,1.0,0.0,0.0,0.0,1.0,0.0,0.0,0.0,1.0
1463923328451686048,542,1463923328421181283,,-2.62932682037,-4.81837081909,11.9786329269,0.0205899998546,1.0,0.0,0.0,0.0,1.0,0.0,0.0,0.0,1.0,-0.365853667259,2.31707310677,0.243902444839,1.0,0.0,0.0,0.0,1.0,0.0,0.0,0.0,1.0,1.22583125,-0.837970581055,10.0508585693,1.0,0.0,0.0,0.0,1.0,0.0,0.0,0.0,1.0
1463923328451875735,543,1463923328442015152,,-2.64295434952,-4.82804346085,11.9770078659,0.020428000018,1.0,0.0,0.0,0.0,1.0,0.0,0.0,0.0,1.0,-0.426829278469,2.5,0.0609756112099,1.0,0.0,0.0,0.0,1.0,0.0,0.0,0.0,1.0,1.24019645996,-0.780509741211,10.0029745361,1.0,0.0,0.0,0.0,1.0,0.0,0.0,0.0,1.0
1463923328495738256,544,1463923328461904963,,-2.61829400063,-4.8573474884,11.9767026901,0.0200050007552,1.0,0.0,0.0,0.0,1.0,0.0,0.0,0.0,1.0,-0.548780500889,2.92682933807,0.12195122242,1.0,0.0,0.0,0.0,1.0,0.0,0.0,0.0,1.0,0.991199487305,-0.948103857422,10.1178962158,1.0,0.0,0.0,0.0,1.0,0.0,0.0,0.0,1.0
1463923328495978776,545,1463923328483431381,,-2.53734946251,-4.82707929611,11.9686260223,0.0204140003771,1.0,0.0,0.0,0.0,1.0,0.0,0.0,0.0,1.0,0.12195122242,1.8902438879,-0.243902444839,1.0,0.0,0.0,0.0,1.0,0.0,0.0,0.0,1.0,0.301669427446,-0.545877978516,10.1035310059,1.0,0.0,0.0,0.0,1.0,0.0,0.0,0.0,1.0
1463923328531941174,546,1463923328501073806,,-2.5366294384,-4.83069801331,11.9655838013,0.0204130001366,1.0,0.0,0.0,0.0,1.0,0.0,0.0,0.0,1.0,-0.243902444839,1.8292683363,-0.0609756112099,1.0,0.0,0.0,0.0,1.0,0.0,0.0,0.0,1.0,0.986411083984,-0.77093293457,10.1131078125,1.0,0.0,0.0,0.0,1.0,0.0,0.0,0.0,1.0
1463923328531981174,547,1463923328522685849,,-2.54405093193,-4.83016777039,11.980512619,0.0210790000856,1.0,0.0,0.0,0.0,1.0,0.0,0.0,0.0,1.0,-0.548780500889,1.46341466904,0.792682945728,1.0,0.0,0.0,0.0,1.0,0.0,0.0,0.0,1.0,1.00556469727,-0.675164868164,10.1418382324,1.0,0.0,0.0,0.0,1.0,0.0,0.0,0.0,1.0
1463923328578550141,548,1463923328541944256,,-2.55225014687,-4.82545137405,11.9812574387,0.0197349991649,1.0,0.0,0.0,0.0,1.0,0.0,0.0,0.0,1.0,-0.548780500889,0.670731723309,0.0609756112099,1.0,0.0,0.0,0.0,1.0,0.0,0.0,0.0,1.0,0.876277807617,-0.651222851562,10.285490332,1.0,0.0,0.0,0.0,1.0,0.0,0.0,0.0,1.0
1463923328578615454,549,1463923328565404729,,-2.55569243431,-4.83639764786,11.9773588181,0.0204109996557,1.0,0.0,0.0,0.0,1.0,0.0,0.0,0.0,1.0,-0.731707334518,2.25609779358,-0.0609756112099,1.0,0.0,0.0,0.0,1.0,0.0,0.0,0.0,1.0,1.11569797363,-0.756567724609,10.2328178955,1.0,0.0,0.0,0.0,1.0,0.0,0.0,0.0,1.0
1463923328588547755,550,1463923328584203451,,-2.58889889717,-4.83927965164,11.9879236221,0.0204029995948,1.0,0.0,0.0,0.0,1.0,0.0,0.0,0.0,1.0,-0.914634168148,0.731707334518,0.548780500889,1.0,0.0,0.0,0.0,1.0,0.0,0.0,0.0,1.0,1.09654436035,-0.636857641602,10.0700121826,1.0,0.0,0.0,0.0,1.0,0.0,0.0,0.0,1.0
1463923328611259324,551,1463923328605524401,,-2.58418917656,-4.85563516617,11.9779901505,0.0208320003003,1.0,0.0,0.0,0.0,1.0,0.0,0.0,0.0,1.0,-0.487804889679,1.58536589146,-0.426829278469,1.0,0.0,0.0,0.0,1.0,0.0,0.0,0.0,1.0,0.928950244141,-0.857124194336,10.299855542,1.0,0.0,0.0,0.0,1.0,0.0,0.0,0.0,1.0
1463923328943237541,552,1463923328624686402,,-2.61806225777,-4.87360620499,11.9804582596,0.0199779998511,1.0,0.0,0.0,0.0,1.0,0.0,0.0,0.0,1.0,-0.670731723309,0.18292683363,0.0609756112099,1.0,0.0,0.0,0.0,1.0,0.0,0.0,0.0,1.0,1.01514150391,-0.828393774414,10.1274730225,1.0,0.0,0.0,0.0,1.0,0.0,0.0,0.0,1.0
1463923328943275145,553,1463923328644113090,,-2.66054725647,-4.90043020248,11.9865684509,0.0204150006175,1.0,0.0,0.0,0.0,1.0,0.0,0.0,0.0,1.0,-0.914634168148,-0.365853667259,0.18292683363,1.0,0.0,0.0,0.0,1.0,0.0,0.0,0.0,1.0,1.00077629395,-0.866701000977,10.1945106689,1.0,0.0,0.0,0.0,1.0,0.0,0.0,0.0,1.0
1463923328943312384,554,1463923328664560347,,-2.7163772583,-4.92360973358,11.9894895554,0.0204360000789,1.0,0.0,0.0,0.0,1.0,0.0,0.0,0.0,1.0,-0.731707334518,-0.670731723309,0.0,1.0,0.0,0.0,0.0,1.0,0.0,0.0,0.0,1.0,1.07260241682,-0.876277807617,10.2280294922,1.0,0.0,0.0,0.0,1.0,0.0,0.0,0.0,1.0
1463923328943351290,555,1463923328684764479,,-2.76897096634,-4.94194412231,11.9926128387,0.0203789994121,1.0,0.0,0.0,0.0,1.0,0.0,0.0,0.0,1.0,-0.548780500889,-0.12195122242,0.0609756112099,1.0,0.0,0.0,0.0,1.0,0.0,0.0,0.0,1.0,1.14442839355,-0.861912597656,10.1226846191,1.0,0.0,0.0,0.0,1.0,0.0,0.0,0.0,1.0
1463923328943388790,556,1463923328705320849,,-2.83936429024,-4.94130754471,11.9909601212,0.0204370003194,1.0,0.0,0.0,0.0,1.0,0.0,0.0,0.0,1.0,-0.18292683363,0.853658556938,-0.0609756112099,1.0,0.0,0.0,0.0,1.0,0.0,0.0,0.0,1.0,1.49877023926,-0.77093293457,10.2088758789,1.0,0.0,0.0,0.0,1.0,0.0,0.0,0.0,1.0
1463923328945025606,557,1463923328726084302,,-2.85888314247,-4.90934848785,11.9920501709,0.0205000005662,1.0,0.0,0.0,0.0,1.0,0.0,0.0,0.0,1.0,0.18292683363,2.13414645195,0.243902444839,1.0,0.0,0.0,0.0,1.0,0.0,0.0,0.0,1.0,1.2737152832,-0.550666381836,10.0795889893,1.0,0.0,0.0,0.0,1.0,0.0,0.0,0.0,1.0
1463923328945085137,558,1463923328746102810,,-2.84337639809,-4.88440322876,11.9863052368,0.020276999101,1.0,0.0,0.0,0.0,1.0,0.0,0.0,0.0,1.0,0.548780500889,3.65853667259,0.0,1.0,0.0,0.0,0.0,1.0,0.0,0.0,0.0,1.0,1.25935007324,-0.684741674805,10.2519715088,1.0,0.0,0.0,0.0,1.0,0.0,0.0,0.0,1.0
1463923328945125762,559,1463923328766583921,,-2.77388644218,-4.86529779434,11.9653844833,0.0204579997808,1.0,0.0,0.0,0.0,1.0,0.0,0.0,0.0,1.0,-0.12195122242,4.32926845551,-0.670731723309,1.0,0.0,0.0,0.0,1.0,0.0,0.0,0.0,1.0,0.876277807617,-0.612915625,10.1466266357,1.0,0.0,0.0,0.0,1.0,0.0,0.0,0.0,1.0
1463923328945165761,560,1463923328787641122,,-2.739184618,-4.86526250839,11.958615303,0.0206770002842,1.0,0.0,0.0,0.0,1.0,0.0,0.0,0.0,1.0,-0.487804889679,2.92682933807,-0.12195122242,1.0,0.0,0.0,0.0,1.0,0.0,0.0,0.0,1.0,0.928950244141,-0.703895288086,10.1226846191,1.0,0.0,0.0,0.0,1.0,0.0,0.0,0.0,1.0
1463923328945203574,561,1463923328807723432,,-2.69464659691,-4.85919475555,11.9727554321,0.0200919993222,1.0,0.0,0.0,0.0,1.0,0.0,0.0,0.0,1.0,-0.670731723309,1.95121955872,0.853658556938,1.0,0.0,0.0,0.0,1.0,0.0,0.0,0.0,1.0,0.675164868164,-0.61770402832,10.2759135254,1.0,0.0,0.0,0.0,1.0,0.0,0.0,0.0,1.0
1463923328952315991,562,1463923328828416208,,-2.7535598278,-4.86610889435,11.9838542938,0.0204240009189,1.0,0.0,0.0,0.0,1.0,0.0,0.0,0.0,1.0,-0.365853667259,-1.34146344662,0.365853667259,1.0,0.0,0.0,0.0,1.0,0.0,0.0,0.0,1.0,0.981622680664,-0.780509741211,10.1466266357,1.0,0.0,0.0,0.0,1.0,0.0,0.0,0.0,1.0
1463923328954625877,563,1463923328851227934,,-2.80379009247,-4.84559726715,12.0013093948,0.0234399996698,1.0,0.0,0.0,0.0,1.0,0.0,0.0,0.0,1.0,-0.670731723309,-0.304878056049,0.731707334518,1.0,0.0,0.0,0.0,1.0,0.0,0.0,0.0,1.0,1.0534486574,-0.507570751953,10.1945106689,1.0,0.0,0.0,0.0,1.0,0.0,0.0,0.0,1.0
1463923328955025980,564,1463923328871089984,,-2.86530709267,-4.84647655487,12.0210351944,0.0173649992794,1.0,0.0,0.0,0.0,1.0,0.0,0.0,0.0,1.0,-0.487804889679,0.0,1.09756100178,1.0,0.0,0.0,0.0,1.0,0.0,0.0,0.0,1.0,1.35032973633,-0.684741674805,9.95987890625,1.0,0.0,0.0,0.0,1.0,0.0,0.0,0.0,1.0
1463923328955328374,565,1463923328891804635,,-2.90613698959,-4.85759401321,12.0368556976,0.0206569992006,1.0,0.0,0.0,0.0,1.0,0.0,0.0,0.0,1.0,-0.487804889679,2.5,0.914634168148,1.0,0.0,0.0,0.0,1.0,0.0,0.0,0.0,1.0,1.53707746582,-0.780509741211,10.0317049561,1.0,0.0,0.0,0.0,1.0,0.0,0.0,0.0,1.0
1463923328955597748,566,1463923328913228554,,-2.88672423363,-4.88855361938,12.0387630463,0.0207080002874,1.0,0.0,0.0,0.0,1.0,0.0,0.0,0.0,1.0,-0.548780500889,3.10975623131,0.243902444839,1.0,0.0,0.0,0.0,1.0,0.0,0.0,0.0,1.0,1.11569797363,-0.948103857422,10.0125513428,1.0,0.0,0.0,0.0,1.0,0.0,0.0,0.0,1.0
1463923328969021805,567,1463923328930147753,,-2.81136035919,-4.94408321381,12.0432910919,0.0200009997934,1.0,0.0,0.0,0.0,1.0,0.0,0.0,0.0,1.0,-0.426829278469,6.58536624908,0.609756112099,1.0,0.0,0.0,0.0,1.0,0.0,0.0,0.0,1.0,1.22104284668,-1.19231249982,9.90241806641,1.0,0.0,0.0,0.0,1.0,0.0,0.0,0.0,1.0
1463923329279809383,568,1463923328950328396,,-2.70543861389,-4.90613365173,12.0541248322,0.0202840007842,1.0,0.0,0.0,0.0,1.0,0.0,0.0,0.0,1.0,3.04878044128,5.79268312454,0.914634168148,1.0,0.0,0.0,0.0,1.0,0.0,0.0,0.0,1.0,0.871489404297,-1.06302561017,10.6398321777,1.0,0.0,0.0,0.0,1.0,0.0,0.0,0.0,1.0
1463923329280356776,569,1463923328971888199,,-2.57840228081,-4.84424543381,12.0641899109,0.0204039998353,1.0,0.0,0.0,0.0,1.0,0.0,0.0,0.0,1.0,4.81707286835,3.84146332741,0.670731723309,1.0,0.0,0.0,0.0,1.0,0.0,0.0,0.0,1.0,0.287304199219,-1.15879360352,10.5296989014,1.0,0.0,0.0,0.0,1.0,0.0,0.0,0.0,1.0
1463923329280755212,570,1463923328991358012,,-2.55271244049,-4.76951789856,12.0840778351,0.020408000797,1.0,0.0,0.0,0.0,1.0,0.0,0.0,0.0,1.0,2.43902444839,0.12195122242,0.975609779358,1.0,0.0,0.0,0.0,1.0,0.0,0.0,0.0,1.0,0.493205541992,-0.569819995117,10.3381627686,1.0,0.0,0.0,0.0,1.0,0.0,0.0,0.0,1.0
1463923329281028388,571,1463923329011882664,,-2.61471676826,-4.74856424332,12.1180906296,0.0204349998385,1.0,0.0,0.0,0.0,1.0,0.0,0.0,0.0,1.0,0.365853667259,-3.47560977936,1.34146344662,1.0,0.0,0.0,0.0,1.0,0.0,0.0,0.0,1.0,0.612915625,-0.641646044922,10.1466266357,1.0,0.0,0.0,0.0,1.0,0.0,0.0,0.0,1.0
1463923329281407397,572,1463923329032022682,,-2.69452643394,-4.7416343689,12.1519002914,0.0204009991139,1.0,0.0,0.0,0.0,1.0,0.0,0.0,0.0,1.0,-0.548780500889,-5.0,1.2195122242,1.0,0.0,0.0,0.0,1.0,0.0,0.0,0.0,1.0,0.488417138672,-0.574608398438,9.77791958008,1.0,0.0,0.0,0.0,1.0,0.0,0.0,0.0,1.0
1463923329281700312,573,1463923329052871863,,-2.83600473404,-4.73109722137,12.1956100464,0.0204070005566,1.0,0.0,0.0,0.0,1.0,0.0,0.0,0.0,1.0,0.12195122242,-4.75609779358,1.70731711388,1.0,0.0,0.0,0.0,1.0,0.0,0.0,0.0,1.0,1.12048637695,-0.679953271484,10.165780249,1.0,0.0,0.0,0.0,1.0,0.0,0.0,0.0,1.0
1463923329281992603,574,1463923329072869330,,-2.98266911507,-4.73864221573,12.2712230682,0.0203889999539,1.0,0.0,0.0,0.0,1.0,0.0,0.0,0.0,1.0,-0.731707334518,-4.63414621353,3.29268312454,1.0,0.0,0.0,0.0,1.0,0.0,0.0,0.0,1.0,1.22583125,-0.660799658203,10.0508585693,1.0,0.0,0.0,0.0,1.0,0.0,0.0,0.0,1.0
1463923329282291351,575,1463923329093130493,,-3.08733868599,-4.68680143356,12.3142766953,0.0203980002552,1.0,0.0,0.0,0.0,1.0,0.0,0.0,0.0,1.0,-0.548780500889,-3.23170733452,1.95121955872,1.0,0.0,0.0,0.0,1.0,0.0,0.0,0.0,1.0,1.10612116699,-0.186747729492,10.0269165527,1.0,0.0,0.0,0.0,1.0,0.0,0.0,0.0,1.0
1463923329282782964,576,1463923329113694051,,-3.2399790287,-4.61544132233,12.3281183243,0.0204169992357,1.0,0.0,0.0,0.0,1.0,0.0,0.0,0.0,1.0,0.304878056049,-4.45121955872,0.426829278469,1.0,0.0,0.0,0.0,1.0,0.0,0.0,0.0,1.0,1.31202250977,-0.172382519531,10.0795889893,1.0,0.0,0.0,0.0,1.0,0.0,0.0,0.0,1.0
1463923329283161296,577,1463923329134098443,,-3.3243522644,-4.49215173721,12.320649147,0.0204089991748,1.0,0.0,0.0,0.0,1.0,0.0,0.0,0.0,1.0,1.58536589146,-1.58536589146,-0.304878056049,1.0,0.0,0.0,0.0,1.0,0.0,0.0,0.0,1.0,1.2497732666,0.0574608398438,10.165780249,1.0,0.0,0.0,0.0,1.0,0.0,0.0,0.0,1.0
1463923329283497544,578,1463923329154459606,,-3.38547372818,-4.32434749603,12.3575153351,0.0204300004989,1.0,0.0,0.0,0.0,1.0,0.0,0.0,0.0,1.0,2.25609779358,-1.09756100178,2.01219511032,1.0,0.0,0.0,0.0,1.0,0.0,0.0,0.0,1.0,1.1875240965,0.378283862305,10.2567599121,1.0,0.0,0.0,0.0,1.0,0.0,0.0,0.0,1.0
1463923329283811345,579,1463923329174787696,,-3.36880946159,-4.08231019974,12.452167511,0.0203910004348,1.0,0.0,0.0,0.0,1.0,0.0,0.0,0.0,1.0,2.5,1.2195122242,5.24390268326,1.0,0.0,0.0,0.0,1.0,0.0,0.0,0.0,1.0,1.02471831055,1.13485158691,10.8936175537,1.0,0.0,0.0,0.0,1.0,0.0,0.0,0.0,1.0
1463923329296377333,580,1463923329195725159,,-3.4043738842,-3.90797448158,12.583656311,0.0203959997743,1.0,0.0,0.0,0.0,1.0,0.0,0.0,0.0,1.0,-2.07317066193,-1.15853655338,6.95121955872,1.0,0.0,0.0,0.0,1.0,0.0,0.0,0.0,1.0,0.991199487305,1.33596452637,10.0077629395,1.0,0.0,0.0,0.0,1.0,0.0,0.0,0.0,1.0
1463923329296910976,581,1463923329215826323,,-3.14374566078,-3.96610403061,12.8835868835,0.0204160008579,1.0,0.0,0.0,0.0,1.0,0.0,0.0,0.0,1.0,-4.08536577225,13.2926826477,15.6707315445,1.0,0.0,0.0,0.0,1.0,0.0,0.0,0.0,1.0,1.01992990723,-0.225054956055,9.37569311665,1.0,0.0,0.0,0.0,1.0,0.0,0.0,0.0,1.0
1463923329297854149,582,1463923329236165507,,-3.40099048615,-3.75221276283,12.9487857819,0.0204300004989,1.0,0.0,0.0,0.0,1.0,0.0,0.0,0.0,1.0,6.52439069748,-1.09756100178,3.29268312454,1.0,0.0,0.0,0.0,1.0,0.0,0.0,0.0,1.0,2.70065947266,0.134075302102,9.2176763916,1.0,0.0,0.0,0.0,1.0,0.0,0.0,0.0,1.0
1463923329298242533,583,1463923329256367764,,-3.02716183662,-3.83258271217,13.2416563034,0.0203760005534,1.0,0.0,0.0,0.0,1.0,0.0,0.0,0.0,1.0,-1.34146344662,23.1097564697,15.7317075729,1.0,0.0,0.0,0.0,1.0,0.0,0.0,0.0,1.0,2.14999323695,-1.0534486574,11.6166664551,1.0,0.0,0.0,0.0,1.0,0.0,0.0,0.0,1.0
1463923329298521334,584,1463923329276733563,,-2.76569724083,-3.78090190887,13.7785272598,0.0204179994762,1.0,0.0,0.0,0.0,1.0,0.0,0.0,0.0,1.0,-1.2804877758,11.8902444839,27.317073822,1.0,0.0,0.0,0.0,1.0,0.0,0.0,0.0,1.0,0.847547387695,0.301669427446,9.47146118306,1.0,0.0,0.0,0.0,1.0,0.0,0.0,0.0,1.0
1463923329298948936,585,1463923329297402433,,-2.50944590569,-3.66817355156,14.1687164307,0.0204060003161,1.0,0.0,0.0,0.0,1.0,0.0,0.0,0.0,1.0,5.79268312454,18.4146347046,20.3048782349,1.0,0.0,0.0,0.0,1.0,0.0,0.0,0.0,1.0,1.88184250488,-0.450109912109,9.47146118306,1.0,0.0,0.0,0.0,1.0,0.0,0.0,0.0,1.0
1463923329473599231,586,1463923329317627763,,-2.08292889595,-3.66417860985,14.4373607635,0.0204249992967,1.0,0.0,0.0,0.0,1.0,0.0,0.0,0.0,1.0,-2.25609779358,25.8536586761,14.8780498505,1.0,0.0,0.0,0.0,1.0,0.0,0.0,0.0,1.0,1.99676418457,-0.0383072265625,11.7315881348,1.0,0.0,0.0,0.0,1.0,0.0,0.0,0.0,1.0
1463923329473902772,587,1463923329339238087,,-1.63724672794,-3.23811411858,14.7674188614,0.0204089991748,1.0,0.0,0.0,0.0,1.0,0.0,0.0,0.0,1.0,2.25609779358,21.4634151459,18.1097564697,1.0,0.0,0.0,0.0,1.0,0.0,0.0,0.0,1.0,0.565031591797,2.40377861293,8.06845959473,1.0,0.0,0.0,0.0,1.0,0.0,0.0,0.0,1.0
1463923329474188656,588,1463923329358808993,,-1.11453044415,-3.07673597336,15.0972566605,0.0203799996525,1.0,0.0,0.0,0.0,1.0,0.0,0.0,0.0,1.0,8.10975551605,31.5243930817,17.8658542633,1.0,0.0,0.0,0.0,1.0,0.0,0.0,0.0,1.0,1.49877023926,-0.397437475586,8.72925925293,1.0,0.0,0.0,0.0,1.0,0.0,0.0,0.0,1.0
1463923329474491832,589,1463923329379141666,,-0.500320017338,-2.7924413681,15.457198143,0.020488999784,1.0,0.0,0.0,0.0,1.0,0.0,0.0,0.0,1.0,9.26829242706,23.658536911,18.7804889679,1.0,0.0,0.0,0.0,1.0,0.0,0.0,0.0,1.0,-0.512359155273,0.368707055664,9.2942902602,1.0,0.0,0.0,0.0,1.0,0.0,0.0,0.0,1.0
1463923329474880372,590,1463923329399219393,,0.137733772397,-2.52243971825,15.8924283981,0.0203680004925,1.0,0.0,0.0,0.0,1.0,0.0,0.0,0.0,1.0,2.74390244484,20.8536586761,22.3170719147,1.0,0.0,0.0,0.0,1.0,0.0,0.0,0.0,1.0,-1.28329208984,1.36469494629,9.12669672852,1.0,0.0,0.0,0.0,1.0,0.0,0.0,0.0,1.0
1463923329475341307,591,1463923329427786563,,0.214007854462,-2.79078054428,16.213508606,0.0281039997935,1.0,0.0,0.0,0.0,1.0,0.0,0.0,0.0,1.0,-6.0365858078,-7.74390268326,10.9756097794,1.0,0.0,0.0,0.0,1.0,0.0,0.0,0.0,1.0,-1.52271225586,-0.957680664062,9.53371159526,1.0,0.0,0.0,0.0,1.0,0.0,0.0,0.0,1.0
1463923329509157881,592,1463923329440742236,,0.0917084589601,-2.80033707619,16.3723278046,0.0129199996591,1.0,0.0,0.0,0.0,1.0,0.0,0.0,0.0,1.0,1.95121955872,-9.87804889679,11.7073173523,1.0,0.0,0.0,0.0,1.0,0.0,0.0,0.0,1.0,0.201112939453,-0.885854614258,9.87368764648,1.0,0.0,0.0,0.0,1.0,0.0,0.0,0.0,1.0
1463923329509718452,593,1463923329460690797,,0.0463965982199,-2.75852870941,16.6514186859,0.0202660001814,1.0,0.0,0.0,0.0,1.0,0.0,0.0,0.0,1.0,6.34146356583,-10.1829271317,13.1707324982,1.0,0.0,0.0,0.0,1.0,0.0,0.0,0.0,1.0,-1.12048637695,-1.19710090314,10.1226846191,1.0,0.0,0.0,0.0,1.0,0.0,0.0,0.0,1.0
1463923329524726721,594,1463923329481369459,,-0.280004650354,-2.71041250229,16.9986953735,0.020610999316,1.0,0.0,0.0,0.0,1.0,0.0,0.0,0.0,1.0,5.0,-17.3780498505,15.9146347046,1.0,0.0,0.0,0.0,1.0,0.0,0.0,0.0,1.0,0.067037651051,-0.852335791016,9.74440075684,1.0,0.0,0.0,0.0,1.0,0.0,0.0,0.0,1.0
1463923329525064532,595,1463923329501636768,,-0.579566776752,-2.74017357826,17.367433548,0.0201120004058,1.0,0.0,0.0,0.0,1.0,0.0,0.0,0.0,1.0,1.03658533096,-16.4024391174,17.4390239716,1.0,0.0,0.0,0.0,1.0,0.0,0.0,0.0,1.0,0.124498486328,-0.708683691406,8.62870336773,1.0,0.0,0.0,0.0,1.0,0.0,0.0,0.0,1.0
1463923329558717305,596,1463923329521930535,,-1.16475439072,-2.71395921707,17.8728122711,0.0205170009285,1.0,0.0,0.0,0.0,1.0,0.0,0.0,0.0,1.0,3.29268312454,-17.0121955872,23.7195129395,1.0,0.0,0.0,0.0,1.0,0.0,0.0,0.0,1.0,2.67671745605,-0.713472094727,10.1609918457,1.0,0.0,0.0,0.0,1.0,0.0,0.0,0.0,1.0
1463923329559125168,597,1463923329542075449,,-1.42992901802,-2.79415130615,18.3541622162,0.0203040000051,1.0,0.0,0.0,0.0,1.0,0.0,0.0,0.0,1.0,-0.304878056049,-7.86585378647,23.1707324982,1.0,0.0,0.0,0.0,1.0,0.0,0.0,0.0,1.0,1.53707746582,-0.948103857422,9.90241806641,1.0,0.0,0.0,0.0,1.0,0.0,0.0,0.0,1.0
1463923329613643945,598,1463923329562675830,,-1.7674216032,-2.74835515022,18.8645172119,0.0205540005118,1.0,0.0,0.0,0.0,1.0,0.0,0.0,0.0,1.0,1.52439022064,1.8292683363,24.8780498505,1.0,0.0,0.0,0.0,1.0,0.0,0.0,0.0,1.0,4.15154538645,-0.138863696289,9.88805285645,1.0,0.0,0.0,0.0,1.0,0.0,0.0,0.0,1.0
1463923329613944673,599,1463923329583009805,,-1.69721615314,-2.74482107162,19.3549537659,0.0202520005405,1.0,0.0,0.0,0.0,1.0,0.0,0.0,0.0,1.0,5.06097555161,16.9512195587,24.817073822,1.0,0.0,0.0,0.0,1.0,0.0,0.0,0.0,1.0,3.60087929687,-1.2976572998,11.0085392334,1.0,0.0,0.0,0.0,1.0,0.0,0.0,0.0,1.0
1463923329639628574,600,1463923329603458728,,-1.34327948093,-2.80568575859,19.8068237305,0.0204269997776,1.0,0.0,0.0,0.0,1.0,0.0,0.0,0.0,1.0,1.46341466904,30.9146327972,23.4146347046,1.0,0.0,0.0,0.0,1.0,0.0,0.0,0.0,1.0,3.30878669434,-1.13963999023,10.1609918457,1.0,0.0,0.0,0.0,1.0,0.0,0.0,0.0,1.0
1463923329639749927,601,1463923329623976349,,-0.728386163712,-2.90000367165,20.1946601868,0.0204189997166,1.0,0.0,0.0,0.0,1.0,0.0,0.0,0.0,1.0,-3.23170733452,43.3536567688,21.0365848541,1.0,0.0,0.0,0.0,1.0,0.0,0.0,0.0,1.0,3.1364041748,-0.61770402832,10.180145459,1.0,0.0,0.0,0.0,1.0,0.0,0.0,0.0,1.0
1463923329693955112,602,1463923329644129231,,0.141969710588,-2.86476325989,20.487285614,0.0203889999539,1.0,0.0,0.0,0.0,1.0,0.0,0.0,0.0,1.0,-0.18292683363,57.5609779358,17.1951217651,1.0,0.0,0.0,0.0,1.0,0.0,0.0,0.0,1.0,3.29442148437,-0.0622492431641,10.1562034424,1.0,0.0,0.0,0.0,1.0,0.0,0.0,0.0,1.0
1463923329694000841,603,1463923329664596019,,1.40289449692,-2.9391784668,20.7730808258,0.0204319991171,1.0,0.0,0.0,0.0,1.0,0.0,0.0,0.0,1.0,-1.2804877758,69.8780517578,17.4390239716,1.0,0.0,0.0,0.0,1.0,0.0,0.0,0.0,1.0,1.76213242187,-0.871489404297,9.84016882324,1.0,0.0,0.0,0.0,1.0,0.0,0.0,0.0,1.0
1463923329722250981,604,1463923329685117442,,2.79102706909,-2.88097500801,21.0341835022,0.0203719995916,1.0,0.0,0.0,0.0,1.0,0.0,0.0,0.0,1.0,3.53658556938,76.7682952881,16.6463413239,1.0,0.0,0.0,0.0,1.0,0.0,0.0,0.0,1.0,1.61369191895,-0.636857641602,9.86889924316,1.0,0.0,0.0,0.0,1.0,0.0,0.0,0.0,1.0
1463923329722297283,605,1463923329705446938,,4.52383613586,-2.95753931999,21.2257156372,0.0204349998385,1.0,0.0,0.0,0.0,1.0,0.0,0.0,0.0,1.0,1.40243899822,81.0365905762,13.658536911,1.0,0.0,0.0,0.0,1.0,0.0,0.0,0.0,1.0,-0.804451757813,-1.36469494629,9.33738589009,1.0,0.0,0.0,0.0,1.0,0.0,0.0,0.0,1.0
1463923329759279989,606,1463923329725712893,,6.03717947006,-2.98697257042,21.3031349182,0.0203959997743,1.0,0.0,0.0,0.0,1.0,0.0,0.0,0.0,1.0,3.47560977936,67.3170776367,7.56097555161,1.0,0.0,0.0,0.0,1.0,0.0,0.0,0.0,1.0,-1.75255561523,-1.36948334961,9.78749638672,1.0,0.0,0.0,0.0,1.0,0.0,0.0,0.0,1.0
1463923329759333583,607,1463923329746369836,,7.32423448563,-3.02422809601,21.2279567719,0.0204349998385,1.0,0.0,0.0,0.0,1.0,0.0,0.0,0.0,1.0,2.68292689323,51.5853691101,-0.670731723309,1.0,0.0,0.0,0.0,1.0,0.0,0.0,0.0,1.0,-2.92092602539,-1.17315874041,9.73003554687,1.0,0.0,0.0,0.0,1.0,0.0,0.0,0.0,1.0
1463923329807094837,608,1463923329766787405,,8.24106788635,-3.0068693161,21.0814495087,0.0203840006143,1.0,0.0,0.0,0.0,1.0,0.0,0.0,0.0,1.0,2.31707310677,32.1951217651,-5.54878091812,1.0,0.0,0.0,0.0,1.0,0.0,0.0,0.0,1.0,-3.39018955078,-0.517147558594,9.52892319194,1.0,0.0,0.0,0.0,1.0,0.0,0.0,0.0,1.0
1463923329809307796,609,1463923329787127943,,8.81072425842,-2.95482397079,20.8557052612,0.0204029995948,1.0,0.0,0.0,0.0,1.0,0.0,0.0,0.0,1.0,1.8902438879,13.4146347046,-10.7926826477,1.0,0.0,0.0,0.0,1.0,0.0,0.0,0.0,1.0,-4.11323845215,0.0,9.93593688965,1.0,0.0,0.0,0.0,1.0,0.0,0.0,0.0,1.0
1463923329881628008,610,1463923329808113166,,8.90608406067,-2.97943973541,20.582452774,0.0204150006175,1.0,0.0,0.0,0.0,1.0,0.0,0.0,0.0,1.0,1.34146344662,-3.23170733452,-13.5365858078,1.0,0.0,0.0,0.0,1.0,0.0,0.0,0.0,1.0,-2.93529123535,-0.526724328702,9.96945571289,1.0,0.0,0.0,0.0,1.0,0.0,0.0,0.0,1.0
1463923329882008839,611,1463923329828133393,,8.79029369354,-3.00562977791,20.3679714203,0.0204590000212,1.0,0.0,0.0,0.0,1.0,0.0,0.0,0.0,1.0,0.304878056049,-11.0365858078,-11.1585359573,1.0,0.0,0.0,0.0,1.0,0.0,0.0,0.0,1.0,-2.30801040039,-0.411802685547,9.39963513325,1.0,0.0,0.0,0.0,1.0,0.0,0.0,0.0,1.0
1463923329883074408,612,1463923329853189692,,8.40521526337,-3.12784767151,20.1344509125,0.0245639998466,1.0,0.0,0.0,0.0,1.0,0.0,0.0,0.0,1.0,-1.2804877758,-16.0365848541,-10.1219511032,1.0,0.0,0.0,0.0,1.0,0.0,0.0,0.0,1.0,-1.51313544922,-0.866701000977,10.0556469727,1.0,0.0,0.0,0.0,1.0,0.0,0.0,0.0,1.0
1463923329883145293,613,1463923329869356602,,8.03203010559,-3.23251366615,20.0172729492,0.0162090007216,1.0,0.0,0.0,0.0,1.0,0.0,0.0,0.0,1.0,0.975609779358,-17.317073822,-7.37804937363,1.0,0.0,0.0,0.0,1.0,0.0,0.0,0.0,1.0,-0.349553442383,-1.77649763184,10.9031943604,1.0,0.0,0.0,0.0,1.0,0.0,0.0,0.0,1.0
1463923330020205228,614,1463923329889773702,,7.7514462471,-3.34901309013,20.1153755188,0.0205279998481,1.0,0.0,0.0,0.0,1.0,0.0,0.0,0.0,1.0,0.670731723309,6.52439069748,5.91463422775,1.0,0.0,0.0,0.0,1.0,0.0,0.0,0.0,1.0,2.77248552246,-1.90099611816,10.5680061279,1.0,0.0,0.0,0.0,1.0,0.0,0.0,0.0,1.0
