%time,field.header.seq,field.header.stamp,field.header.frame_id,field.orientation.x,field.orientation.y,field.orientation.z,field.orientation.w,field.orientation_covariance0,field.orientation_covariance1,field.orientation_covariance2,field.orientation_covariance3,field.orientation_covariance4,field.orientation_covariance5,field.orientation_covariance6,field.orientation_covariance7,field.orientation_covariance8,field.angular_velocity.x,field.angular_velocity.y,field.angular_velocity.z,field.angular_velocity_covariance0,field.angular_velocity_covariance1,field.angular_velocity_covariance2,field.angular_velocity_covariance3,field.angular_velocity_covariance4,field.angular_velocity_covariance5,field.angular_velocity_covariance6,field.angular_velocity_covariance7,field.angular_velocity_covariance8,field.linear_acceleration.x,field.linear_acceleration.y,field.linear_acceleration.z,field.linear_acceleration_covariance0,field.linear_acceleration_covariance1,field.linear_acceleration_covariance2,field.linear_acceleration_covariance3,field.linear_acceleration_covariance4,field.linear_acceleration_covariance5,field.linear_acceleration_covariance6,field.linear_acceleration_covariance7,field.linear_acceleration_covariance8
1464075790866907403,233,1464075790560415986,,20.4390468597,-6.2304649353,141.753936768,0.00126199994702,1.0,0.0,0.0,0.0,1.0,0.0,0.0,0.0,1.0,-0.731707334518,1.58536589146,-0.12195122242,1.0,0.0,0.0,0.0,1.0,0.0,0.0,0.0,1.0,-0.15801730957,-0.478840332031,10.2423947021,1.0,0.0,0.0,0.0,1.0,0.0,0.0,0.0,1.0
1464075790882063821,234,1464075790589796792,,20.1130027771,-6.19669151306,141.772521973,0.00199200003408,1.0,0.0,0.0,0.0,1.0,0.0,0.0,0.0,1.0,-0.975609779358,1.76829278469,0.12195122242,1.0,0.0,0.0,0.0,1.0,0.0,0.0,0.0,1.0,-0.167594116211,-0.876277807617,10.2423947021,1.0,0.0,0.0,0.0,1.0,0.0,0.0,0.0,1.0
1464075790882218352,235,1464075790603028007,,19.8140068054,-6.1603770256,141.794631958,0.00117800000589,1.0,0.0,0.0,0.0,1.0,0.0,0.0,0.0,1.0,-0.914634168148,1.95121955872,0.18292683363,1.0,0.0,0.0,0.0,1.0,0.0,0.0,0.0,1.0,-0.172382519531,-0.809240161133,10.3094323486,1.0,0.0,0.0,0.0,1.0,0.0,0.0,0.0,1.0
1464075790882305122,236,1464075790624236596,,19.51603508,-6.13392591476,141.806777954,0.00178399996366,1.0,0.0,0.0,0.0,1.0,0.0,0.0,0.0,1.0,-0.365853667259,1.76829278469,0.243902444839,1.0,0.0,0.0,0.0,1.0,0.0,0.0,0.0,1.0,-0.0718260498047,-0.799663354492,10.3285859619,1.0,0.0,0.0,0.0,1.0,0.0,0.0,0.0,1.0
1464075790882412987,237,1464075790644887426,,19.2384414673,-6.10610246658,141.82131958,0.00150000001304,1.0,0.0,0.0,0.0,1.0,0.0,0.0,0.0,1.0,-0.731707334518,2.07317066193,0.304878056049,1.0,0.0,0.0,0.0,1.0,0.0,0.0,0.0,1.0,-0.167594116211,-0.737414111328,10.285490332,1.0,0.0,0.0,0.0,1.0,0.0,0.0,0.0,1.0
1464075790882447257,238,1464075790666989710,,18.9507846832,-6.06814861298,141.839004517,0.00124799995683,1.0,0.0,0.0,0.0,1.0,0.0,0.0,0.0,1.0,-0.426829278469,2.25609779358,0.304878056049,1.0,0.0,0.0,0.0,1.0,0.0,0.0,0.0,1.0,-0.248996972656,-0.76135612793,10.2519715088,1.0,0.0,0.0,0.0,1.0,0.0,0.0,0.0,1.0
1464075790882482153,239,1464075790687168146,,18.6882991791,-6.03261232376,141.860824585,0.00120399997104,1.0,0.0,0.0,0.0,1.0,0.0,0.0,0.0,1.0,-0.487804889679,1.8902438879,0.609756112099,1.0,0.0,0.0,0.0,1.0,0.0,0.0,0.0,1.0,-0.344765039063,-0.818816967773,10.2471831055,1.0,0.0,0.0,0.0,1.0,0.0,0.0,0.0,1.0
1464075790882518247,240,1464075790708387412,,18.4047393799,-5.99998378754,141.877120972,0.00255300011486,1.0,0.0,0.0,0.0,1.0,0.0,0.0,0.0,1.0,-0.670731723309,1.46341466904,0.243902444839,1.0,0.0,0.0,0.0,1.0,0.0,0.0,0.0,1.0,-0.210689746094,-0.708683691406,10.1178962158,1.0,0.0,0.0,0.0,1.0,0.0,0.0,0.0,1.0
1464075790882552986,241,1464075790729146419,,18.1248340607,-5.97367143631,141.887817383,0.00132999999914,1.0,0.0,0.0,0.0,1.0,0.0,0.0,0.0,1.0,-0.304878056049,2.31707310677,0.426829278469,1.0,0.0,0.0,0.0,1.0,0.0,0.0,0.0,1.0,-0.272938989258,-0.847547387695,10.180145459,1.0,0.0,0.0,0.0,1.0,0.0,0.0,0.0,1.0
1464075790882591476,242,1464075790753613957,,17.8705406189,-5.94786453247,141.902481079,0.00176000001375,1.0,0.0,0.0,0.0,1.0,0.0,0.0,0.0,1.0,-0.18292683363,2.74390244484,0.914634168148,1.0,0.0,0.0,0.0,1.0,0.0,0.0,0.0,1.0,-0.268150604204,-0.651222851562,10.1705686523,1.0,0.0,0.0,0.0,1.0,0.0,0.0,0.0,1.0
1464075790882627153,243,1464075790771695315,,17.6433773041,-5.91290092468,141.920532227,0.00294000003487,1.0,0.0,0.0,0.0,1.0,0.0,0.0,0.0,1.0,-0.365853667259,2.74390244484,0.792682945728,1.0,0.0,0.0,0.0,1.0,0.0,0.0,0.0,1.0,-0.430956298828,-0.742202514648,10.180145459,1.0,0.0,0.0,0.0,1.0,0.0,0.0,0.0,1.0
1464075790882663663,244,1464075790794300358,,17.4058437347,-5.88512611389,141.930923462,0.00206999992952,1.0,0.0,0.0,0.0,1.0,0.0,0.0,0.0,1.0,-0.304878056049,1.70731711388,0.731707334518,1.0,0.0,0.0,0.0,1.0,0.0,0.0,0.0,1.0,-0.359130249023,-0.732625708008,10.3381627686,1.0,0.0,0.0,0.0,1.0,0.0,0.0,0.0,1.0
1464075790882732465,245,1464075790814663741,,17.125837326,-5.85059452057,141.946899414,0.00499399984255,1.0,0.0,0.0,0.0,1.0,0.0,0.0,0.0,1.0,0.0609756112099,1.40243899822,0.487804889679,1.0,0.0,0.0,0.0,1.0,0.0,0.0,0.0,1.0,-0.253785375977,-0.660799658203,10.3381627686,1.0,0.0,0.0,0.0,1.0,0.0,0.0,0.0,1.0
1464075790882773715,246,1464075790843022155,,16.7956485748,-5.82480096817,141.964889526,0.00817000027746,1.0,0.0,0.0,0.0,1.0,0.0,0.0,0.0,1.0,-1.03658533096,2.01219511032,0.548780500889,1.0,0.0,0.0,0.0,1.0,0.0,0.0,0.0,1.0,0.0,-0.809240161133,10.2519715088,1.0,0.0,0.0,0.0,1.0,0.0,0.0,0.0,1.0
1464075790882812204,247,1464075790864471941,,16.5547046661,-5.79752731323,141.982803345,0.0039140000008,1.0,0.0,0.0,0.0,1.0,0.0,0.0,0.0,1.0,-0.853658556938,2.62195134163,0.487804889679,1.0,0.0,0.0,0.0,1.0,0.0,0.0,0.0,1.0,-0.15801730957,-0.60812722168,10.285490332,1.0,0.0,0.0,0.0,1.0,0.0,0.0,0.0,1.0
1464075790889955154,248,1464075790885487926,,16.3288669586,-5.76607227325,141.991607666,0.00195199996233,1.0,0.0,0.0,0.0,1.0,0.0,0.0,0.0,1.0,-0.609756112099,1.8292683363,-0.18292683363,1.0,0.0,0.0,0.0,1.0,0.0,0.0,0.0,1.0,-0.0957680664062,-0.598550451572,10.2567599121,1.0,0.0,0.0,0.0,1.0,0.0,0.0,0.0,1.0
1464075790941656474,249,1464075790905966101,,16.1130504608,-5.73974943161,142.000213623,0.00196900009178,1.0,0.0,0.0,0.0,1.0,0.0,0.0,0.0,1.0,-0.670731723309,1.95121955872,0.0609756112099,1.0,0.0,0.0,0.0,1.0,0.0,0.0,0.0,1.0,-0.0957680664062,-0.699106884766,10.299855542,1.0,0.0,0.0,0.0,1.0,0.0,0.0,0.0,1.0
1464075790942073608,250,1464075790926650368,,15.8999862671,-5.71080350876,142.016281128,0.00220200000331,1.0,0.0,0.0,0.0,1.0,0.0,0.0,0.0,1.0,-0.243902444839,2.31707310677,0.670731723309,1.0,0.0,0.0,0.0,1.0,0.0,0.0,0.0,1.0,-0.110133276367,-0.651222851562,10.2184526855,1.0,0.0,0.0,0.0,1.0,0.0,0.0,0.0,1.0
1464075790988310411,251,1464075790948084061,,15.6878461838,-5.6866350174,142.034942627,0.00124600005802,1.0,0.0,0.0,0.0,1.0,0.0,0.0,0.0,1.0,-0.731707334518,2.43902444839,0.731707334518,1.0,0.0,0.0,0.0,1.0,0.0,0.0,0.0,1.0,-0.253785375977,-0.694318481445,10.2088758789,1.0,0.0,0.0,0.0,1.0,0.0,0.0,0.0,1.0
1464075790988543744,252,1464075790969786190,,15.4776086807,-5.66700935364,142.047027588,0.00218799989671,1.0,0.0,0.0,0.0,1.0,0.0,0.0,0.0,1.0,-0.670731723309,2.13414645195,0.731707334518,1.0,0.0,0.0,0.0,1.0,0.0,0.0,0.0,1.0,-0.440533105469,-0.742202514648,10.2232410889,1.0,0.0,0.0,0.0,1.0,0.0,0.0,0.0,1.0
1464075790994092791,253,1464075790990455718,,15.2610712051,-5.64391899109,142.05821228,0.00204099994153,1.0,0.0,0.0,0.0,1.0,0.0,0.0,0.0,1.0,-0.304878056049,1.95121955872,0.365853667259,1.0,0.0,0.0,0.0,1.0,0.0,0.0,0.0,1.0,-0.359130249023,-0.703895288086,10.2567599121,1.0,0.0,0.0,0.0,1.0,0.0,0.0,0.0,1.0
1464075791016400180,254,1464075791012907845,,15.0514154434,-5.61808729172,142.06439209,0.00239500007592,1.0,0.0,0.0,0.0,1.0,0.0,0.0,0.0,1.0,-0.12195122242,2.25609779358,0.670731723309,1.0,0.0,0.0,0.0,1.0,0.0,0.0,0.0,1.0,-0.335188232422,-0.574608398438,10.2711251221,1.0,0.0,0.0,0.0,1.0,0.0,0.0,0.0,1.0
1464075791044777656,255,1464075791035457055,,14.8497905731,-5.58990192413,142.078033447,0.0064489999786,1.0,0.0,0.0,0.0,1.0,0.0,0.0,0.0,1.0,-0.365853667259,1.64634156227,0.426829278469,1.0,0.0,0.0,0.0,1.0,0.0,0.0,0.0,1.0,-0.225054956055,-0.526724328702,10.2807019287,1.0,0.0,0.0,0.0,1.0,0.0,0.0,0.0,1.0
1464075791062481827,256,1464075791056974758,,14.6424121857,-5.5630531311,142.089828491,0.00167799997143,1.0,0.0,0.0,0.0,1.0,0.0,0.0,0.0,1.0,-0.487804889679,1.58536589146,-0.365853667259,1.0,0.0,0.0,0.0,1.0,0.0,0.0,0.0,1.0,-0.191536132812,-0.679953271484,10.180145459,1.0,0.0,0.0,0.0,1.0,0.0,0.0,0.0,1.0
1464075791112231173,257,1464075791079100063,,14.431804657,-5.54768705368,142.096618652,0.00201099994592,1.0,0.0,0.0,0.0,1.0,0.0,0.0,0.0,1.0,-0.487804889679,1.2195122242,0.18292683363,1.0,0.0,0.0,0.0,1.0,0.0,0.0,0.0,1.0,-0.282515795898,-0.694318481445,10.2232410889,1.0,0.0,0.0,0.0,1.0,0.0,0.0,0.0,1.0
1464075791112602526,258,1464075791099508707,,14.2406415939,-5.534760952,142.102081299,0.00148099998478,1.0,0.0,0.0,0.0,1.0,0.0,0.0,0.0,1.0,-0.548780500889,2.07317066193,0.243902444839,1.0,0.0,0.0,0.0,1.0,0.0,0.0,0.0,1.0,-0.191536132812,-0.670376464844,10.2184526855,1.0,0.0,0.0,0.0,1.0,0.0,0.0,0.0,1.0
1464075791139008861,259,1464075791122407656,,14.0408735275,-5.51440668106,142.109725952,0.00296800001524,1.0,0.0,0.0,0.0,1.0,0.0,0.0,0.0,1.0,-0.792682945728,2.07317066193,0.12195122242,1.0,0.0,0.0,0.0,1.0,0.0,0.0,0.0,1.0,-0.114921679688,-0.689530078125,10.1322614258,1.0,0.0,0.0,0.0,1.0,0.0,0.0,0.0,1.0
1464075791154509132,260,1464075791143096611,,13.8591012955,-5.49372911453,142.11579895,0.0023340000771,1.0,0.0,0.0,0.0,1.0,0.0,0.0,0.0,1.0,-0.731707334518,2.19512200356,-0.0609756112099,1.0,0.0,0.0,0.0,1.0,0.0,0.0,0.0,1.0,-0.0861912597656,-0.713472094727,10.2040874756,1.0,0.0,0.0,0.0,1.0,0.0,0.0,0.0,1.0
1464075791167758992,261,1464075791164705719,,13.6734695435,-5.47264719009,142.12109375,0.00258000008762,1.0,0.0,0.0,0.0,1.0,0.0,0.0,0.0,1.0,-0.365853667259,1.64634156227,0.487804889679,1.0,0.0,0.0,0.0,1.0,0.0,0.0,0.0,1.0,-0.076614453125,-0.61770402832,10.3094323486,1.0,0.0,0.0,0.0,1.0,0.0,0.0,0.0,1.0
1464075791196293968,262,1464075791185878579,,13.4975395203,-5.45318222046,142.128189087,0.00238900003023,1.0,0.0,0.0,0.0,1.0,0.0,0.0,0.0,1.0,-0.426829278469,1.8902438879,0.18292683363,1.0,0.0,0.0,0.0,1.0,0.0,0.0,0.0,1.0,-0.0957680664062,-0.780509741211,10.2184526855,1.0,0.0,0.0,0.0,1.0,0.0,0.0,0.0,1.0
1464075791209871744,263,1464075791206669201,,13.3338346481,-5.43893241882,142.132919312,0.00149299995974,1.0,0.0,0.0,0.0,1.0,0.0,0.0,0.0,1.0,-0.609756112099,2.68292689323,0.0,1.0,0.0,0.0,0.0,1.0,0.0,0.0,0.0,1.0,-0.167594116211,-0.861912597656,10.2711251221,1.0,0.0,0.0,0.0,1.0,0.0,0.0,0.0,1.0
1464075791250377469,264,1464075791229402213,,13.1752977371,-5.42707538605,142.136978149,0.00135499995667,1.0,0.0,0.0,0.0,1.0,0.0,0.0,0.0,1.0,-0.304878056049,2.98780488968,0.548780500889,1.0,0.0,0.0,0.0,1.0,0.0,0.0,0.0,1.0,-0.287304199219,-0.732625708008,10.2902787354,1.0,0.0,0.0,0.0,1.0,0.0,0.0,0.0,1.0
1464075791265575449,265,1464075791249672887,,13.037984848,-5.41011619568,142.14692688,0.0016609999584,1.0,0.0,0.0,0.0,1.0,0.0,0.0,0.0,1.0,-0.548780500889,3.17073178291,0.975609779358,1.0,0.0,0.0,0.0,1.0,0.0,0.0,0.0,1.0,-0.478840332031,-0.703895288086,10.2376062988,1.0,0.0,0.0,0.0,1.0,0.0,0.0,0.0,1.0
1464075791292007357,266,1464075791270164082,,12.9045619965,-5.3925037384,142.156707764,0.00223500002176,1.0,0.0,0.0,0.0,1.0,0.0,0.0,0.0,1.0,-0.792682945728,2.74390244484,0.548780500889,1.0,0.0,0.0,0.0,1.0,0.0,0.0,0.0,1.0,-0.440533105469,-0.713472094727,10.299855542,1.0,0.0,0.0,0.0,1.0,0.0,0.0,0.0,1.0
1464075791317147863,267,1464075791291498400,,12.7461767197,-5.37667798996,142.164978027,0.00308099994436,1.0,0.0,0.0,0.0,1.0,0.0,0.0,0.0,1.0,-0.18292683363,1.70731711388,0.792682945728,1.0,0.0,0.0,0.0,1.0,0.0,0.0,0.0,1.0,-0.344765039063,-0.732625708008,10.2088758789,1.0,0.0,0.0,0.0,1.0,0.0,0.0,0.0,1.0
1464075791318460828,268,1464075791313442248,,12.5919055939,-5.36290168762,142.17376709,0.00197699991986,1.0,0.0,0.0,0.0,1.0,0.0,0.0,0.0,1.0,-0.12195122242,1.70731711388,0.365853667259,1.0,0.0,0.0,0.0,1.0,0.0,0.0,0.0,1.0,-0.282515795898,-0.727837304687,10.2423947021,1.0,0.0,0.0,0.0,1.0,0.0,0.0,0.0,1.0
1464075791339907229,269,1464075791335507136,,12.4316825867,-5.34426546097,142.180236816,0.00208200002089,1.0,0.0,0.0,0.0,1.0,0.0,0.0,0.0,1.0,-0.18292683363,1.70731711388,0.0,1.0,0.0,0.0,0.0,1.0,0.0,0.0,0.0,1.0,-0.234631762695,-0.60812722168,10.285490332,1.0,0.0,0.0,0.0,1.0,0.0,0.0,0.0,1.0
1464075791361576494,270,1464075791356611767,,12.2837228775,-5.3271689415,142.18661499,0.00206100009382,1.0,0.0,0.0,0.0,1.0,0.0,0.0,0.0,1.0,-0.365853667259,2.01219511032,-0.12195122242,1.0,0.0,0.0,0.0,1.0,0.0,0.0,0.0,1.0,-0.134075302102,-0.780509741211,10.2136642822,1.0,0.0,0.0,0.0,1.0,0.0,0.0,0.0,1.0
1464075791381183472,271,1464075791378451761,,12.1398572922,-5.3117980957,142.199905396,0.00172099994961,1.0,0.0,0.0,0.0,1.0,0.0,0.0,0.0,1.0,-0.548780500889,1.8902438879,0.426829278469,1.0,0.0,0.0,0.0,1.0,0.0,0.0,0.0,1.0,-0.268150604204,-0.593762048251,10.314220752,1.0,0.0,0.0,0.0,1.0,0.0,0.0,0.0,1.0
1464075791404976533,272,1464075791401509043,,11.9921379089,-5.29001569748,142.209350586,0.00150200002827,1.0,0.0,0.0,0.0,1.0,0.0,0.0,0.0,1.0,-0.548780500889,0.914634168148,0.12195122242,1.0,0.0,0.0,0.0,1.0,0.0,0.0,0.0,1.0,-0.181959326172,-0.521935925381,10.2423947021,1.0,0.0,0.0,0.0,1.0,0.0,0.0,0.0,1.0
1464075791430417976,273,1464075791422539924,,11.8282747269,-5.27053928375,142.217819214,0.00267599988729,1.0,0.0,0.0,0.0,1.0,0.0,0.0,0.0,1.0,-0.853658556938,1.8292683363,0.243902444839,1.0,0.0,0.0,0.0,1.0,0.0,0.0,0.0,1.0,-0.181959326172,-0.622492431641,10.1514150391,1.0,0.0,0.0,0.0,1.0,0.0,0.0,0.0,1.0
1464075791510382240,274,1464075791443518565,,11.6787319183,-5.2576584816,142.233703613,0.00290700001642,1.0,0.0,0.0,0.0,1.0,0.0,0.0,0.0,1.0,-0.853658556938,2.13414645195,0.487804889679,1.0,0.0,0.0,0.0,1.0,0.0,0.0,0.0,1.0,-0.196324536133,-0.718260498047,10.0939541992,1.0,0.0,0.0,0.0,1.0,0.0,0.0,0.0,1.0
1464075791510782135,275,1464075791463929292,,11.5525751114,-5.24318170547,142.244033813,0.00146199995652,1.0,0.0,0.0,0.0,1.0,0.0,0.0,0.0,1.0,-0.731707334518,1.95121955872,0.304878056049,1.0,0.0,0.0,0.0,1.0,0.0,0.0,0.0,1.0,-0.210689746094,-0.560243188477,10.2615483154,1.0,0.0,0.0,0.0,1.0,0.0,0.0,0.0,1.0
1464075791511099530,276,1464075791486183139,,11.4093027115,-5.23438739777,142.24508667,0.00189299997874,1.0,0.0,0.0,0.0,1.0,0.0,0.0,0.0,1.0,-0.731707334518,1.76829278469,0.0,1.0,0.0,0.0,0.0,1.0,0.0,0.0,0.0,1.0,-0.00478840332031,-0.622492431641,10.3764699951,1.0,0.0,0.0,0.0,1.0,0.0,0.0,0.0,1.0
1464075791511369061,277,1464075791508222611,,11.2753009796,-5.22142314911,142.250732422,0.00186499999836,1.0,0.0,0.0,0.0,1.0,0.0,0.0,0.0,1.0,-0.731707334518,2.5,0.304878056049,1.0,0.0,0.0,0.0,1.0,0.0,0.0,0.0,1.0,-0.244208569336,-0.660799658203,10.2519715088,1.0,0.0,0.0,0.0,1.0,0.0,0.0,0.0,1.0
1464075791544180014,278,1464075791530201354,,11.1535654068,-5.20798873901,142.260070801,0.0015269999858,1.0,0.0,0.0,0.0,1.0,0.0,0.0,0.0,1.0,-0.18292683363,2.25609779358,0.975609779358,1.0,0.0,0.0,0.0,1.0,0.0,0.0,0.0,1.0,-0.397437475586,-0.723048901367,10.299855542,1.0,0.0,0.0,0.0,1.0,0.0,0.0,0.0,1.0
1464075791705174999,279,1464075791551788171,,11.0392570496,-5.19659662247,142.272460938,0.00219199992716,1.0,0.0,0.0,0.0,1.0,0.0,0.0,0.0,1.0,-0.487804889679,2.31707310677,1.2195122242,1.0,0.0,0.0,0.0,1.0,0.0,0.0,0.0,1.0,-0.277727392578,-0.588973571866,10.1945106689,1.0,0.0,0.0,0.0,1.0,0.0,0.0,0.0,1.0
1464075791705498332,280,1464075791571398066,,10.9343605042,-5.18688678741,142.283233643,0.00290299998596,1.0,0.0,0.0,0.0,1.0,0.0,0.0,0.0,1.0,-0.304878056049,2.01219511032,0.670731723309,1.0,0.0,0.0,0.0,1.0,0.0,0.0,0.0,1.0,-0.383072265625,-0.780509741211,10.2328178955,1.0,0.0,0.0,0.0,1.0,0.0,0.0,0.0,1.0
1464075791705779321,281,1464075791592220563,,10.8223848343,-5.17835903168,142.285446167,0.00261599989608,1.0,0.0,0.0,0.0,1.0,0.0,0.0,0.0,1.0,-0.18292683363,2.31707310677,0.792682945728,1.0,0.0,0.0,0.0,1.0,0.0,0.0,0.0,1.0,-0.134075302102,-0.723048901367,10.2232410889,1.0,0.0,0.0,0.0,1.0,0.0,0.0,0.0,1.0
1464075791706045778,282,1464075791615822947,,10.7115240097,-5.16017246246,142.291259766,0.00620499998331,1.0,0.0,0.0,0.0,1.0,0.0,0.0,0.0,1.0,-0.426829278469,2.43902444839,0.365853667259,1.0,0.0,0.0,0.0,1.0,0.0,0.0,0.0,1.0,-0.229843359375,-0.588973571866,10.2136642822,1.0,0.0,0.0,0.0,1.0,0.0,0.0,0.0,1.0
1464075791706311923,283,1464075791636247059,,10.6012649536,-5.14730739594,142.293548584,0.00173799996264,1.0,0.0,0.0,0.0,1.0,0.0,0.0,0.0,1.0,0.0609756112099,1.64634156227,-0.487804889679,1.0,0.0,0.0,0.0,1.0,0.0,0.0,0.0,1.0,-0.100556469727,-0.723048901367,10.2807019287,1.0,0.0,0.0,0.0,1.0,0.0,0.0,0.0,1.0
1464075791706564996,284,1464075791662131052,,10.4811697006,-5.13631010056,142.298828125,0.00905399955809,1.0,0.0,0.0,0.0,1.0,0.0,0.0,0.0,1.0,-0.975609779358,2.13414645195,0.548780500889,1.0,0.0,0.0,0.0,1.0,0.0,0.0,0.0,1.0,-0.201112939453,-0.61770402832,10.2519715088,1.0,0.0,0.0,0.0,1.0,0.0,0.0,0.0,1.0
1464075791706849734,285,1464075791681303501,,10.3605871201,-5.12608718872,142.30480957,0.00293900002725,1.0,0.0,0.0,0.0,1.0,0.0,0.0,0.0,1.0,-0.670731723309,1.8292683363,0.12195122242,1.0,0.0,0.0,0.0,1.0,0.0,0.0,0.0,1.0,-0.181959326172,-0.603338854892,10.4243540283,1.0,0.0,0.0,0.0,1.0,0.0,0.0,0.0,1.0
1464075791778100064,286,1464075791702436934,,10.2389726639,-5.11666107178,142.304916382,0.00341799994931,1.0,0.0,0.0,0.0,1.0,0.0,0.0,0.0,1.0,-0.731707334518,1.8902438879,-0.0609756112099,1.0,0.0,0.0,0.0,1.0,0.0,0.0,0.0,1.0,-0.162805712891,-0.718260498047,10.2567599121,1.0,0.0,0.0,0.0,1.0,0.0,0.0,0.0,1.0
1464075791778453969,287,1464075791723129951,,10.1351528168,-5.11035490036,142.30696106,0.00290399999358,1.0,0.0,0.0,0.0,1.0,0.0,0.0,0.0,1.0,-0.792682945728,2.25609779358,0.365853667259,1.0,0.0,0.0,0.0,1.0,0.0,0.0,0.0,1.0,-0.0622492431641,-0.737414111328,10.1274730225,1.0,0.0,0.0,0.0,1.0,0.0,0.0,0.0,1.0
1464075791778778344,288,1464075791750974512,,10.02435112,-5.09620809555,142.313034058,0.0120299998671,1.0,0.0,0.0,0.0,1.0,0.0,0.0,0.0,1.0,-0.304878056049,2.07317066193,0.365853667259,1.0,0.0,0.0,0.0,1.0,0.0,0.0,0.0,1.0,-0.359130249023,-0.723048901367,10.2711251221,1.0,0.0,0.0,0.0,1.0,0.0,0.0,0.0,1.0
1464075791779095322,289,1464075791771717217,,9.93040561676,-5.0859041214,142.317016602,0.00255399988964,1.0,0.0,0.0,0.0,1.0,0.0,0.0,0.0,1.0,-0.12195122242,2.31707310677,0.670731723309,1.0,0.0,0.0,0.0,1.0,0.0,0.0,0.0,1.0,-0.263362164351,-0.636857641602,10.1083194092,1.0,0.0,0.0,0.0,1.0,0.0,0.0,0.0,1.0
1464075791917073181,290,1464075791792116589,,9.84463500977,-5.07764482498,142.325637817,0.00276100006886,1.0,0.0,0.0,0.0,1.0,0.0,0.0,0.0,1.0,-0.609756112099,2.01219511032,1.03658533096,1.0,0.0,0.0,0.0,1.0,0.0,0.0,0.0,1.0,-0.383072265625,-0.641646044922,10.2759135254,1.0,0.0,0.0,0.0,1.0,0.0,0.0,0.0,1.0
1464075791917376670,291,1464075791814472206,,9.74927520752,-5.07125997543,142.331604004,0.00201900000684,1.0,0.0,0.0,0.0,1.0,0.0,0.0,0.0,1.0,-0.365853667259,2.01219511032,0.0609756112099,1.0,0.0,0.0,0.0,1.0,0.0,0.0,0.0,1.0,-0.148440512063,-0.636857641602,10.285490332,1.0,0.0,0.0,0.0,1.0,0.0,0.0,0.0,1.0
1464075791917835262,292,1464075791836508033,,9.64958572388,-5.06363344193,142.331939697,0.00182999996468,1.0,0.0,0.0,0.0,1.0,0.0,0.0,0.0,1.0,-0.18292683363,2.37804889679,-0.365853667259,1.0,0.0,0.0,0.0,1.0,0.0,0.0,0.0,1.0,-0.124498486328,-0.732625708008,10.2136642822,1.0,0.0,0.0,0.0,1.0,0.0,0.0,0.0,1.0
1464075791918160366,293,1464075791859291409,,9.56208324432,-5.0475320816,142.342498779,0.00231799995527,1.0,0.0,0.0,0.0,1.0,0.0,0.0,0.0,1.0,-0.18292683363,2.37804889679,0.365853667259,1.0,0.0,0.0,0.0,1.0,0.0,0.0,0.0,1.0,-0.143652099609,-0.560243188477,10.2567599121,1.0,0.0,0.0,0.0,1.0,0.0,0.0,0.0,1.0
1464075791922508583,294,1464075791881155205,,9.47278499603,-5.02997589111,142.349609375,0.00196500006132,1.0,0.0,0.0,0.0,1.0,0.0,0.0,0.0,1.0,-0.548780500889,1.70731711388,0.0,1.0,0.0,0.0,0.0,1.0,0.0,0.0,0.0,1.0,-0.134075302102,-0.407014282227,10.1562034424,1.0,0.0,0.0,0.0,1.0,0.0,0.0,0.0,1.0
1464075791922891395,295,1464075791903111916,,9.36942863464,-5.01849651337,142.350341797,0.00279200007208,1.0,0.0,0.0,0.0,1.0,0.0,0.0,0.0,1.0,-0.731707334518,1.58536589146,0.0,1.0,0.0,0.0,0.0,1.0,0.0,0.0,0.0,1.0,-0.162805712891,-0.675164868164,10.2280294922,1.0,0.0,0.0,0.0,1.0,0.0,0.0,0.0,1.0
1464075792252083533,296,1464075791924713786,,9.27097797394,-5.01175451279,142.358139038,0.00378999998793,1.0,0.0,0.0,0.0,1.0,0.0,0.0,0.0,1.0,-0.792682945728,1.46341466904,0.609756112099,1.0,0.0,0.0,0.0,1.0,0.0,0.0,0.0,1.0,-0.0957680664062,-0.598550451572,10.3860468018,1.0,0.0,0.0,0.0,1.0,0.0,0.0,0.0,1.0
1464075792252122804,297,1464075791946583258,,9.18821716309,-5.00786399841,142.371749878,0.00207499996759,1.0,0.0,0.0,0.0,1.0,0.0,0.0,0.0,1.0,-0.548780500889,3.59756112099,0.12195122242,1.0,0.0,0.0,0.0,1.0,0.0,0.0,0.0,1.0,-0.138863696289,-0.785298144531,10.3860468018,1.0,0.0,0.0,0.0,1.0,0.0,0.0,0.0,1.0
1464075792252158533,298,1464075791966906641,,9.12104320526,-4.99834251404,142.374694824,0.00200499990024,1.0,0.0,0.0,0.0,1.0,0.0,0.0,0.0,1.0,-0.548780500889,1.95121955872,0.426829278469,1.0,0.0,0.0,0.0,1.0,0.0,0.0,0.0,1.0,-0.239420166016,-0.689530078125,10.285490332,1.0,0.0,0.0,0.0,1.0,0.0,0.0,0.0,1.0
1464075792252223480,299,1464075791989379706,,9.04289531708,-4.99068307877,142.37097168,0.0018759999657,1.0,0.0,0.0,0.0,1.0,0.0,0.0,0.0,1.0,-0.609756112099,2.92682933807,0.18292683363,1.0,0.0,0.0,0.0,1.0,0.0,0.0,0.0,1.0,-0.387860668945,-0.804451757813,10.4866032715,1.0,0.0,0.0,0.0,1.0,0.0,0.0,0.0,1.0
1464075792252280876,300,1464075792011471209,,8.96991634369,-4.98271942139,142.377319336,0.00255200010724,1.0,0.0,0.0,0.0,1.0,0.0,0.0,0.0,1.0,-0.609756112099,2.56097555161,0.365853667259,1.0,0.0,0.0,0.0,1.0,0.0,0.0,0.0,1.0,-0.325611425781,-0.684741674805,10.3429511719,1.0,0.0,0.0,0.0,1.0,0.0,0.0,0.0,1.0
1464075792252317855,301,1464075792032226049,,8.89675521851,-4.96648931503,142.377166748,0.00373900006525,1.0,0.0,0.0,0.0,1.0,0.0,0.0,0.0,1.0,-0.12195122242,1.58536589146,0.18292683363,1.0,0.0,0.0,0.0,1.0,0.0,0.0,0.0,1.0,-0.316034619141,-0.61770402832,10.2519715088,1.0,0.0,0.0,0.0,1.0,0.0,0.0,0.0,1.0
1464075792252389209,302,1464075792053779012,,8.823097229,-4.96514368057,142.375900269,0.0034910000395,1.0,0.0,0.0,0.0,1.0,0.0,0.0,0.0,1.0,-0.670731723309,2.80487799644,0.487804889679,1.0,0.0,0.0,0.0,1.0,0.0,0.0,0.0,1.0,-0.205901342773,-0.703895288086,10.1753570557,1.0,0.0,0.0,0.0,1.0,0.0,0.0,0.0,1.0
1464075792252614417,303,1464075792075043435,,8.77343845367,-4.96660709381,142.38369751,0.0018309999723,1.0,0.0,0.0,0.0,1.0,0.0,0.0,0.0,1.0,-0.670731723309,3.29268312454,0.12195122242,1.0,0.0,0.0,0.0,1.0,0.0,0.0,0.0,1.0,-0.239420166016,-0.550666381836,10.3860468018,1.0,0.0,0.0,0.0,1.0,0.0,0.0,0.0,1.0
1464075792253523425,304,1464075792095823848,,8.72710704803,-4.95569086075,142.388122559,0.00153600005433,1.0,0.0,0.0,0.0,1.0,0.0,0.0,0.0,1.0,-0.365853667259,2.31707310677,0.0609756112099,1.0,0.0,0.0,0.0,1.0,0.0,0.0,0.0,1.0,-0.3064578125,-0.636857641602,10.2328178955,1.0,0.0,0.0,0.0,1.0,0.0,0.0,0.0,1.0
1464075792253583685,305,1464075792116895770,,8.66853713989,-4.94451093674,142.390365601,0.00166599999648,1.0,0.0,0.0,0.0,1.0,0.0,0.0,0.0,1.0,0.0,2.19512200356,-0.304878056049,1.0,0.0,0.0,0.0,1.0,0.0,0.0,0.0,1.0,-0.277727392578,-0.641646044922,10.2328178955,1.0,0.0,0.0,0.0,1.0,0.0,0.0,0.0,1.0
1464075792253633268,306,1464075792137955974,,8.60316467285,-4.93273544312,142.393737793,0.00190000003204,1.0,0.0,0.0,0.0,1.0,0.0,0.0,0.0,1.0,-0.0609756112099,2.31707310677,-0.0609756112099,1.0,0.0,0.0,0.0,1.0,0.0,0.0,0.0,1.0,-0.148440512063,-0.560243188477,10.2328178955,1.0,0.0,0.0,0.0,1.0,0.0,0.0,0.0,1.0
1464075792253669935,307,1464075792160789715,,8.54037475586,-4.91537380219,142.406997681,0.00206300010905,1.0,0.0,0.0,0.0,1.0,0.0,0.0,0.0,1.0,-0.426829278469,1.40243899822,0.426829278469,1.0,0.0,0.0,0.0,1.0,0.0,0.0,0.0,1.0,-0.186747729492,-0.493205541992,10.1418382324,1.0,0.0,0.0,0.0,1.0,0.0,0.0,0.0,1.0
1464075792254831286,308,1464075792182331272,,8.4609336853,-4.9130897522,142.410797119,0.00287299999036,1.0,0.0,0.0,0.0,1.0,0.0,0.0,0.0,1.0,-0.304878056049,1.09756100178,0.0,1.0,0.0,0.0,0.0,1.0,0.0,0.0,0.0,1.0,-0.196324536133,-0.517147558594,10.3381627686,1.0,0.0,0.0,0.0,1.0,0.0,0.0,0.0,1.0
1464075792254901494,309,1464075792202361322,,8.37357521057,-4.90722703934,142.410858154,0.00237399991602,1.0,0.0,0.0,0.0,1.0,0.0,0.0,0.0,1.0,-0.487804889679,1.40243899822,0.243902444839,1.0,0.0,0.0,0.0,1.0,0.0,0.0,0.0,1.0,-0.167594116211,-0.545877978516,10.4291424316,1.0,0.0,0.0,0.0,1.0,0.0,0.0,0.0,1.0
1464075792254942119,310,1464075792225448604,,8.28378582001,-4.89498090744,142.419158936,0.00466899992898,1.0,0.0,0.0,0.0,1.0,0.0,0.0,0.0,1.0,-0.487804889679,1.58536589146,0.365853667259,1.0,0.0,0.0,0.0,1.0,0.0,0.0,0.0,1.0,-0.0478840332031,-0.622492431641,10.2902787354,1.0,0.0,0.0,0.0,1.0,0.0,0.0,0.0,1.0
1464075792254979358,311,1464075792246594173,,8.21090221405,-4.88559579849,142.422058105,0.00240599992685,1.0,0.0,0.0,0.0,1.0,0.0,0.0,0.0,1.0,-0.426829278469,1.64634156227,0.0609756112099,1.0,0.0,0.0,0.0,1.0,0.0,0.0,0.0,1.0,-0.110133276367,-0.809240161133,10.3477395752,1.0,0.0,0.0,0.0,1.0,0.0,0.0,0.0,1.0
1464075792455744080,312,1464075792269001248,,8.13197803497,-4.88298845291,142.421539307,0.00173999997787,1.0,0.0,0.0,0.0,1.0,0.0,0.0,0.0,1.0,-0.304878056049,2.07317066193,0.426829278469,1.0,0.0,0.0,0.0,1.0,0.0,0.0,0.0,1.0,-0.205901342773,-0.809240161133,10.2471831055,1.0,0.0,0.0,0.0,1.0,0.0,0.0,0.0,1.0
1464075792456004184,313,1464075792291669520,,8.0695104599,-4.87422895432,142.427642822,0.00229500001296,1.0,0.0,0.0,0.0,1.0,0.0,0.0,0.0,1.0,-0.243902444839,2.37804889679,1.03658533096,1.0,0.0,0.0,0.0,1.0,0.0,0.0,0.0,1.0,-0.215478149414,-0.708683691406,10.3237975586,1.0,0.0,0.0,0.0,1.0,0.0,0.0,0.0,1.0
1464075792456222569,314,1464075792312097434,,8.02420806885,-4.86685371399,142.441879272,0.0027429999318,1.0,0.0,0.0,0.0,1.0,0.0,0.0,0.0,1.0,-0.487804889679,3.17073178291,1.40243899822,1.0,0.0,0.0,0.0,1.0,0.0,0.0,0.0,1.0,-0.272938989258,-0.665588061523,10.314220752,1.0,0.0,0.0,0.0,1.0,0.0,0.0,0.0,1.0
1464075792456278194,315,1464075792333910345,,7.98246431351,-4.86463499069,142.446029663,0.00372899998911,1.0,0.0,0.0,0.0,1.0,0.0,0.0,0.0,1.0,-0.243902444839,2.31707310677,0.243902444839,1.0,0.0,0.0,0.0,1.0,0.0,0.0,0.0,1.0,-0.129286889648,-0.703895288086,10.2711251221,1.0,0.0,0.0,0.0,1.0,0.0,0.0,0.0,1.0
1464075792456339183,316,1464075792356393097,,7.92618227005,-4.8615489006,142.446273804,0.00216099992394,1.0,0.0,0.0,0.0,1.0,0.0,0.0,0.0,1.0,-0.18292683363,3.17073178291,0.0,1.0,0.0,0.0,0.0,1.0,0.0,0.0,0.0,1.0,-0.076614453125,-0.670376464844,10.2807019287,1.0,0.0,0.0,0.0,1.0,0.0,0.0,0.0,1.0
1464075792456389808,317,1464075792376138773,,7.89719772339,-4.8542842865,142.450515747,0.00153999996837,1.0,0.0,0.0,0.0,1.0,0.0,0.0,0.0,1.0,-0.243902444839,2.68292689323,-0.18292683363,1.0,0.0,0.0,0.0,1.0,0.0,0.0,0.0,1.0,-0.215478149414,-0.694318481445,10.1897222656,1.0,0.0,0.0,0.0,1.0,0.0,0.0,0.0,1.0
1464075792456429183,318,1464075792398227360,,7.85289669037,-4.84349012375,142.45072937,0.00151600001846,1.0,0.0,0.0,0.0,1.0,0.0,0.0,0.0,1.0,-0.609756112099,2.80487799644,-0.12195122242,1.0,0.0,0.0,0.0,1.0,0.0,0.0,0.0,1.0,-0.287304199219,-0.488417138672,10.0939541992,1.0,0.0,0.0,0.0,1.0,0.0,0.0,0.0,1.0
1464075792456478558,319,1464075792424638435,,7.80236577988,-4.84270763397,142.453033447,0.00452399998903,1.0,0.0,0.0,0.0,1.0,0.0,0.0,0.0,1.0,-0.487804889679,2.56097555161,0.365853667259,1.0,0.0,0.0,0.0,1.0,0.0,0.0,0.0,1.0,-0.114921679688,-0.632069238281,10.2471831055,1.0,0.0,0.0,0.0,1.0,0.0,0.0,0.0,1.0
1464075792537913652,320,1464075792446401137,,7.77166509628,-4.83964490891,142.456741333,0.00639900006354,1.0,0.0,0.0,0.0,1.0,0.0,0.0,0.0,1.0,-0.792682945728,2.43902444839,0.304878056049,1.0,0.0,0.0,0.0,1.0,0.0,0.0,0.0,1.0,-0.201112939453,-0.756567724609,10.3285859619,1.0,0.0,0.0,0.0,1.0,0.0,0.0,0.0,1.0
1464075792538045318,321,1464075792470048365,,7.73423051834,-4.83515453339,142.461181641,0.00392099982128,1.0,0.0,0.0,0.0,1.0,0.0,0.0,0.0,1.0,-0.731707334518,2.31707310677,0.18292683363,1.0,0.0,0.0,0.0,1.0,0.0,0.0,0.0,1.0,-0.387860668945,-0.780509741211,10.3190091553,1.0,0.0,0.0,0.0,1.0,0.0,0.0,0.0,1.0
1464075792538093703,322,1464075792491945233,,7.687687397,-4.83071088791,142.455184937,0.00488399993628,1.0,0.0,0.0,0.0,1.0,0.0,0.0,0.0,1.0,-0.487804889679,0.975609779358,0.18292683363,1.0,0.0,0.0,0.0,1.0,0.0,0.0,0.0,1.0,-0.383072265625,-0.703895288086,10.5727945312,1.0,0.0,0.0,0.0,1.0,0.0,0.0,0.0,1.0
1464075792558499378,323,1464075792515986836,,7.61626148224,-4.82036972046,142.462554932,0.00560399983078,1.0,0.0,0.0,0.0,1.0,0.0,0.0,0.0,1.0,-0.487804889679,1.70731711388,0.18292683363,1.0,0.0,0.0,0.0,1.0,0.0,0.0,0.0,1.0,-0.15801730957,-0.636857641602,10.0891657959,1.0,0.0,0.0,0.0,1.0,0.0,0.0,0.0,1.0
1464075792558549846,324,1464075792538949899,,7.5383605957,-4.82679271698,142.466674805,0.00213899998926,1.0,0.0,0.0,0.0,1.0,0.0,0.0,0.0,1.0,-0.670731723309,-0.12195122242,-0.12195122242,1.0,0.0,0.0,0.0,1.0,0.0,0.0,0.0,1.0,-0.124498486328,-0.703895288086,10.3860468018,1.0,0.0,0.0,0.0,1.0,0.0,0.0,0.0,1.0
1464075792590075804,325,1464075792560939423,,7.43663978577,-4.83560848236,142.461578369,0.00152100005653,1.0,0.0,0.0,0.0,1.0,0.0,0.0,0.0,1.0,-0.426829278469,0.853658556938,0.12195122242,1.0,0.0,0.0,0.0,1.0,0.0,0.0,0.0,1.0,-0.0814028564453,-0.61770402832,10.3716815918,1.0,0.0,0.0,0.0,1.0,0.0,0.0,0.0,1.0
1464075792590121116,326,1464075792582463793,,7.36800384521,-4.8293170929,142.46975708,0.00282200006768,1.0,0.0,0.0,0.0,1.0,0.0,0.0,0.0,1.0,-0.365853667259,2.13414645195,0.548780500889,1.0,0.0,0.0,0.0,1.0,0.0,0.0,0.0,1.0,-0.114921679688,-0.679953271484,10.2136642822,1.0,0.0,0.0,0.0,1.0,0.0,0.0,0.0,1.0
1464075792642487017,327,1464075792604896076,,7.31479263306,-4.81349658966,142.472122192,0.00219499995001,1.0,0.0,0.0,0.0,1.0,0.0,0.0,0.0,1.0,-0.487804889679,1.09756100178,-0.0609756112099,1.0,0.0,0.0,0.0,1.0,0.0,0.0,0.0,1.0,-0.0143652099609,-0.478840332031,10.2471831055,1.0,0.0,0.0,0.0,1.0,0.0,0.0,0.0,1.0
1464075792642561913,328,1464075792626207738,,7.24985265732,-4.80269193649,142.47227478,0.00224600010552,1.0,0.0,0.0,0.0,1.0,0.0,0.0,0.0,1.0,-0.304878056049,1.58536589146,0.365853667259,1.0,0.0,0.0,0.0,1.0,0.0,0.0,0.0,1.0,-0.167594116211,-0.622492431641,10.3477395752,1.0,0.0,0.0,0.0,1.0,0.0,0.0,0.0,1.0
1464075792655846773,329,1464075792650527777,,7.20198965073,-4.78977870941,142.491577148,0.00727599998936,1.0,0.0,0.0,0.0,1.0,0.0,0.0,0.0,1.0,-0.609756112099,2.74390244484,1.8902438879,1.0,0.0,0.0,0.0,1.0,0.0,0.0,0.0,1.0,-0.138863696289,-0.541089611728,10.3381627686,1.0,0.0,0.0,0.0,1.0,0.0,0.0,0.0,1.0
1464075792679060982,330,1464075792670660744,,7.18761587143,-4.77818727493,142.500747681,0.00259399996139,1.0,0.0,0.0,0.0,1.0,0.0,0.0,0.0,1.0,-0.426829278469,3.84146332741,0.426829278469,1.0,0.0,0.0,0.0,1.0,0.0,0.0,0.0,1.0,-0.430956298828,-0.627280834961,10.1897222656,1.0,0.0,0.0,0.0,1.0,0.0,0.0,0.0,1.0
1464075792697131610,331,1464075792692797924,,7.16639900208,-4.78180503845,142.493499756,0.00273799989372,1.0,0.0,0.0,0.0,1.0,0.0,0.0,0.0,1.0,-0.853658556938,3.41463422775,-0.304878056049,1.0,0.0,0.0,0.0,1.0,0.0,0.0,0.0,1.0,-0.0909796630859,-0.699106884766,10.2328178955,1.0,0.0,0.0,0.0,1.0,0.0,0.0,0.0,1.0
1464075792721966023,332,1464075792713945940,,7.16745662689,-4.7864408493,142.483856201,0.00163499999326,1.0,0.0,0.0,0.0,1.0,0.0,0.0,0.0,1.0,-0.548780500889,3.53658556938,0.0609756112099,1.0,0.0,0.0,0.0,1.0,0.0,0.0,0.0,1.0,-0.124498486328,-0.713472094727,10.2280294922,1.0,0.0,0.0,0.0,1.0,0.0,0.0,0.0,1.0
1464075792737843949,333,1464075792735120727,,7.16337108612,-4.77969884872,142.479629517,0.00156500004232,1.0,0.0,0.0,0.0,1.0,0.0,0.0,0.0,1.0,-0.12195122242,3.10975623131,-0.548780500889,1.0,0.0,0.0,0.0,1.0,0.0,0.0,0.0,1.0,-0.263362164351,-0.531512805087,10.2328178955,1.0,0.0,0.0,0.0,1.0,0.0,0.0,0.0,1.0
1464075792760738940,334,1464075792756709680,,7.14205312729,-4.77745580673,142.474319458,0.00156600004993,1.0,0.0,0.0,0.0,1.0,0.0,0.0,0.0,1.0,-0.670731723309,2.43902444839,-0.731707334518,1.0,0.0,0.0,0.0,1.0,0.0,0.0,0.0,1.0,-0.119710083008,-0.708683691406,10.1609918457,1.0,0.0,0.0,0.0,1.0,0.0,0.0,0.0,1.0
1464075792782910755,335,1464075792780025242,,7.11383247375,-4.78393602371,142.474838257,0.00181499996688,1.0,0.0,0.0,0.0,1.0,0.0,0.0,0.0,1.0,-0.670731723309,2.19512200356,0.365853667259,1.0,0.0,0.0,0.0,1.0,0.0,0.0,0.0,1.0,-0.234631762695,-0.718260498047,10.299855542,1.0,0.0,0.0,0.0,1.0,0.0,0.0,0.0,1.0
1464075792806363557,336,1464075792800769197,,7.08245563507,-4.7825512886,142.470474243,0.00265699997544,1.0,0.0,0.0,0.0,1.0,0.0,0.0,0.0,1.0,-0.731707334518,2.13414645195,-0.243902444839,1.0,0.0,0.0,0.0,1.0,0.0,0.0,0.0,1.0,-0.186747729492,-0.588973571866,10.2902787354,1.0,0.0,0.0,0.0,1.0,0.0,0.0,0.0,1.0
1464075792831592864,337,1464075792821775964,,7.05291032791,-4.77491140366,142.468399048,0.00310499989428,1.0,0.0,0.0,0.0,1.0,0.0,0.0,0.0,1.0,-0.548780500889,2.5,0.365853667259,1.0,0.0,0.0,0.0,1.0,0.0,0.0,0.0,1.0,-0.225054956055,-0.684741674805,10.3190091553,1.0,0.0,0.0,0.0,1.0,0.0,0.0,0.0,1.0
1464075792851942601,338,1464075792844130591,,7.04051876068,-4.76295852661,142.470199585,0.00192599999718,1.0,0.0,0.0,0.0,1.0,0.0,0.0,0.0,1.0,-0.365853667259,1.64634156227,0.731707334518,1.0,0.0,0.0,0.0,1.0,0.0,0.0,0.0,1.0,-0.287304199219,-0.612915625,10.3190091553,1.0,0.0,0.0,0.0,1.0,0.0,0.0,0.0,1.0
1464075792887829068,339,1464075792865142254,,7.00159645081,-4.75788259506,142.468292236,0.0015190000413,1.0,0.0,0.0,0.0,1.0,0.0,0.0,0.0,1.0,-0.487804889679,0.975609779358,0.0,1.0,0.0,0.0,0.0,1.0,0.0,0.0,0.0,1.0,-0.220266552734,-0.694318481445,10.3477395752,1.0,0.0,0.0,0.0,1.0,0.0,0.0,0.0,1.0
1464075792887889536,340,1464075792884830638,,6.95180702209,-4.75720071793,142.47038269,0.00149799999781,1.0,0.0,0.0,0.0,1.0,0.0,0.0,0.0,1.0,-0.548780500889,1.03658533096,0.609756112099,1.0,0.0,0.0,0.0,1.0,0.0,0.0,0.0,1.0,-0.105344873047,-0.670376464844,10.405200415,1.0,0.0,0.0,0.0,1.0,0.0,0.0,0.0,1.0
1464075792933698788,341,1464075792906371987,,6.9054517746,-4.76236200333,142.474212646,0.00120900000911,1.0,0.0,0.0,0.0,1.0,0.0,0.0,0.0,1.0,-0.365853667259,1.46341466904,0.18292683363,1.0,0.0,0.0,0.0,1.0,0.0,0.0,0.0,1.0,-0.248996972656,-0.909796630859,10.1992990723,1.0,0.0,0.0,0.0,1.0,0.0,0.0,0.0,1.0
1464075792933984256,342,1464075792927806877,,6.85210990906,-4.76339435577,142.471191406,0.00191600003745,1.0,0.0,0.0,0.0,1.0,0.0,0.0,0.0,1.0,-0.243902444839,2.37804889679,0.18292683363,1.0,0.0,0.0,0.0,1.0,0.0,0.0,0.0,1.0,-0.210689746094,-0.703895288086,10.1274730225,1.0,0.0,0.0,0.0,1.0,0.0,0.0,0.0,1.0
1464075792953583162,343,1464075792948192500,,6.81767320633,-4.75171661377,142.470809937,0.00138000003062,1.0,0.0,0.0,0.0,1.0,0.0,0.0,0.0,1.0,-0.12195122242,3.90243911743,0.426829278469,1.0,0.0,0.0,0.0,1.0,0.0,0.0,0.0,1.0,-0.076614453125,-0.684741674805,10.1562034424,1.0,0.0,0.0,0.0,1.0,0.0,0.0,0.0,1.0
1464075792975101125,344,1464075792970378951,,6.81271123886,-4.72629261017,142.464752197,0.00212500011548,1.0,0.0,0.0,0.0,1.0,0.0,0.0,0.0,1.0,0.487804889679,5.85365867615,-0.487804889679,1.0,0.0,0.0,0.0,1.0,0.0,0.0,0.0,1.0,-0.703895288086,-0.651222851562,9.83538041992,1.0,0.0,0.0,0.0,1.0,0.0,0.0,0.0,1.0
1464075792996443204,345,1464075792991890768,,6.82779598236,-4.6935839653,142.442733765,0.00163399998564,1.0,0.0,0.0,0.0,1.0,0.0,0.0,0.0,1.0,1.2195122242,5.42682933807,-0.18292683363,1.0,0.0,0.0,0.0,1.0,0.0,0.0,0.0,1.0,0.110133276367,-0.76614453125,10.5296989014,1.0,0.0,0.0,0.0,1.0,0.0,0.0,0.0,1.0
1464075793053139822,346,1464075793014119250,,6.86173343658,-4.66801166534,142.416305542,0.00179600005504,1.0,0.0,0.0,0.0,1.0,0.0,0.0,0.0,1.0,-0.365853667259,9.14634132385,-1.03658533096,1.0,0.0,0.0,0.0,1.0,0.0,0.0,0.0,1.0,-0.0957680664062,-0.330399829102,10.5823713379,1.0,0.0,0.0,0.0,1.0,0.0,0.0,0.0,1.0
1464075793053204510,347,1464075793036314711,,6.98003530502,-4.65189552307,142.391876221,0.00172199995723,1.0,0.0,0.0,0.0,1.0,0.0,0.0,0.0,1.0,-1.15853655338,9.20731735229,-1.34146344662,1.0,0.0,0.0,0.0,1.0,0.0,0.0,0.0,1.0,0.114921679688,-0.627280834961,10.3621047852,1.0,0.0,0.0,0.0,1.0,0.0,0.0,0.0,1.0
1464075793073466539,348,1464075793058268611,,7.1125292778,-4.65828132629,142.367980957,0.0016530000139,1.0,0.0,0.0,0.0,1.0,0.0,0.0,0.0,1.0,-2.19512200356,11.2195119858,-0.365853667259,1.0,0.0,0.0,0.0,1.0,0.0,0.0,0.0,1.0,-0.368707055664,-0.359130249023,10.046070166,1.0,0.0,0.0,0.0,1.0,0.0,0.0,0.0,1.0
1464075793103080991,349,1464075793078439546,,7.27862691879,-4.69364929199,142.347961426,0.00152000004891,1.0,0.0,0.0,0.0,1.0,0.0,0.0,0.0,1.0,-1.03658533096,12.6219520569,-0.487804889679,1.0,0.0,0.0,0.0,1.0,0.0,0.0,0.0,1.0,-0.565031591797,-0.694318481445,10.0652237793,1.0,0.0,0.0,0.0,1.0,0.0,0.0,0.0,1.0
1464075793121055942,350,1464075793100810684,,7.45918416977,-4.74637794495,142.323699951,0.00196100003086,1.0,0.0,0.0,0.0,1.0,0.0,0.0,0.0,1.0,-1.70731711388,10.0609760284,-0.548780500889,1.0,0.0,0.0,0.0,1.0,0.0,0.0,0.0,1.0,-0.646434448242,-0.92416184082,10.6302553711,1.0,0.0,0.0,0.0,1.0,0.0,0.0,0.0,1.0
1464075793164151139,351,1464075793122487918,,7.651034832,-4.80685806274,142.279953003,0.00274799996987,1.0,0.0,0.0,0.0,1.0,0.0,0.0,0.0,1.0,-2.25609779358,8.35365867615,-1.2195122242,1.0,0.0,0.0,0.0,1.0,0.0,0.0,0.0,1.0,-1.33117612305,-0.895431420898,9.95987890625,1.0,0.0,0.0,0.0,1.0,0.0,0.0,0.0,1.0
1464075793164631034,352,1464075793144501973,,7.76766347885,-4.87472963333,142.240493774,0.00167499994859,1.0,0.0,0.0,0.0,1.0,0.0,0.0,0.0,1.0,-2.56097555161,0.670731723309,-0.914634168148,1.0,0.0,0.0,0.0,1.0,0.0,0.0,0.0,1.0,-1.38384855957,-0.885854614258,10.2423947021,1.0,0.0,0.0,0.0,1.0,0.0,0.0,0.0,1.0
1464075793235282251,353,1464075793165154470,,7.75326395035,-4.92259502411,142.254547119,0.00172099994961,1.0,0.0,0.0,0.0,1.0,0.0,0.0,0.0,1.0,-2.19512200356,-1.95121955872,1.8292683363,1.0,0.0,0.0,0.0,1.0,0.0,0.0,0.0,1.0,-1.04866025408,-0.885854614258,10.0508585693,1.0,0.0,0.0,0.0,1.0,0.0,0.0,0.0,1.0
1464075793235855114,354,1464075793186976130,,7.66133165359,-4.95592927933,142.296722412,0.00173100002576,1.0,0.0,0.0,0.0,1.0,0.0,0.0,0.0,1.0,-2.86585378647,-4.20731735229,1.76829278469,1.0,0.0,0.0,0.0,1.0,0.0,0.0,0.0,1.0,-0.991199487305,-0.751779321289,9.95987890625,1.0,0.0,0.0,0.0,1.0,0.0,0.0,0.0,1.0
1464075793237539068,355,1464075793215511002,,7.47887563705,-4.99342012405,142.359069824,0.00178199994843,1.0,0.0,0.0,0.0,1.0,0.0,0.0,0.0,1.0,-5.60975599289,-5.30487823486,1.76829278469,1.0,0.0,0.0,0.0,1.0,0.0,0.0,0.0,1.0,-0.593762048251,-0.675164868164,10.0891657959,1.0,0.0,0.0,0.0,1.0,0.0,0.0,0.0,1.0
1464075793237951879,356,1464075793229263308,,7.29335451126,-5.0763759613,142.408676147,0.00190699996892,1.0,0.0,0.0,0.0,1.0,0.0,0.0,0.0,1.0,-6.46341466904,-5.24390268326,2.07317066193,1.0,0.0,0.0,0.0,1.0,0.0,0.0,0.0,1.0,-0.440533105469,-0.861912597656,10.5584293213,1.0,0.0,0.0,0.0,1.0,0.0,0.0,0.0,1.0
1464075793286055031,357,1464075793250451168,,7.05732727051,-5.26192188263,142.462799072,0.0019490000559,1.0,0.0,0.0,0.0,1.0,0.0,0.0,0.0,1.0,-11.341463089,-7.31707334518,2.25609779358,1.0,0.0,0.0,0.0,1.0,0.0,0.0,0.0,1.0,-0.46447512207,-0.823605371094,10.3429511719,1.0,0.0,0.0,0.0,1.0,0.0,0.0,0.0,1.0
1464075793286499665,358,1464075793272993556,,6.81655883789,-5.50380277634,142.515441895,0.00236600008793,1.0,0.0,0.0,0.0,1.0,0.0,0.0,0.0,1.0,-9.69512176514,-7.13414621353,1.46341466904,1.0,0.0,0.0,0.0,1.0,0.0,0.0,0.0,1.0,-0.129286889648,-0.588973571866,10.0700121826,1.0,0.0,0.0,0.0,1.0,0.0,0.0,0.0,1.0
1464075793310525591,359,1464075793294784799,,6.67165708542,-5.7081823349,142.572402954,0.00225699995644,1.0,0.0,0.0,0.0,1.0,0.0,0.0,0.0,1.0,-8.10975551605,-8.5365858078,2.68292689323,1.0,0.0,0.0,0.0,1.0,0.0,0.0,0.0,1.0,-1.64721074219,-1.04387185076,10.2471831055,1.0,0.0,0.0,0.0,1.0,0.0,0.0,0.0,1.0
1464075793327864815,360,1464075793315564119,,6.51174926758,-5.86966276169,142.703292847,0.00158899999224,1.0,0.0,0.0,0.0,1.0,0.0,0.0,0.0,1.0,-8.5365858078,-5.24390268326,4.57317066193,1.0,0.0,0.0,0.0,1.0,0.0,0.0,0.0,1.0,-1.19710090314,-2.35589428746,10.2711251221,1.0,0.0,0.0,0.0,1.0,0.0,0.0,0.0,1.0
1464075793342403526,361,1464075793338067808,,6.32614850998,-5.92681026459,142.88609314,0.00144400005229,1.0,0.0,0.0,0.0,1.0,0.0,0.0,0.0,1.0,-2.25609779358,-5.54878091812,10.7926826477,1.0,0.0,0.0,0.0,1.0,0.0,0.0,0.0,1.0,0.0,-1.10612116699,10.3285859619,1.0,0.0,0.0,0.0,1.0,0.0,0.0,0.0,1.0
1464075793366931116,362,1464075793357836453,,6.19952058792,-5.94804811478,143.137664795,0.00159300002269,1.0,0.0,0.0,0.0,1.0,0.0,0.0,0.0,1.0,-1.8292683363,-3.90243911743,12.0731716156,1.0,0.0,0.0,0.0,1.0,0.0,0.0,0.0,1.0,-0.225054956055,-1.0534486574,10.0125513428,1.0,0.0,0.0,0.0,1.0,0.0,0.0,0.0,1.0
1464075793418549103,363,1464075793378554575,,6.07156085968,-5.96582651138,143.389373779,0.00291500007734,1.0,0.0,0.0,0.0,1.0,0.0,0.0,0.0,1.0,-2.31707310677,-5.67073154449,10.548781395,1.0,0.0,0.0,0.0,1.0,0.0,0.0,0.0,1.0,-0.272938989258,-1.03908344744,10.1035310059,1.0,0.0,0.0,0.0,1.0,0.0,0.0,0.0,1.0
1464075793419114570,364,1464075793400160819,,5.8903298378,-5.95853900909,143.619628906,0.00161899998784,1.0,0.0,0.0,0.0,1.0,0.0,0.0,0.0,1.0,-1.64634156227,-3.71951246262,10.7926826477,1.0,0.0,0.0,0.0,1.0,0.0,0.0,0.0,1.0,-0.00957680664062,-0.9193734375,10.2232410889,1.0,0.0,0.0,0.0,1.0,0.0,0.0,0.0,1.0
1464075793441368104,365,1464075793421662688,,5.73865222931,-5.96230459213,143.864105225,0.00238399999216,1.0,0.0,0.0,0.0,1.0,0.0,0.0,0.0,1.0,-2.25609779358,-4.75609779358,10.0,1.0,0.0,0.0,0.0,1.0,0.0,0.0,0.0,1.0,0.258573779297,-0.550666381836,9.99339772949,1.0,0.0,0.0,0.0,1.0,0.0,0.0,0.0,1.0
1464075793453700988,366,1464075793442597841,,5.57016134262,-5.97770261765,144.05796814,0.00245400005952,1.0,0.0,0.0,0.0,1.0,0.0,0.0,0.0,1.0,-3.53658556938,-4.2682929039,7.01219511032,1.0,0.0,0.0,0.0,1.0,0.0,0.0,0.0,1.0,0.172382519531,-0.814028564453,10.4578728516,1.0,0.0,0.0,0.0,1.0,0.0,0.0,0.0,1.0
1464075793470150892,367,1464075793463580389,,5.3997631073,-6.00769138336,144.222900391,0.00154099997599,1.0,0.0,0.0,0.0,1.0,0.0,0.0,0.0,1.0,-2.92682933807,-3.17073178291,8.5365858078,1.0,0.0,0.0,0.0,1.0,0.0,0.0,0.0,1.0,0.517147558594,-0.881066210937,9.89284125977,1.0,0.0,0.0,0.0,1.0,0.0,0.0,0.0,1.0
1464075793487718813,368,1464075793484394395,,5.26178026199,-6.07256650925,144.375244141,0.00214400002733,1.0,0.0,0.0,0.0,1.0,0.0,0.0,0.0,1.0,-3.96341490746,-2.62195134163,6.46341466904,1.0,0.0,0.0,0.0,1.0,0.0,0.0,0.0,1.0,0.45489831543,-1.01992990723,10.2807019287,1.0,0.0,0.0,0.0,1.0,0.0,0.0,0.0,1.0
1464075793513183745,369,1464075793506816418,,5.11766529083,-6.13112640381,144.483062744,0.00198399997316,1.0,0.0,0.0,0.0,1.0,0.0,0.0,0.0,1.0,-3.23170733452,-0.914634168148,3.53658556938,1.0,0.0,0.0,0.0,1.0,0.0,0.0,0.0,1.0,0.397437475586,-0.948103857422,10.3668931885,1.0,0.0,0.0,0.0,1.0,0.0,0.0,0.0,1.0
1464075793532995879,370,1464075793528755630,,4.99750995636,-6.17627334595,144.541412354,0.00196800008416,1.0,0.0,0.0,0.0,1.0,0.0,0.0,0.0,1.0,-3.04878044128,-0.853658556938,2.19512200356,1.0,0.0,0.0,0.0,1.0,0.0,0.0,0.0,1.0,0.272938989258,-0.823605371094,10.0700121826,1.0,0.0,0.0,0.0,1.0,0.0,0.0,0.0,1.0
1464075793557689355,371,1464075793554026813,,4.88450241089,-6.22955799103,144.562728882,0.00530599988997,1.0,0.0,0.0,0.0,1.0,0.0,0.0,0.0,1.0,-2.43902444839,0.914634168148,0.0609756112099,1.0,0.0,0.0,0.0,1.0,0.0,0.0,0.0,1.0,0.421379492187,-0.900219824219,10.1897222656,1.0,0.0,0.0,0.0,1.0,0.0,0.0,0.0,1.0
1464075793577640343,372,1464075793574268269,,4.83269166946,-6.27203178406,144.54498291,0.0020600000862,1.0,0.0,0.0,0.0,1.0,0.0,0.0,0.0,1.0,-3.17073178291,1.76829278469,-1.03658533096,1.0,0.0,0.0,0.0,1.0,0.0,0.0,0.0,1.0,0.167594116211,-0.814028564453,10.3285859619,1.0,0.0,0.0,0.0,1.0,0.0,0.0,0.0,1.0
1464075793602337569,373,1464075793594248007,,4.80364370346,-6.32387161255,144.514709473,0.00136300001759,1.0,0.0,0.0,0.0,1.0,0.0,0.0,0.0,1.0,-3.53658556938,1.15853655338,-1.8292683363,1.0,0.0,0.0,0.0,1.0,0.0,0.0,0.0,1.0,0.114921679688,-0.814028564453,10.3046439453,1.0,0.0,0.0,0.0,1.0,0.0,0.0,0.0,1.0
1464075793626289588,374,1464075793615784460,,4.71363687515,-6.37950181961,144.436676025,0.00175799999852,1.0,0.0,0.0,0.0,1.0,0.0,0.0,0.0,1.0,-3.47560977936,-0.914634168148,-4.93902444839,1.0,0.0,0.0,0.0,1.0,0.0,0.0,0.0,1.0,0.177170922852,-0.775721337891,10.1705686523,1.0,0.0,0.0,0.0,1.0,0.0,0.0,0.0,1.0
1464075793645255995,375,1464075793637317318,,4.54695129395,-6.42521619797,144.30178833,0.002223999938,1.0,0.0,0.0,0.0,1.0,0.0,0.0,0.0,1.0,0.365853667259,-3.90243911743,-7.74390268326,1.0,0.0,0.0,0.0,1.0,0.0,0.0,0.0,1.0,0.263362164351,-0.900219824219,10.0748005859,1.0,0.0,0.0,0.0,1.0,0.0,0.0,0.0,1.0
1464075793689410095,376,1464075793664633183,,4.25053262711,-6.36006259918,144.019577026,0.00975400023162,1.0,0.0,0.0,0.0,1.0,0.0,0.0,0.0,1.0,3.10975623131,-5.42682933807,-12.1951217651,1.0,0.0,0.0,0.0,1.0,0.0,0.0,0.0,1.0,0.402225878906,-0.909796630859,10.3716815918,1.0,0.0,0.0,0.0,1.0,0.0,0.0,0.0,1.0
1464075793727068484,377,1464075793686213646,,4.0110616684,-6.27243232727,143.748687744,0.0018309999723,1.0,0.0,0.0,0.0,1.0,0.0,0.0,0.0,1.0,5.12195110321,-4.69512224197,-13.1707324982,1.0,0.0,0.0,0.0,1.0,0.0,0.0,0.0,1.0,0.292092584273,-0.928950244141,10.1705686523,1.0,0.0,0.0,0.0,1.0,0.0,0.0,0.0,1.0
1464075793727181661,378,1464075793708006504,,3.80986952782,-6.16910743713,143.459091187,0.00193000002764,1.0,0.0,0.0,0.0,1.0,0.0,0.0,0.0,1.0,3.41463422775,-1.46341466904,-14.3902444839,1.0,0.0,0.0,0.0,1.0,0.0,0.0,0.0,1.0,0.483628735352,-0.861912597656,10.3860468018,1.0,0.0,0.0,0.0,1.0,0.0,0.0,0.0,1.0
1464075793746445411,379,1464075793732873573,,3.66984343529,-6.12281894684,143.118026733,0.0031659998931,1.0,0.0,0.0,0.0,1.0,0.0,0.0,0.0,1.0,4.08536577225,1.15853655338,-13.5975618362,1.0,0.0,0.0,0.0,1.0,0.0,0.0,0.0,1.0,0.430956298828,-1.0534486574,10.4243540283,1.0,0.0,0.0,0.0,1.0,0.0,0.0,0.0,1.0
1464075793765456142,380,1464075793752095032,,3.59584283829,-6.030148983,142.845901489,0.00224600010552,1.0,0.0,0.0,0.0,1.0,0.0,0.0,0.0,1.0,4.87804889679,2.13414645195,-11.8292684555,1.0,0.0,0.0,0.0,1.0,0.0,0.0,0.0,1.0,0.421379492187,-0.794874951172,10.2615483154,1.0,0.0,0.0,0.0,1.0,0.0,0.0,0.0,1.0
1464075793801945627,381,1464075793773548880,,3.55994415283,-5.93628644943,142.614730835,0.00150300003588,1.0,0.0,0.0,0.0,1.0,0.0,0.0,0.0,1.0,3.65853667259,1.52439022064,-10.1219511032,1.0,0.0,0.0,0.0,1.0,0.0,0.0,0.0,1.0,0.067037651051,-0.823605371094,10.2280294922,1.0,0.0,0.0,0.0,1.0,0.0,0.0,0.0,1.0
1464075793802009794,382,1464075793794217262,,3.5017991066,-5.85808324814,142.419937134,0.00512900017202,1.0,0.0,0.0,0.0,1.0,0.0,0.0,0.0,1.0,4.14634132385,-0.243902444839,-8.78048801422,1.0,0.0,0.0,0.0,1.0,0.0,0.0,0.0,1.0,0.229843359375,-0.833182177734,10.3812583984,1.0,0.0,0.0,0.0,1.0,0.0,0.0,0.0,1.0
1464075793837088710,383,1464075793815673090,,3.48941278458,-5.78432655334,142.17729187,0.00433199992403,1.0,0.0,0.0,0.0,1.0,0.0,0.0,0.0,1.0,3.35365867615,0.609756112099,-11.341463089,1.0,0.0,0.0,0.0,1.0,0.0,0.0,0.0,1.0,-0.0814028564453,-0.991199487305,9.96945571289,1.0,0.0,0.0,0.0,1.0,0.0,0.0,0.0,1.0
1464075793847917014,384,1464075793838397092,,3.43571519852,-5.7243885994,141.909820557,0.00257800007239,1.0,0.0,0.0,0.0,1.0,0.0,0.0,0.0,1.0,1.58536589146,0.243902444839,-12.3170728683,1.0,0.0,0.0,0.0,1.0,0.0,0.0,0.0,1.0,0.110133276367,-0.689530078125,10.0077629395,1.0,0.0,0.0,0.0,1.0,0.0,0.0,0.0,1.0
1464075793868050762,385,1464075793861556665,,3.37841653824,-5.69411420822,141.60887146,0.00122500001453,1.0,0.0,0.0,0.0,1.0,0.0,0.0,0.0,1.0,0.243902444839,0.0,-13.7804880142,1.0,0.0,0.0,0.0,1.0,0.0,0.0,0.0,1.0,0.402225878906,-0.737414111328,10.165780249,1.0,0.0,0.0,0.0,1.0,0.0,0.0,0.0,1.0
1464075793885198998,386,1464075793880187761,,3.32603764534,-5.7009677887,141.299987793,0.00233100005426,1.0,0.0,0.0,0.0,1.0,0.0,0.0,0.0,1.0,-0.487804889679,0.18292683363,-14.2682924271,1.0,0.0,0.0,0.0,1.0,0.0,0.0,0.0,1.0,0.196324536133,-0.928950244141,10.2088758789,1.0,0.0,0.0,0.0,1.0,0.0,0.0,0.0,1.0
1464075793906160452,387,1464075793902717596,,3.28995084763,-5.72833538055,140.973632812,0.00252000009641,1.0,0.0,0.0,0.0,1.0,0.0,0.0,0.0,1.0,-0.609756112099,1.15853655338,-13.2926826477,1.0,0.0,0.0,0.0,1.0,0.0,0.0,0.0,1.0,0.0574608398438,-0.9193734375,10.1705686523,1.0,0.0,0.0,0.0,1.0,0.0,0.0,0.0,1.0
1464075793929782628,388,1464075793925994565,,3.2825357914,-5.78407430649,140.714355469,0.002431999892,1.0,0.0,0.0,0.0,1.0,0.0,0.0,0.0,1.0,-0.609756112099,3.84146332741,-7.74390268326,1.0,0.0,0.0,0.0,1.0,0.0,0.0,0.0,1.0,0.100556469727,-1.25456166992,10.165780249,1.0,0.0,0.0,0.0,1.0,0.0,0.0,0.0,1.0
1464075793953468815,389,1464075793947069040,,3.33809185028,-5.79887247086,140.57850647,0.00189700000919,1.0,0.0,0.0,0.0,1.0,0.0,0.0,0.0,1.0,0.243902444839,4.69512224197,-3.90243911743,1.0,0.0,0.0,0.0,1.0,0.0,0.0,0.0,1.0,0.0239420166016,-0.876277807617,10.3668931885,1.0,0.0,0.0,0.0,1.0,0.0,0.0,0.0,1.0
1464075793972031942,390,1464075793969318616,,3.39481878281,-5.80237388611,140.498764038,0.00156300002709,1.0,0.0,0.0,0.0,1.0,0.0,0.0,0.0,1.0,-0.670731723309,3.35365867615,-2.68292689323,1.0,0.0,0.0,0.0,1.0,0.0,0.0,0.0,1.0,-0.0239420166016,-0.890643017578,10.1466266357,1.0,0.0,0.0,0.0,1.0,0.0,0.0,0.0,1.0
1464075793993382978,391,1464075793991104964,,3.42449116707,-5.800552845,140.419540405,0.0021420000121,1.0,0.0,0.0,0.0,1.0,0.0,0.0,0.0,1.0,-0.731707334518,1.15853655338,-3.41463422775,1.0,0.0,0.0,0.0,1.0,0.0,0.0,0.0,1.0,0.0191536132812,-0.77093293457,10.1609918457,1.0,0.0,0.0,0.0,1.0,0.0,0.0,0.0,1.0
1464075794019416346,392,1464075794012765531,,3.41154575348,-5.80278778076,140.327911377,0.00307599990629,1.0,0.0,0.0,0.0,1.0,0.0,0.0,0.0,1.0,-0.853658556938,-0.731707334518,-3.96341490746,1.0,0.0,0.0,0.0,1.0,0.0,0.0,0.0,1.0,0.0,-0.818816967773,10.3621047852,1.0,0.0,0.0,0.0,1.0,0.0,0.0,0.0,1.0
1464075794038627284,393,1464075794033950682,,3.35459828377,-5.79747676849,140.24772644,0.00229400000535,1.0,0.0,0.0,0.0,1.0,0.0,0.0,0.0,1.0,-0.365853667259,-1.09756100178,-3.04878044128,1.0,0.0,0.0,0.0,1.0,0.0,0.0,0.0,1.0,0.330399829102,-0.76614453125,10.3333743652,1.0,0.0,0.0,0.0,1.0,0.0,0.0,0.0,1.0
1464075794058623585,394,1464075794054573543,,3.32365226746,-5.79354810715,140.194488525,0.00155299995095,1.0,0.0,0.0,0.0,1.0,0.0,0.0,0.0,1.0,0.548780500889,1.40243899822,-1.46341466904,1.0,0.0,0.0,0.0,1.0,0.0,0.0,0.0,1.0,0.325611425781,-1.02950671387,10.2759135254,1.0,0.0,0.0,0.0,1.0,0.0,0.0,0.0,1.0
1464075794083320550,395,1464075794075806299,,3.35038614273,-5.76276540756,140.152938843,0.00163700000849,1.0,0.0,0.0,0.0,1.0,0.0,0.0,0.0,1.0,2.74390244484,1.58536589146,-1.40243899822,1.0,0.0,0.0,0.0,1.0,0.0,0.0,0.0,1.0,0.0478840332031,-0.9193734375,10.3094323486,1.0,0.0,0.0,0.0,1.0,0.0,0.0,0.0,1.0
1464075794118004675,396,1464075794097796396,,3.36148691177,-5.6965303421,140.122909546,0.00157800002489,1.0,0.0,0.0,0.0,1.0,0.0,0.0,0.0,1.0,2.74390244484,2.07317066193,-1.09756100178,1.0,0.0,0.0,0.0,1.0,0.0,0.0,0.0,1.0,0.067037651051,-0.928950244141,10.2136642822,1.0,0.0,0.0,0.0,1.0,0.0,0.0,0.0,1.0
1464075794164917675,397,1464075794120049878,,3.38414502144,-5.63787841797,140.114654541,0.00135899998713,1.0,0.0,0.0,0.0,1.0,0.0,0.0,0.0,1.0,2.31707310677,1.70731711388,0.609756112099,1.0,0.0,0.0,0.0,1.0,0.0,0.0,0.0,1.0,-0.0239420166016,-0.823605371094,10.1562034424,1.0,0.0,0.0,0.0,1.0,0.0,0.0,0.0,1.0
1464075794164962414,398,1464075794140680031,,3.38112163544,-5.58110809326,140.13885498,0.00234399992041,1.0,0.0,0.0,0.0,1.0,0.0,0.0,0.0,1.0,1.8292683363,1.2195122242,2.01219511032,1.0,0.0,0.0,0.0,1.0,0.0,0.0,0.0,1.0,0.138863696289,-0.794874951172,10.2136642822,1.0,0.0,0.0,0.0,1.0,0.0,0.0,0.0,1.0
1464075794165396944,399,1464075794162521431,,3.38677191734,-5.52846288681,140.196304321,0.00301999994554,1.0,0.0,0.0,0.0,1.0,0.0,0.0,0.0,1.0,1.8292683363,1.34146344662,3.10975623131,1.0,0.0,0.0,0.0,1.0,0.0,0.0,0.0,1.0,-0.0335188255255,-0.833182177734,10.1178962158,1.0,0.0,0.0,0.0,1.0,0.0,0.0,0.0,1.0
1464075794191944060,400,1464075794184136894,,3.38514399529,-5.46790599823,140.270217896,0.00128500000574,1.0,0.0,0.0,0.0,1.0,0.0,0.0,0.0,1.0,2.01219511032,1.70731711388,4.20731735229,1.0,0.0,0.0,0.0,1.0,0.0,0.0,0.0,1.0,0.181959326172,-0.794874951172,10.1753570557,1.0,0.0,0.0,0.0,1.0,0.0,0.0,0.0,1.0
1464075794214231449,401,1464075794204920953,,3.39784002304,-5.40983200073,140.376815796,0.00168500002474,1.0,0.0,0.0,0.0,1.0,0.0,0.0,0.0,1.0,2.01219511032,2.62195134163,5.85365867615,1.0,0.0,0.0,0.0,1.0,0.0,0.0,0.0,1.0,0.205901342773,-0.818816967773,10.2184526855,1.0,0.0,0.0,0.0,1.0,0.0,0.0,0.0,1.0
1464075794239359402,402,1464075794226030167,,3.42386436462,-5.34712028503,140.513244629,0.00149000005331,1.0,0.0,0.0,0.0,1.0,0.0,0.0,0.0,1.0,1.40243899822,2.92682933807,7.50000047684,1.0,0.0,0.0,0.0,1.0,0.0,0.0,0.0,1.0,0.196324536133,-0.708683691406,10.0700121826,1.0,0.0,0.0,0.0,1.0,0.0,0.0,0.0,1.0
1464075794251145620,403,1464075794246241415,,3.45666265488,-5.29099607468,140.667572021,0.00153000000864,1.0,0.0,0.0,0.0,1.0,0.0,0.0,0.0,1.0,0.548780500889,2.98780488968,7.80487823486,1.0,0.0,0.0,0.0,1.0,0.0,0.0,0.0,1.0,0.119710083008,-0.665588061523,10.0939541992,1.0,0.0,0.0,0.0,1.0,0.0,0.0,0.0,1.0
1464075794272780719,404,1464075794268242918,,3.4793279171,-5.26797676086,140.820220947,0.0017419999931,1.0,0.0,0.0,0.0,1.0,0.0,0.0,0.0,1.0,-0.792682945728,2.31707310677,7.07317113876,1.0,0.0,0.0,0.0,1.0,0.0,0.0,0.0,1.0,0.148440512063,-0.699106884766,10.1705686523,1.0,0.0,0.0,0.0,1.0,0.0,0.0,0.0,1.0
1464075794363897766,405,1464075794291151763,,3.47914338112,-5.2675037384,140.966049194,0.00195399997756,1.0,0.0,0.0,0.0,1.0,0.0,0.0,0.0,1.0,-1.52439022064,1.52439022064,6.58536624908,1.0,0.0,0.0,0.0,1.0,0.0,0.0,0.0,1.0,0.258573779297,-0.708683691406,10.1131078125,1.0,0.0,0.0,0.0,1.0,0.0,0.0,0.0,1.0
1464075794364040370,406,1464075794313005403,,3.46587562561,-5.266954422,141.10395813,0.00258000008762,1.0,0.0,0.0,0.0,1.0,0.0,0.0,0.0,1.0,-1.70731711388,1.46341466904,5.97560977936,1.0,0.0,0.0,0.0,1.0,0.0,0.0,0.0,1.0,0.258573779297,-0.670376464844,10.1035310059,1.0,0.0,0.0,0.0,1.0,0.0,0.0,0.0,1.0
1464075794364126307,407,1464075794334642011,,3.45449900627,-5.29507637024,141.222915649,0.00164999999106,1.0,0.0,0.0,0.0,1.0,0.0,0.0,0.0,1.0,-2.19512200356,1.64634156227,5.06097555161,1.0,0.0,0.0,0.0,1.0,0.0,0.0,0.0,1.0,0.167594116211,-0.732625708008,10.1753570557,1.0,0.0,0.0,0.0,1.0,0.0,0.0,0.0,1.0
1464075794364211880,408,1464075794355245862,,3.44073367119,-5.32394742966,141.321014404,0.00138799997512,1.0,0.0,0.0,0.0,1.0,0.0,0.0,0.0,1.0,-2.01219511032,1.70731711388,4.87804889679,1.0,0.0,0.0,0.0,1.0,0.0,0.0,0.0,1.0,0.383072265625,-0.756567724609,10.2232410889,1.0,0.0,0.0,0.0,1.0,0.0,0.0,0.0,1.0
1464075794442158546,409,1464075794376352160,,3.42453074455,-5.34775352478,141.406814575,0.00168900005519,1.0,0.0,0.0,0.0,1.0,0.0,0.0,0.0,1.0,-3.17073178291,2.62195134163,4.08536577225,1.0,0.0,0.0,0.0,1.0,0.0,0.0,0.0,1.0,0.316034619141,-0.780509741211,10.2519715088,1.0,0.0,0.0,0.0,1.0,0.0,0.0,0.0,1.0
1464075794442437972,410,1464075794399781212,,3.42443180084,-5.40964031219,141.478393555,0.00214100000449,1.0,0.0,0.0,0.0,1.0,0.0,0.0,0.0,1.0,-3.90243911743,2.5,2.92682933807,1.0,0.0,0.0,0.0,1.0,0.0,0.0,0.0,1.0,0.296881024126,-0.837970581055,10.3429511719,1.0,0.0,0.0,0.0,1.0,0.0,0.0,0.0,1.0
1464075794448691497,411,1464075794421336414,,3.41997718811,-5.47351837158,141.52041626,0.00190799997654,1.0,0.0,0.0,0.0,1.0,0.0,0.0,0.0,1.0,-4.63414621353,2.13414645195,1.58536589146,1.0,0.0,0.0,0.0,1.0,0.0,0.0,0.0,1.0,0.296881024126,-0.641646044922,10.3477395752,1.0,0.0,0.0,0.0,1.0,0.0,0.0,0.0,1.0
1464075794532352575,412,1464075794441578027,,3.40535235405,-5.55552911758,141.53968811,0.0023199999705,1.0,0.0,0.0,0.0,1.0,0.0,0.0,0.0,1.0,-6.09756088257,2.31707310677,0.975609779358,1.0,0.0,0.0,0.0,1.0,0.0,0.0,0.0,1.0,0.378283862305,-0.694318481445,10.3190091553,1.0,0.0,0.0,0.0,1.0,0.0,0.0,0.0,1.0
1464075794532632626,413,1464075794462278284,,3.40352392197,-5.67789936066,141.55078125,0.00264300010167,1.0,0.0,0.0,0.0,1.0,0.0,0.0,0.0,1.0,-6.70731735229,2.25609779358,0.731707334518,1.0,0.0,0.0,0.0,1.0,0.0,0.0,0.0,1.0,0.287304199219,-0.9193734375,10.3956236084,1.0,0.0,0.0,0.0,1.0,0.0,0.0,0.0,1.0
1464075794537377040,414,1464075794484927442,,3.39634728432,-5.80995130539,141.555419922,0.00161399994977,1.0,0.0,0.0,0.0,1.0,0.0,0.0,0.0,1.0,-6.15853643417,2.37804889679,0.487804889679,1.0,0.0,0.0,0.0,1.0,0.0,0.0,0.0,1.0,0.268150604204,-0.895431420898,10.4530844482,1.0,0.0,0.0,0.0,1.0,0.0,0.0,0.0,1.0
1464075794538201830,415,1464075794506909153,,3.3917517662,-5.93986701965,141.55480957,0.00251800008118,1.0,0.0,0.0,0.0,1.0,0.0,0.0,0.0,1.0,-5.67073154449,2.56097555161,0.304878056049,1.0,0.0,0.0,0.0,1.0,0.0,0.0,0.0,1.0,0.263362164351,-0.976834277344,10.3190091553,1.0,0.0,0.0,0.0,1.0,0.0,0.0,0.0,1.0
1464075794582174368,416,1464075794531826535,,3.38962006569,-6.04382658005,141.553436279,0.0019420000026,1.0,0.0,0.0,0.0,1.0,0.0,0.0,0.0,1.0,-4.57317066193,2.13414645195,0.426829278469,1.0,0.0,0.0,0.0,1.0,0.0,0.0,0.0,1.0,0.220266552734,-0.885854614258,10.2136642822,1.0,0.0,0.0,0.0,1.0,0.0,0.0,0.0,1.0
1464075794582214316,417,1464075794551706221,,3.37402653694,-6.12766456604,141.555389404,0.00253099994734,1.0,0.0,0.0,0.0,1.0,0.0,0.0,0.0,1.0,-3.84146332741,1.15853655338,0.365853667259,1.0,0.0,0.0,0.0,1.0,0.0,0.0,0.0,1.0,0.325611425781,-0.91458503418,10.2807019287,1.0,0.0,0.0,0.0,1.0,0.0,0.0,0.0,1.0
1464075794600222653,418,1464075794572630592,,3.35037589073,-6.18898773193,141.567077637,0.00301599991508,1.0,0.0,0.0,0.0,1.0,0.0,0.0,0.0,1.0,-3.35365867615,1.64634156227,1.15853655338,1.0,0.0,0.0,0.0,1.0,0.0,0.0,0.0,1.0,0.205901342773,-0.957680664062,10.3764699951,1.0,0.0,0.0,0.0,1.0,0.0,0.0,0.0,1.0
1464075794615389019,419,1464075794594883970,,3.33937120438,-6.23277759552,141.590652466,0.00153899996076,1.0,0.0,0.0,0.0,1.0,0.0,0.0,0.0,1.0,-2.5,1.8902438879,1.70731711388,1.0,0.0,0.0,0.0,1.0,0.0,0.0,0.0,1.0,0.368707055664,-0.986411083984,10.2471831055,1.0,0.0,0.0,0.0,1.0,0.0,0.0,0.0,1.0
1464075794628751327,420,1464075794615112353,,3.33196663857,-6.25870227814,141.622055054,0.0014600000577,1.0,0.0,0.0,0.0,1.0,0.0,0.0,0.0,1.0,-1.15853655338,2.25609779358,1.8902438879,1.0,0.0,0.0,0.0,1.0,0.0,0.0,0.0,1.0,0.210689746094,-0.9193734375,10.405200415,1.0,0.0,0.0,0.0,1.0,0.0,0.0,0.0,1.0
1464075794646155499,421,1464075794636454639,,3.32188534737,-6.26224708557,141.658615112,0.00192800001241,1.0,0.0,0.0,0.0,1.0,0.0,0.0,0.0,1.0,-0.0609756112099,0.609756112099,2.13414645195,1.0,0.0,0.0,0.0,1.0,0.0,0.0,0.0,1.0,0.210689746094,-0.92416184082,10.3381627686,1.0,0.0,0.0,0.0,1.0,0.0,0.0,0.0,1.0
1464075794669049292,422,1464075794656830991,,3.28424263,-6.2463517189,141.702957153,0.00146199995652,1.0,0.0,0.0,0.0,1.0,0.0,0.0,0.0,1.0,0.18292683363,0.12195122242,2.31707310677,1.0,0.0,0.0,0.0,1.0,0.0,0.0,0.0,1.0,0.172382519531,-0.890643017578,10.2280294922,1.0,0.0,0.0,0.0,1.0,0.0,0.0,0.0,1.0
1464075794692026782,423,1464075794678837234,,3.2668056488,-6.22714853287,141.703445435,0.00206100009382,1.0,0.0,0.0,0.0,1.0,0.0,0.0,0.0,1.0,0.0,3.04878044128,-1.76829278469,1.0,0.0,0.0,0.0,1.0,0.0,0.0,0.0,1.0,-0.0143652099609,-0.967257470703,10.4913916748,1.0,0.0,0.0,0.0,1.0,0.0,0.0,0.0,1.0
1464075794733609327,424,1464075794701109466,,3.27413153648,-6.20561742783,141.657272339,0.00187799998093,1.0,0.0,0.0,0.0,1.0,0.0,0.0,0.0,1.0,-0.0609756112099,3.53658556938,-1.64634156227,1.0,0.0,0.0,0.0,1.0,0.0,0.0,0.0,1.0,0.15801730957,-0.962469067383,10.3621047852,1.0,0.0,0.0,0.0,1.0,0.0,0.0,0.0,1.0
1464075794734095211,425,1464075794721921025,,3.28767728806,-6.18422222137,141.624725342,0.00256099994294,1.0,0.0,0.0,0.0,1.0,0.0,0.0,0.0,1.0,1.40243899822,2.43902444839,-0.548780500889,1.0,0.0,0.0,0.0,1.0,0.0,0.0,0.0,1.0,0.0718260498047,-0.962469067383,10.1945106689,1.0,0.0,0.0,0.0,1.0,0.0,0.0,0.0,1.0
1464075794750845218,426,1464075794743648414,,3.27670049667,-6.13389730453,141.613006592,0.00158000004012,1.0,0.0,0.0,0.0,1.0,0.0,0.0,0.0,1.0,1.76829278469,1.64634156227,0.0,1.0,0.0,0.0,0.0,1.0,0.0,0.0,0.0,1.0,0.339976635742,-0.943315454102,10.2902787354,1.0,0.0,0.0,0.0,1.0,0.0,0.0,0.0,1.0
1464075794916011025,427,1464075794765633564,,3.25956439972,-6.07881164551,141.600357056,0.00143199996091,1.0,0.0,0.0,0.0,1.0,0.0,0.0,0.0,1.0,2.01219511032,3.71951246262,-1.46341466904,1.0,0.0,0.0,0.0,1.0,0.0,0.0,0.0,1.0,0.215478149414,-1.00556469727,10.2807019287,1.0,0.0,0.0,0.0,1.0,0.0,0.0,0.0,1.0
1464075794916071233,428,1464075794788570065,,3.2715921402,-6.01791572571,141.558792114,0.00226900004782,1.0,0.0,0.0,0.0,1.0,0.0,0.0,0.0,1.0,1.52439022064,2.5,-1.34146344662,1.0,0.0,0.0,0.0,1.0,0.0,0.0,0.0,1.0,0.421379492187,-0.713472094727,10.1705686523,1.0,0.0,0.0,0.0,1.0,0.0,0.0,0.0,1.0
1464075794918322425,429,1464075794811652659,,3.27998828888,-5.96961069107,141.542953491,0.00210799998604,1.0,0.0,0.0,0.0,1.0,0.0,0.0,0.0,1.0,1.40243899822,2.01219511032,0.0,1.0,0.0,0.0,0.0,1.0,0.0,0.0,0.0,1.0,0.268150604204,-0.976834277344,10.285490332,1.0,0.0,0.0,0.0,1.0,0.0,0.0,0.0,1.0
1464075794918389873,430,1464075794831998386,,3.28552722931,-5.94098043442,141.523498535,0.00227899989113,1.0,0.0,0.0,0.0,1.0,0.0,0.0,0.0,1.0,0.975609779358,2.37804889679,-1.2195122242,1.0,0.0,0.0,0.0,1.0,0.0,0.0,0.0,1.0,0.0574608398438,-0.957680664062,10.0700121826,1.0,0.0,0.0,0.0,1.0,0.0,0.0,0.0,1.0
1464075794918428727,431,1464075794852541404,,3.27944993973,-5.91701841354,141.487380981,0.00210099993274,1.0,0.0,0.0,0.0,1.0,0.0,0.0,0.0,1.0,-0.365853667259,1.76829278469,-1.34146344662,1.0,0.0,0.0,0.0,1.0,0.0,0.0,0.0,1.0,0.258573779297,-0.809240161133,10.2471831055,1.0,0.0,0.0,0.0,1.0,0.0,0.0,0.0,1.0
1464075794918761591,432,1464075794874331345,,3.27498149872,-5.92121553421,141.459030151,0.00201299996115,1.0,0.0,0.0,0.0,1.0,0.0,0.0,0.0,1.0,-1.03658533096,2.5,-0.609756112099,1.0,0.0,0.0,0.0,1.0,0.0,0.0,0.0,1.0,0.15801730957,-0.928950244141,10.0364933594,1.0,0.0,0.0,0.0,1.0,0.0,0.0,0.0,1.0
1464075794954722849,433,1464075794895437487,,3.2761092186,-5.93967819214,141.43510437,0.00173100002576,1.0,0.0,0.0,0.0,1.0,0.0,0.0,0.0,1.0,-0.731707334518,2.37804889679,-0.792682945728,1.0,0.0,0.0,0.0,1.0,0.0,0.0,0.0,1.0,0.220266552734,-1.00077629395,10.1753570557,1.0,0.0,0.0,0.0,1.0,0.0,0.0,0.0,1.0
1464075794955065348,434,1464075794917009460,,3.28951382637,-5.95643186569,141.411392212,0.00175199995283,1.0,0.0,0.0,0.0,1.0,0.0,0.0,0.0,1.0,-0.670731723309,2.01219511032,-0.304878056049,1.0,0.0,0.0,0.0,1.0,0.0,0.0,0.0,1.0,0.124498486328,-0.972045874023,10.2376062988,1.0,0.0,0.0,0.0,1.0,0.0,0.0,0.0,1.0
1464075794955120139,435,1464075794937295187,,3.28951311111,-5.96314573288,141.399002075,0.00139800005127,1.0,0.0,0.0,0.0,1.0,0.0,0.0,0.0,1.0,-0.304878056049,1.8292683363,-0.487804889679,1.0,0.0,0.0,0.0,1.0,0.0,0.0,0.0,1.0,0.225054956055,-1.11569797363,10.1514150391,1.0,0.0,0.0,0.0,1.0,0.0,0.0,0.0,1.0
1464075794991541969,436,1464075794959093149,,3.29028964043,-5.97252035141,141.390365601,0.00147799996193,1.0,0.0,0.0,0.0,1.0,0.0,0.0,0.0,1.0,-0.731707334518,2.56097555161,0.304878056049,1.0,0.0,0.0,0.0,1.0,0.0,0.0,0.0,1.0,-0.0143652099609,-0.876277807617,10.2232410889,1.0,0.0,0.0,0.0,1.0,0.0,0.0,0.0,1.0
1464075794991812437,437,1464075794981498245,,3.29606103897,-5.97709560394,141.40776062,0.00178000004962,1.0,0.0,0.0,0.0,1.0,0.0,0.0,0.0,1.0,-0.670731723309,1.2195122242,1.09756100178,1.0,0.0,0.0,0.0,1.0,0.0,0.0,0.0,1.0,0.138863696289,-0.857124194336,10.1274730225,1.0,0.0,0.0,0.0,1.0,0.0,0.0,0.0,1.0
1464075795034972529,438,1464075795002003711,,3.27413463593,-5.98611068726,141.412490845,0.00117499998305,1.0,0.0,0.0,0.0,1.0,0.0,0.0,0.0,1.0,-0.853658556938,1.34146344662,-0.0609756112099,1.0,0.0,0.0,0.0,1.0,0.0,0.0,0.0,1.0,0.177170922852,-1.03908344744,10.285490332,1.0,0.0,0.0,0.0,1.0,0.0,0.0,0.0,1.0
1464075795035019300,439,1464075795023891621,,3.26178860664,-6.002430439,141.410369873,0.00139800005127,1.0,0.0,0.0,0.0,1.0,0.0,0.0,0.0,1.0,0.853658556938,-0.304878056049,0.18292683363,1.0,0.0,0.0,0.0,1.0,0.0,0.0,0.0,1.0,0.0861912597656,-1.00077629395,10.1562034424,1.0,0.0,0.0,0.0,1.0,0.0,0.0,0.0,1.0
1464075795071324046,440,1464075795045015836,,3.20710945129,-5.96950674057,141.41368103,0.00152299995534,1.0,0.0,0.0,0.0,1.0,0.0,0.0,0.0,1.0,1.09756100178,-0.304878056049,0.243902444839,1.0,0.0,0.0,0.0,1.0,0.0,0.0,0.0,1.0,0.316034619141,-0.804451757813,10.2280294922,1.0,0.0,0.0,0.0,1.0,0.0,0.0,0.0,1.0
1464075795071695243,441,1464075795065586822,,3.16542673111,-5.93946933746,141.414718628,0.00121799996123,1.0,0.0,0.0,0.0,1.0,0.0,0.0,0.0,1.0,0.609756112099,-0.304878056049,-0.18292683363,1.0,0.0,0.0,0.0,1.0,0.0,0.0,0.0,1.0,0.114921679688,-0.967257470703,10.2136642822,1.0,0.0,0.0,0.0,1.0,0.0,0.0,0.0,1.0
1464075795095436794,442,1464075795086126142,,3.1084253788,-5.91923332214,141.409515381,0.00137600000016,1.0,0.0,0.0,0.0,1.0,0.0,0.0,0.0,1.0,2.56097555161,0.792682945728,-0.426829278469,1.0,0.0,0.0,0.0,1.0,0.0,0.0,0.0,1.0,0.272938989258,-1.11090957031,9.95987890625,1.0,0.0,0.0,0.0,1.0,0.0,0.0,0.0,1.0
1464075795116005645,443,1464075795107869469,,3.0533425808,-5.84286165237,141.416030884,0.00119600002654,1.0,0.0,0.0,0.0,1.0,0.0,0.0,0.0,1.0,4.02439022064,0.243902444839,0.487804889679,1.0,0.0,0.0,0.0,1.0,0.0,0.0,0.0,1.0,0.335188232422,-0.943315454102,10.2711251221,1.0,0.0,0.0,0.0,1.0,0.0,0.0,0.0,1.0
1464075795131629405,444,1464075795128222175,,3.02390384674,-5.73876714706,141.431488037,0.00125600001775,1.0,0.0,0.0,0.0,1.0,0.0,0.0,0.0,1.0,4.63414621353,0.731707334518,1.15853655338,1.0,0.0,0.0,0.0,1.0,0.0,0.0,0.0,1.0,0.244208569336,-0.833182177734,10.2711251221,1.0,0.0,0.0,0.0,1.0,0.0,0.0,0.0,1.0
1464075795157360326,445,1464075795149902429,,2.99755334854,-5.62348175049,141.455566406,0.00143499998376,1.0,0.0,0.0,0.0,1.0,0.0,0.0,0.0,1.0,4.20731735229,2.37804889679,1.64634156227,1.0,0.0,0.0,0.0,1.0,0.0,0.0,0.0,1.0,0.416591088867,-0.857124194336,10.3812583984,1.0,0.0,0.0,0.0,1.0,0.0,0.0,0.0,1.0
1464075795178127562,446,1464075795171594611,,3.01153326035,-5.51100730896,141.482788086,0.00192099995911,1.0,0.0,0.0,0.0,1.0,0.0,0.0,0.0,1.0,4.93902444839,3.29268312454,1.8902438879,1.0,0.0,0.0,0.0,1.0,0.0,0.0,0.0,1.0,0.196324536133,-0.828393774414,10.2471831055,1.0,0.0,0.0,0.0,1.0,0.0,0.0,0.0,1.0
1464075795195463974,447,1464075795192199555,,3.03461003304,-5.3985490799,141.511917114,0.00133500003722,1.0,0.0,0.0,0.0,1.0,0.0,0.0,0.0,1.0,4.45121955872,2.56097555161,1.46341466904,1.0,0.0,0.0,0.0,1.0,0.0,0.0,0.0,1.0,0.253785375977,-0.742202514648,10.3477395752,1.0,0.0,0.0,0.0,1.0,0.0,0.0,0.0,1.0
1464075795216346366,448,1464075795213632154,,3.01946926117,-5.32204961777,141.55809021,0.00172399997246,1.0,0.0,0.0,0.0,1.0,0.0,0.0,0.0,1.0,-4.39024400711,0.853658556938,2.68292689323,1.0,0.0,0.0,0.0,1.0,0.0,0.0,0.0,1.0,0.689530078125,-0.890643017578,10.1274730225,1.0,0.0,0.0,0.0,1.0,0.0,0.0,0.0,1.0
1464075795258040785,449,1464075795234002568,,3.00898122787,-5.41521978378,141.600021362,0.00109599996358,1.0,0.0,0.0,0.0,1.0,0.0,0.0,0.0,1.0,-1.09756100178,-0.792682945728,1.52439022064,1.0,0.0,0.0,0.0,1.0,0.0,0.0,0.0,1.0,-0.114921679688,-1.17794714373,10.1992990723,1.0,0.0,0.0,0.0,1.0,0.0,0.0,0.0,1.0
1464075795258537451,450,1464075795255814020,,2.93900418282,-5.4035449028,141.625305176,0.00107700005174,1.0,0.0,0.0,0.0,1.0,0.0,0.0,0.0,1.0,0.853658556938,-0.914634168148,1.03658533096,1.0,0.0,0.0,0.0,1.0,0.0,0.0,0.0,1.0,0.392649072266,-0.636857641602,10.0508585693,1.0,0.0,0.0,0.0,1.0,0.0,0.0,0.0,1.0
1464075795290017835,451,1464075795276049851,,2.88708329201,-5.3731303215,141.636245728,0.00143699999899,1.0,0.0,0.0,0.0,1.0,0.0,0.0,0.0,1.0,-2.19512200356,0.365853667259,0.18292683363,1.0,0.0,0.0,0.0,1.0,0.0,0.0,0.0,1.0,0.330399829102,-0.507570751953,9.96466730957,1.0,0.0,0.0,0.0,1.0,0.0,0.0,0.0,1.0
1464075795312810951,452,1464075795297258545,,2.85018706322,-5.41646146774,141.643325806,0.00125600001775,1.0,0.0,0.0,0.0,1.0,0.0,0.0,0.0,1.0,-2.43902444839,1.34146344662,0.975609779358,1.0,0.0,0.0,0.0,1.0,0.0,0.0,0.0,1.0,0.46447512207,-0.794874951172,10.2040874756,1.0,0.0,0.0,0.0,1.0,0.0,0.0,0.0,1.0
1464075795335017818,453,1464075795317843073,,2.82683300972,-5.46368932724,141.660614014,0.00119900004938,1.0,0.0,0.0,0.0,1.0,0.0,0.0,0.0,1.0,-1.2804877758,1.40243899822,1.8292683363,1.0,0.0,0.0,0.0,1.0,0.0,0.0,0.0,1.0,0.363918652344,-0.900219824219,10.5057568848,1.0,0.0,0.0,0.0,1.0,0.0,0.0,0.0,1.0
1464075795352641886,454,1464075795338755413,,2.82223510742,-5.47482347488,141.676651001,0.00109000003431,1.0,0.0,0.0,0.0,1.0,0.0,0.0,0.0,1.0,-0.792682945728,2.25609779358,0.792682945728,1.0,0.0,0.0,0.0,1.0,0.0,0.0,0.0,1.0,0.225054956055,-0.713472094727,10.1514150391,1.0,0.0,0.0,0.0,1.0,0.0,0.0,0.0,1.0
1464075795366268672,455,1464075795359144420,,2.81077218056,-5.48731470108,141.669189453,0.00112300005276,1.0,0.0,0.0,0.0,1.0,0.0,0.0,0.0,1.0,-2.31707310677,1.03658533096,-0.914634168148,1.0,0.0,0.0,0.0,1.0,0.0,0.0,0.0,1.0,0.244208569336,-0.713472094727,10.0412817627,1.0,0.0,0.0,0.0,1.0,0.0,0.0,0.0,1.0
1464075795387418511,456,1464075795379980198,,2.77092218399,-5.52918291092,141.641876221,0.00117800000589,1.0,0.0,0.0,0.0,1.0,0.0,0.0,0.0,1.0,-1.8902438879,0.548780500889,-1.15853655338,1.0,0.0,0.0,0.0,1.0,0.0,0.0,0.0,1.0,0.45968671875,-0.809240161133,10.2088758789,1.0,0.0,0.0,0.0,1.0,0.0,0.0,0.0,1.0
1464075795409396942,457,1464075795401142849,,2.7334356308,-5.55859804153,141.612579346,0.00128800002858,1.0,0.0,0.0,0.0,1.0,0.0,0.0,0.0,1.0,-2.98780488968,1.09756100178,-1.09756100178,1.0,0.0,0.0,0.0,1.0,0.0,0.0,0.0,1.0,0.325611425781,-0.785298144531,10.1562034424,1.0,0.0,0.0,0.0,1.0,0.0,0.0,0.0,1.0
1464075795426184189,458,1464075795421400556,,2.70298695564,-5.62212514877,141.580932617,0.00128199998289,1.0,0.0,0.0,0.0,1.0,0.0,0.0,0.0,1.0,-3.10975623131,0.365853667259,-1.8292683363,1.0,0.0,0.0,0.0,1.0,0.0,0.0,0.0,1.0,0.363918652344,-0.991199487305,10.2519715088,1.0,0.0,0.0,0.0,1.0,0.0,0.0,0.0,1.0
1464075795454851768,459,1464075795442401072,,2.66947722435,-5.68839454651,141.533355713,0.00108299998101,1.0,0.0,0.0,0.0,1.0,0.0,0.0,0.0,1.0,-2.43902444839,0.304878056049,-1.58536589146,1.0,0.0,0.0,0.0,1.0,0.0,0.0,0.0,1.0,0.253785375977,-0.742202514648,10.2759135254,1.0,0.0,0.0,0.0,1.0,0.0,0.0,0.0,1.0
1464075795466531320,460,1464075795463042683,,2.63325452805,-5.73956441879,141.502563477,0.00116099999286,1.0,0.0,0.0,0.0,1.0,0.0,0.0,0.0,1.0,-2.56097555161,1.40243899822,-0.609756112099,1.0,0.0,0.0,0.0,1.0,0.0,0.0,0.0,1.0,0.45489831543,-0.871489404297,10.314220752,1.0,0.0,0.0,0.0,1.0,0.0,0.0,0.0,1.0
1464075795491199223,461,1464075795483413931,,2.62920594215,-5.78914117813,141.501403809,0.00113900005817,1.0,0.0,0.0,0.0,1.0,0.0,0.0,0.0,1.0,-2.68292689323,2.62195134163,1.15853655338,1.0,0.0,0.0,0.0,1.0,0.0,0.0,0.0,1.0,0.234631762695,-0.9193734375,10.1992990723,1.0,0.0,0.0,0.0,1.0,0.0,0.0,0.0,1.0
1464075795509141622,462,1464075795504101011,,2.64768910408,-5.83367586136,141.527816772,0.00109599996358,1.0,0.0,0.0,0.0,1.0,0.0,0.0,0.0,1.0,-3.41463422775,3.53658556938,2.31707310677,1.0,0.0,0.0,0.0,1.0,0.0,0.0,0.0,1.0,0.277727392578,-0.881066210937,10.2950671387,1.0,0.0,0.0,0.0,1.0,0.0,0.0,0.0,1.0
1464075795536203893,463,1464075795526162983,,2.68740963936,-5.8904838562,141.571655273,0.00150200002827,1.0,0.0,0.0,0.0,1.0,0.0,0.0,0.0,1.0,-3.59756112099,3.7804877758,2.31707310677,1.0,0.0,0.0,0.0,1.0,0.0,0.0,0.0,1.0,0.177170922852,-0.861912597656,10.1370498291,1.0,0.0,0.0,0.0,1.0,0.0,0.0,0.0,1.0
1464075795586813706,464,1464075795547404280,,2.72370767593,-5.95196294785,141.599578857,0.00142099999357,1.0,0.0,0.0,0.0,1.0,0.0,0.0,0.0,1.0,-4.02439022064,2.25609779358,1.15853655338,1.0,0.0,0.0,0.0,1.0,0.0,0.0,0.0,1.0,0.268150604204,-0.9193734375,10.2759135254,1.0,0.0,0.0,0.0,1.0,0.0,0.0,0.0,1.0
1464075795587256517,465,1464075795569299742,,2.73305511475,-6.02549028397,141.6144104,0.00155399995856,1.0,0.0,0.0,0.0,1.0,0.0,0.0,0.0,1.0,-3.47560977936,1.52439022064,1.2804877758,1.0,0.0,0.0,0.0,1.0,0.0,0.0,0.0,1.0,0.229843359375,-0.900219824219,10.1992990723,1.0,0.0,0.0,0.0,1.0,0.0,0.0,0.0,1.0
1464075795627554794,466,1464075795590050624,,2.72698330879,-6.08185386658,141.644668579,0.00126299995463,1.0,0.0,0.0,0.0,1.0,0.0,0.0,0.0,1.0,-4.69512224197,1.52439022064,2.07317066193,1.0,0.0,0.0,0.0,1.0,0.0,0.0,0.0,1.0,0.248996972656,-0.742202514648,10.165780249,1.0,0.0,0.0,0.0,1.0,0.0,0.0,0.0,1.0
1464075795628199532,467,1464075795612350721,,2.73069357872,-6.18571949005,141.702331543,0.00334600009955,1.0,0.0,0.0,0.0,1.0,0.0,0.0,0.0,1.0,-5.97560977936,2.07317066193,3.35365867615,1.0,0.0,0.0,0.0,1.0,0.0,0.0,0.0,1.0,0.258573779297,-0.794874951172,9.98382092285,1.0,0.0,0.0,0.0,1.0,0.0,0.0,0.0,1.0
1464075795668518643,468,1464075795632835874,,2.74635338783,-6.29734611511,141.774093628,0.00199700007215,1.0,0.0,0.0,0.0,1.0,0.0,0.0,0.0,1.0,-7.01219511032,2.13414645195,3.96341490746,1.0,0.0,0.0,0.0,1.0,0.0,0.0,0.0,1.0,0.148440512063,-0.828393774414,9.93593688965,1.0,0.0,0.0,0.0,1.0,0.0,0.0,0.0,1.0
1464075795668949163,469,1464075795661197465,,2.76616573334,-6.64219474792,141.869003296,0.0123870000243,1.0,0.0,0.0,0.0,1.0,0.0,0.0,0.0,1.0,-7.50000047684,3.10975623131,4.02439022064,1.0,0.0,0.0,0.0,1.0,0.0,0.0,0.0,1.0,0.474051928711,-3.50511123047,10.898405957,1.0,0.0,0.0,0.0,1.0,0.0,0.0,0.0,1.0
1464075795690338949,470,1464075795682418449,,2.71725273132,-6.47013378143,141.964447021,0.00344399991445,1.0,0.0,0.0,0.0,1.0,0.0,0.0,0.0,1.0,2.68292689323,5.42682933807,5.0,1.0,0.0,0.0,0.0,1.0,0.0,0.0,0.0,1.0,0.986411083984,1.2976572998,9.16021555176,1.0,0.0,0.0,0.0,1.0,0.0,0.0,0.0,1.0
1464075795716111380,471,1464075795704296880,,2.73751139641,-6.42502260208,142.017242432,0.00141499994788,1.0,0.0,0.0,0.0,1.0,0.0,0.0,0.0,1.0,1.2804877758,3.65853667259,1.64634156227,1.0,0.0,0.0,0.0,1.0,0.0,0.0,0.0,1.0,0.646434448242,-0.699106884766,10.5823713379,1.0,0.0,0.0,0.0,1.0,0.0,0.0,0.0,1.0
1464075795743996722,472,1464075795725983645,,2.75210380554,-6.40206289291,142.000427246,0.00222699996084,1.0,0.0,0.0,0.0,1.0,0.0,0.0,0.0,1.0,-0.12195122242,3.84146332741,-1.70731711388,1.0,0.0,0.0,0.0,1.0,0.0,0.0,0.0,1.0,0.301669427446,-1.01514150391,10.0364933594,1.0,0.0,0.0,0.0,1.0,0.0,0.0,0.0,1.0
1464075795776725749,473,1464075795748570720,,2.74289679527,-6.43059539795,141.94984436,0.00185799994506,1.0,0.0,0.0,0.0,1.0,0.0,0.0,0.0,1.0,1.34146344662,2.43902444839,-1.46341466904,1.0,0.0,0.0,0.0,1.0,0.0,0.0,0.0,1.0,0.368707055664,-1.70945998535,10.0077629395,1.0,0.0,0.0,0.0,1.0,0.0,0.0,0.0,1.0
1464075795777140591,474,1464075795769782903,,2.75607943535,-6.38509511948,141.90284729,0.00168600003235,1.0,0.0,0.0,0.0,1.0,0.0,0.0,0.0,1.0,4.45121955872,3.41463422775,-1.58536589146,1.0,0.0,0.0,0.0,1.0,0.0,0.0,0.0,1.0,0.263362164351,-1.04387185076,9.60074924175,1.0,0.0,0.0,0.0,1.0,0.0,0.0,0.0,1.0
1464075795795965905,475,1464075795791373730,,2.79937887192,-6.28147506714,141.85055542,0.00181100005284,1.0,0.0,0.0,0.0,1.0,0.0,0.0,0.0,1.0,9.45121955872,4.32926845551,0.304878056049,1.0,0.0,0.0,0.0,1.0,0.0,0.0,0.0,1.0,0.172382519531,-1.68551796875,10.3908352051,1.0,0.0,0.0,0.0,1.0,0.0,0.0,0.0,1.0
1464075795817262984,476,1464075795814495335,,2.88285541534,-6.06387090683,141.866699219,0.00373200001195,1.0,0.0,0.0,0.0,1.0,0.0,0.0,0.0,1.0,10.3658542633,6.82926845551,2.31707310677,1.0,0.0,0.0,0.0,1.0,0.0,0.0,0.0,1.0,0.292092584273,-0.641646044922,10.1609918457,1.0,0.0,0.0,0.0,1.0,0.0,0.0,0.0,1.0
1464075795837881991,477,1464075795832815702,,2.99504852295,-5.80711841583,141.905548096,0.00134600000456,1.0,0.0,0.0,0.0,1.0,0.0,0.0,0.0,1.0,12.6219520569,5.42682933807,2.5,1.0,0.0,0.0,0.0,1.0,0.0,0.0,0.0,1.0,0.287304199219,-0.560243188477,10.2232410889,1.0,0.0,0.0,0.0,1.0,0.0,0.0,0.0,1.0
1464075795858607717,478,1464075795853675021,,3.06008172035,-5.54242753983,141.922851562,0.00772600015625,1.0,0.0,0.0,0.0,1.0,0.0,0.0,0.0,1.0,8.71951198578,5.97560977936,0.731707334518,1.0,0.0,0.0,0.0,1.0,0.0,0.0,0.0,1.0,0.435744702148,-0.541089611728,10.5727945312,1.0,0.0,0.0,0.0,1.0,0.0,0.0,0.0,1.0
1464075795879783701,479,1464075795874332206,,3.10987043381,-5.31328392029,141.920623779,0.00137399998493,1.0,0.0,0.0,0.0,1.0,0.0,0.0,0.0,1.0,8.65853691101,6.21951246262,0.304878056049,1.0,0.0,0.0,0.0,1.0,0.0,0.0,0.0,1.0,0.569819995117,-0.660799658203,10.419565625,1.0,0.0,0.0,0.0,1.0,0.0,0.0,0.0,1.0
1464075795901460154,480,1464075795895128035,,3.21771216393,-5.1115899086,141.883499146,0.0116649996489,1.0,0.0,0.0,0.0,1.0,0.0,0.0,0.0,1.0,8.41463470459,6.82926845551,-1.40243899822,1.0,0.0,0.0,0.0,1.0,0.0,0.0,0.0,1.0,-0.0287304199219,-0.574608398438,10.0412817627,1.0,0.0,0.0,0.0,1.0,0.0,0.0,0.0,1.0
1464075795924121655,481,1464075795916013344,,3.32995223999,-4.93435335159,141.838104248,0.00124699994922,1.0,0.0,0.0,0.0,1.0,0.0,0.0,0.0,1.0,7.86585378647,3.23170733452,-2.25609779358,1.0,0.0,0.0,0.0,1.0,0.0,0.0,0.0,1.0,-0.316034619141,-0.665588061523,10.3956236084,1.0,0.0,0.0,0.0,1.0,0.0,0.0,0.0,1.0
1464075795943300979,482,1464075795937723546,,3.35722136497,-4.76490116119,141.766906738,0.00146299996413,1.0,0.0,0.0,0.0,1.0,0.0,0.0,0.0,1.0,5.97560977936,-3.10975623131,-3.59756112099,1.0,0.0,0.0,0.0,1.0,0.0,0.0,0.0,1.0,-0.502782348633,-0.703895288086,10.6541973877,1.0,0.0,0.0,0.0,1.0,0.0,0.0,0.0,1.0
1464075795969962887,483,1464075795963265457,,3.25847053528,-4.68770551682,141.719116211,0.0132839996368,1.0,0.0,0.0,0.0,1.0,0.0,0.0,0.0,1.0,1.2195122242,0.12195122242,-0.304878056049,1.0,0.0,0.0,0.0,1.0,0.0,0.0,0.0,1.0,0.258573779297,-0.809240161133,10.3237975586,1.0,0.0,0.0,0.0,1.0,0.0,0.0,0.0,1.0
1464075795994798810,484,1464075795983989255,,3.21015071869,-4.66315793991,141.763000488,0.00117199996021,1.0,0.0,0.0,0.0,1.0,0.0,0.0,0.0,1.0,0.365853667259,2.37804889679,2.62195134163,1.0,0.0,0.0,0.0,1.0,0.0,0.0,0.0,1.0,0.282515795898,-0.593762048251,10.1131078125,1.0,0.0,0.0,0.0,1.0,0.0,0.0,0.0,1.0
1464075796015022193,485,1464075796005162896,,3.21114802361,-4.63674783707,141.811920166,0.00138300005347,1.0,0.0,0.0,0.0,1.0,0.0,0.0,0.0,1.0,1.95121955872,3.04878044128,2.13414645195,1.0,0.0,0.0,0.0,1.0,0.0,0.0,0.0,1.0,0.177170922852,-0.660799658203,10.2232410889,1.0,0.0,0.0,0.0,1.0,0.0,0.0,0.0,1.0
1464075796046473515,486,1464075796026741068,,3.19836997986,-4.59676361084,141.832290649,0.00154299999122,1.0,0.0,0.0,0.0,1.0,0.0,0.0,0.0,1.0,1.58536589146,-0.12195122242,0.243902444839,1.0,0.0,0.0,0.0,1.0,0.0,0.0,0.0,1.0,0.076614453125,-0.77093293457,10.3668931885,1.0,0.0,0.0,0.0,1.0,0.0,0.0,0.0,1.0
1464075796070194805,487,1464075796050475119,,3.13404536247,-4.57827329636,141.818939209,0.00178799999412,1.0,0.0,0.0,0.0,1.0,0.0,0.0,0.0,1.0,0.0,-0.792682945728,0.0,1.0,0.0,0.0,0.0,1.0,0.0,0.0,0.0,1.0,0.248996972656,-0.775721337891,10.4435076416,1.0,0.0,0.0,0.0,1.0,0.0,0.0,0.0,1.0
1464075796085417890,488,1464075796071169855,,3.0595896244,-4.57738685608,141.826782227,0.00236500008032,1.0,0.0,0.0,0.0,1.0,0.0,0.0,0.0,1.0,-0.670731723309,0.914634168148,1.2195122242,1.0,0.0,0.0,0.0,1.0,0.0,0.0,0.0,1.0,0.478840332031,-0.636857641602,10.0317049561,1.0,0.0,0.0,0.0,1.0,0.0,0.0,0.0,1.0
1464075796112093026,489,1464075796093317035,,3.0302901268,-4.56957387924,141.855499268,0.0024619998876,1.0,0.0,0.0,0.0,1.0,0.0,0.0,0.0,1.0,-0.18292683363,2.86585378647,1.8902438879,1.0,0.0,0.0,0.0,1.0,0.0,0.0,0.0,1.0,0.301669427446,-0.574608398438,10.1753570557,1.0,0.0,0.0,0.0,1.0,0.0,0.0,0.0,1.0
1464075796117424783,490,1464075796114411249,,3.02672982216,-4.5552277565,141.863739014,0.00162899994757,1.0,0.0,0.0,0.0,1.0,0.0,0.0,0.0,1.0,0.609756112099,1.15853655338,-0.914634168148,1.0,0.0,0.0,0.0,1.0,0.0,0.0,0.0,1.0,0.210689746094,-0.603338854892,10.2807019287,1.0,0.0,0.0,0.0,1.0,0.0,0.0,0.0,1.0
1464075796216181081,491,1464075796136354836,,3.00374031067,-4.54041814804,141.829437256,0.0017569999909,1.0,0.0,0.0,0.0,1.0,0.0,0.0,0.0,1.0,0.365853667259,0.487804889679,-1.2195122242,1.0,0.0,0.0,0.0,1.0,0.0,0.0,0.0,1.0,0.0957680664062,-0.699106884766,10.2711251221,1.0,0.0,0.0,0.0,1.0,0.0,0.0,0.0,1.0
1464075796216229518,492,1464075796157216603,,2.9782743454,-4.52758073807,141.818161011,0.00161499995738,1.0,0.0,0.0,0.0,1.0,0.0,0.0,0.0,1.0,0.243902444839,0.487804889679,0.0609756112099,1.0,0.0,0.0,0.0,1.0,0.0,0.0,0.0,1.0,0.258573779297,-0.675164868164,10.1274730225,1.0,0.0,0.0,0.0,1.0,0.0,0.0,0.0,1.0
1464075796216270299,493,1464075796178460557,,2.94423508644,-4.51478052139,141.823516846,0.0017569999909,1.0,0.0,0.0,0.0,1.0,0.0,0.0,0.0,1.0,0.18292683363,0.670731723309,0.914634168148,1.0,0.0,0.0,0.0,1.0,0.0,0.0,0.0,1.0,0.521935925381,-0.60812722168,10.2615483154,1.0,0.0,0.0,0.0,1.0,0.0,0.0,0.0,1.0
1464075796216313424,494,1464075796201153933,,2.89096331596,-4.5018901825,141.854660034,0.00208900007419,1.0,0.0,0.0,0.0,1.0,0.0,0.0,0.0,1.0,-0.670731723309,6.21951246262,2.80487799644,1.0,0.0,0.0,0.0,1.0,0.0,0.0,0.0,1.0,1.14442839355,-0.588973571866,10.2567599121,1.0,0.0,0.0,0.0,1.0,0.0,0.0,0.0,1.0
1464075796263273194,495,1464075796221648358,,2.96306538582,-4.49910020828,141.893051147,0.00292499992065,1.0,0.0,0.0,0.0,1.0,0.0,0.0,0.0,1.0,-0.853658556938,10.2439022064,1.70731711388,1.0,0.0,0.0,0.0,1.0,0.0,0.0,0.0,1.0,0.478840332031,-0.531512805087,10.1897222656,1.0,0.0,0.0,0.0,1.0,0.0,0.0,0.0,1.0
1464075796263335225,496,1464075796242374708,,3.10587930679,-4.50996541977,141.861923218,0.00251800008118,1.0,0.0,0.0,0.0,1.0,0.0,0.0,0.0,1.0,-0.609756112099,7.37804937363,-2.92682933807,1.0,0.0,0.0,0.0,1.0,0.0,0.0,0.0,1.0,0.148440512063,-0.675164868164,10.3429511719,1.0,0.0,0.0,0.0,1.0,0.0,0.0,0.0,1.0
1464075796297211697,497,1464075796264807252,,3.22436714172,-4.52673435211,141.792221069,0.00139400002081,1.0,0.0,0.0,0.0,1.0,0.0,0.0,0.0,1.0,-0.243902444839,3.04878044128,-2.43902444839,1.0,0.0,0.0,0.0,1.0,0.0,0.0,0.0,1.0,-0.15322890625,-0.794874951172,10.2376062988,1.0,0.0,0.0,0.0,1.0,0.0,0.0,0.0,1.0
1464075796299787002,498,1464075796285508811,,3.26479458809,-4.54179048538,141.745117188,0.00196200003847,1.0,0.0,0.0,0.0,1.0,0.0,0.0,0.0,1.0,-0.426829278469,4.57317066193,-0.609756112099,1.0,0.0,0.0,0.0,1.0,0.0,0.0,0.0,1.0,0.119710083008,-0.703895288086,10.2950671387,1.0,0.0,0.0,0.0,1.0,0.0,0.0,0.0,1.0
1464075796328789372,499,1464075796305659174,,3.32653427124,-4.55016326904,141.77305603,0.00169800000731,1.0,0.0,0.0,0.0,1.0,0.0,0.0,0.0,1.0,-0.365853667259,7.43902492523,3.41463422775,1.0,0.0,0.0,0.0,1.0,0.0,0.0,0.0,1.0,0.708683691406,-0.785298144531,10.1705686523,1.0,0.0,0.0,0.0,1.0,0.0,0.0,0.0,1.0
1464075796338823877,500,1464075796326868544,,3.4579269886,-4.54993963242,141.831268311,0.00160700001288,1.0,0.0,0.0,0.0,1.0,0.0,0.0,0.0,1.0,-0.670731723309,10.1219511032,3.23170733452,1.0,0.0,0.0,0.0,1.0,0.0,0.0,0.0,1.0,0.191536132812,-0.612915625,10.299855542,1.0,0.0,0.0,0.0,1.0,0.0,0.0,0.0,1.0
1464075796355153937,501,1464075796351854206,,3.58300876617,-4.54564380646,141.8359375,0.00183399999514,1.0,0.0,0.0,0.0,1.0,0.0,0.0,0.0,1.0,-0.365853667259,7.01219511032,-1.64634156227,1.0,0.0,0.0,0.0,1.0,0.0,0.0,0.0,1.0,0.258573779297,-0.584185168546,10.2567599121,1.0,0.0,0.0,0.0,1.0,0.0,0.0,0.0,1.0
1464075796381697772,502,1464075796373332013,,3.68330740929,-4.52979373932,141.774673462,0.00457500014454,1.0,0.0,0.0,0.0,1.0,0.0,0.0,0.0,1.0,-0.853658556938,6.52439069748,-2.19512200356,1.0,0.0,0.0,0.0,1.0,0.0,0.0,0.0,1.0,0.162805712891,-0.440533105469,10.2711251221,1.0,0.0,0.0,0.0,1.0,0.0,0.0,0.0,1.0
1464075796404547503,503,1464075796394860029,,3.78085303307,-4.51479530334,141.722930908,0.00161899998784,1.0,0.0,0.0,0.0,1.0,0.0,0.0,0.0,1.0,-0.18292683363,7.74390268326,-1.95121955872,1.0,0.0,0.0,0.0,1.0,0.0,0.0,0.0,1.0,0.0335188255255,-0.373495458984,10.1705686523,1.0,0.0,0.0,0.0,1.0,0.0,0.0,0.0,1.0
1464075796418137362,504,1464075796415637733,,3.9074177742,-4.51288366318,141.672836304,0.00163399998564,1.0,0.0,0.0,0.0,1.0,0.0,0.0,0.0,1.0,-0.548780500889,6.46341466904,-1.8292683363,1.0,0.0,0.0,0.0,1.0,0.0,0.0,0.0,1.0,0.0239420166016,-0.636857641602,10.2376062988,1.0,0.0,0.0,0.0,1.0,0.0,0.0,0.0,1.0
1464075796445982964,505,1464075796438097361,,4.03803777695,-4.51006507874,141.635757446,0.00247700000182,1.0,0.0,0.0,0.0,1.0,0.0,0.0,0.0,1.0,-0.365853667259,6.82926845551,-0.365853667259,1.0,0.0,0.0,0.0,1.0,0.0,0.0,0.0,1.0,-0.124498486328,-0.670376464844,10.314220752,1.0,0.0,0.0,0.0,1.0,0.0,0.0,0.0,1.0
1464075796463445886,506,1464075796460208864,,4.13927316666,-4.50639438629,141.630310059,0.00144999998156,1.0,0.0,0.0,0.0,1.0,0.0,0.0,0.0,1.0,-0.365853667259,5.79268312454,0.12195122242,1.0,0.0,0.0,0.0,1.0,0.0,0.0,0.0,1.0,-0.0383072265625,-0.670376464844,10.2232410889,1.0,0.0,0.0,0.0,1.0,0.0,0.0,0.0,1.0
1464075796484086612,507,1464075796480497611,,4.20214939117,-4.50386142731,141.621871948,0.00175399996806,1.0,0.0,0.0,0.0,1.0,0.0,0.0,0.0,1.0,-0.426829278469,5.85365867615,0.304878056049,1.0,0.0,0.0,0.0,1.0,0.0,0.0,0.0,1.0,0.138863696289,-0.694318481445,10.2519715088,1.0,0.0,0.0,0.0,1.0,0.0,0.0,0.0,1.0
1464075796541230209,508,1464075796502480469,,4.28626966476,-4.5088801384,141.623458862,0.00226400000975,1.0,0.0,0.0,0.0,1.0,0.0,0.0,0.0,1.0,0.0609756112099,6.64634132385,0.365853667259,1.0,0.0,0.0,0.0,1.0,0.0,0.0,0.0,1.0,-0.0191536132812,-0.708683691406,10.1753570557,1.0,0.0,0.0,0.0,1.0,0.0,0.0,0.0,1.0
1464075796544160930,509,1464075796522887550,,4.37576055527,-4.50846529007,141.616439819,0.00164999999106,1.0,0.0,0.0,0.0,1.0,0.0,0.0,0.0,1.0,-0.243902444839,6.64634132385,0.12195122242,1.0,0.0,0.0,0.0,1.0,0.0,0.0,0.0,1.0,-0.0143652099609,-0.713472094727,10.180145459,1.0,0.0,0.0,0.0,1.0,0.0,0.0,0.0,1.0
1464075796623792227,510,1464075796544787075,,4.47129821777,-4.51612329483,141.595733643,0.00158299994655,1.0,0.0,0.0,0.0,1.0,0.0,0.0,0.0,1.0,-0.243902444839,5.24390268326,-0.487804889679,1.0,0.0,0.0,0.0,1.0,0.0,0.0,0.0,1.0,-0.0718260498047,-0.584185168546,10.299855542,1.0,0.0,0.0,0.0,1.0,0.0,0.0,0.0,1.0
1464075796626853313,511,1464075796566195715,,4.53057670593,-4.50929880142,141.578567505,0.00292000011541,1.0,0.0,0.0,0.0,1.0,0.0,0.0,0.0,1.0,-1.03658533096,5.54878091812,-0.12195122242,1.0,0.0,0.0,0.0,1.0,0.0,0.0,0.0,1.0,0.0383072265625,-0.521935925381,10.2902787354,1.0,0.0,0.0,0.0,1.0,0.0,0.0,0.0,1.0
1464075796627274562,512,1464075796586446129,,4.60002803802,-4.50989341736,141.573822021,0.00190799997654,1.0,0.0,0.0,0.0,1.0,0.0,0.0,0.0,1.0,-0.365853667259,5.91463422775,0.365853667259,1.0,0.0,0.0,0.0,1.0,0.0,0.0,0.0,1.0,0.0143652099609,-0.684741674805,10.2711251221,1.0,0.0,0.0,0.0,1.0,0.0,0.0,0.0,1.0
1464075796628243257,513,1464075796608152946,,4.69066524506,-4.52345132828,141.569824219,0.00171600002795,1.0,0.0,0.0,0.0,1.0,0.0,0.0,0.0,1.0,-0.304878056049,5.60975599289,-0.487804889679,1.0,0.0,0.0,0.0,1.0,0.0,0.0,0.0,1.0,-0.349553442383,-0.790086547852,10.1466266357,1.0,0.0,0.0,0.0,1.0,0.0,0.0,0.0,1.0
1464075796816506971,514,1464075796629971950,,4.75908899307,-4.53014993668,141.542800903,0.00216299993917,1.0,0.0,0.0,0.0,1.0,0.0,0.0,0.0,1.0,-0.365853667259,3.10975623131,-0.731707334518,1.0,0.0,0.0,0.0,1.0,0.0,0.0,0.0,1.0,-0.263362164351,-0.622492431641,10.2328178955,1.0,0.0,0.0,0.0,1.0,0.0,0.0,0.0,1.0
1464075796816779366,515,1464075796652398192,,4.79639339447,-4.54113912582,141.537643433,0.00286099989899,1.0,0.0,0.0,0.0,1.0,0.0,0.0,0.0,1.0,-0.853658556938,4.39024400711,0.609756112099,1.0,0.0,0.0,0.0,1.0,0.0,0.0,0.0,1.0,-0.143652099609,-0.670376464844,10.2711251221,1.0,0.0,0.0,0.0,1.0,0.0,0.0,0.0,1.0
1464075796817045511,516,1464075796672636940,,4.82955932617,-4.53800296783,141.545349121,0.00343700009398,1.0,0.0,0.0,0.0,1.0,0.0,0.0,0.0,1.0,-0.609756112099,2.98780488968,0.487804889679,1.0,0.0,0.0,0.0,1.0,0.0,0.0,0.0,1.0,-0.00957680664062,-0.478840332031,10.3094323486,1.0,0.0,0.0,0.0,1.0,0.0,0.0,0.0,1.0
1464075796817324885,517,1464075796693657717,,4.83942270279,-4.52304887772,141.546661377,0.00323299993761,1.0,0.0,0.0,0.0,1.0,0.0,0.0,0.0,1.0,-0.243902444839,3.96341490746,1.03658533096,1.0,0.0,0.0,0.0,1.0,0.0,0.0,0.0,1.0,0.00478840332031,-0.545877978516,10.1322614258,1.0,0.0,0.0,0.0,1.0,0.0,0.0,0.0,1.0
1464075796817671759,518,1464075796716528802,,4.8777217865,-4.53362321854,141.544616699,0.00716800009832,1.0,0.0,0.0,0.0,1.0,0.0,0.0,0.0,1.0,-0.365853667259,4.39024400711,-1.03658533096,1.0,0.0,0.0,0.0,1.0,0.0,0.0,0.0,1.0,-0.129286889648,-0.861912597656,10.3573163818,1.0,0.0,0.0,0.0,1.0,0.0,0.0,0.0,1.0
1464075796817988842,519,1464075796738040775,,4.90258932114,-4.53859233856,141.514160156,0.00154800002929,1.0,0.0,0.0,0.0,1.0,0.0,0.0,0.0,1.0,-0.243902444839,4.39024400711,-0.18292683363,1.0,0.0,0.0,0.0,1.0,0.0,0.0,0.0,1.0,0.114921679688,-0.670376464844,10.314220752,1.0,0.0,0.0,0.0,1.0,0.0,0.0,0.0,1.0
1464075796818298216,520,1464075796759135719,,4.97655487061,-4.54644012451,141.499298096,0.00161200005095,1.0,0.0,0.0,0.0,1.0,0.0,0.0,0.0,1.0,-0.426829278469,5.60975599289,-0.365853667259,1.0,0.0,0.0,0.0,1.0,0.0,0.0,0.0,1.0,-0.268150604204,-0.679953271484,10.2567599121,1.0,0.0,0.0,0.0,1.0,0.0,0.0,0.0,1.0
1464075796818572486,521,1464075796780673057,,5.03898715973,-4.5273194313,141.49055481,0.00190699996892,1.0,0.0,0.0,0.0,1.0,0.0,0.0,0.0,1.0,-0.426829278469,5.36585378647,0.670731723309,1.0,0.0,0.0,0.0,1.0,0.0,0.0,0.0,1.0,-0.00957680664062,-0.46447512207,10.0843773926,1.0,0.0,0.0,0.0,1.0,0.0,0.0,0.0,1.0
1464075796820267950,522,1464075796802643883,,5.12987852097,-4.54597377777,141.501220703,0.00329599995166,1.0,0.0,0.0,0.0,1.0,0.0,0.0,0.0,1.0,-1.40243899822,5.60975599289,-1.34146344662,1.0,0.0,0.0,0.0,1.0,0.0,0.0,0.0,1.0,-0.60812722168,-1.06302561017,10.2136642822,1.0,0.0,0.0,0.0,1.0,0.0,0.0,0.0,1.0
1464075796914041032,523,1464075796823385494,,5.15708255768,-4.53689050674,141.471878052,0.00169299996924,1.0,0.0,0.0,0.0,1.0,0.0,0.0,0.0,1.0,-1.03658533096,2.86585378647,-0.426829278469,1.0,0.0,0.0,0.0,1.0,0.0,0.0,0.0,1.0,-0.0335188255255,-0.550666381836,10.2232410889,1.0,0.0,0.0,0.0,1.0,0.0,0.0,0.0,1.0
1464075796914326865,524,1464075796845546737,,5.20313978195,-4.54652452469,141.459671021,0.00165999995079,1.0,0.0,0.0,0.0,1.0,0.0,0.0,0.0,1.0,-0.243902444839,4.63414621353,-0.731707334518,1.0,0.0,0.0,0.0,1.0,0.0,0.0,0.0,1.0,-0.402225878906,-0.732625708008,10.165780249,1.0,0.0,0.0,0.0,1.0,0.0,0.0,0.0,1.0
1464075796915459831,525,1464075796867402355,,5.22918462753,-4.57033824921,141.446838379,0.00155499996617,1.0,0.0,0.0,0.0,1.0,0.0,0.0,0.0,1.0,-0.0609756112099,3.41463422775,-0.487804889679,1.0,0.0,0.0,0.0,1.0,0.0,0.0,0.0,1.0,-0.110133276367,-0.699106884766,10.2088758789,1.0,0.0,0.0,0.0,1.0,0.0,0.0,0.0,1.0
1464075796916631234,526,1464075796887820790,,5.27090644836,-4.55935811996,141.424942017,0.00144899997395,1.0,0.0,0.0,0.0,1.0,0.0,0.0,0.0,1.0,0.12195122242,2.37804889679,-0.426829278469,1.0,0.0,0.0,0.0,1.0,0.0,0.0,0.0,1.0,-0.407014282227,-0.560243188477,10.2950671387,1.0,0.0,0.0,0.0,1.0,0.0,0.0,0.0,1.0
1464075796969850154,527,1464075796921609970,,5.27639436722,-4.54654693604,141.418838501,0.00790200009942,1.0,0.0,0.0,0.0,1.0,0.0,0.0,0.0,1.0,-0.426829278469,2.01219511032,-0.18292683363,1.0,0.0,0.0,0.0,1.0,0.0,0.0,0.0,1.0,-0.248996972656,-0.61770402832,10.2184526855,1.0,0.0,0.0,0.0,1.0,0.0,0.0,0.0,1.0
1464075796971635357,528,1464075796931540621,,5.2637090683,-4.53704929352,141.427764893,0.00182500004303,1.0,0.0,0.0,0.0,1.0,0.0,0.0,0.0,1.0,-0.792682945728,1.46341466904,0.426829278469,1.0,0.0,0.0,0.0,1.0,0.0,0.0,0.0,1.0,-0.239420166016,-0.603338854892,10.1562034424,1.0,0.0,0.0,0.0,1.0,0.0,0.0,0.0,1.0
1464075797000766841,529,1464075796952477804,,5.24165678024,-4.54174995422,141.431472778,0.00124400004279,1.0,0.0,0.0,0.0,1.0,0.0,0.0,0.0,1.0,-0.487804889679,2.01219511032,-0.0609756112099,1.0,0.0,0.0,0.0,1.0,0.0,0.0,0.0,1.0,-0.138863696289,-0.718260498047,10.0939541992,1.0,0.0,0.0,0.0,1.0,0.0,0.0,0.0,1.0
1464075797002231421,530,1464075796974098215,,5.23476362228,-4.54991054535,141.425628662,0.00135999999475,1.0,0.0,0.0,0.0,1.0,0.0,0.0,0.0,1.0,-0.548780500889,2.43902444839,-0.18292683363,1.0,0.0,0.0,0.0,1.0,0.0,0.0,0.0,1.0,-0.114921679688,-0.679953271484,10.2136642822,1.0,0.0,0.0,0.0,1.0,0.0,0.0,0.0,1.0
1464075797019323667,531,1464075796995698105,,5.25032281876,-4.55171346664,141.418228149,0.00133500003722,1.0,0.0,0.0,0.0,1.0,0.0,0.0,0.0,1.0,-0.0609756112099,3.10975623131,0.12195122242,1.0,0.0,0.0,0.0,1.0,0.0,0.0,0.0,1.0,-0.181959326172,-0.545877978516,10.2902787354,1.0,0.0,0.0,0.0,1.0,0.0,0.0,0.0,1.0
1464075797019627937,532,1464075797016242008,,5.26365089417,-4.53579711914,141.415893555,0.00129199994262,1.0,0.0,0.0,0.0,1.0,0.0,0.0,0.0,1.0,-0.243902444839,2.74390244484,0.12195122242,1.0,0.0,0.0,0.0,1.0,0.0,0.0,0.0,1.0,-0.277727392578,-0.531512805087,10.3381627686,1.0,0.0,0.0,0.0,1.0,0.0,0.0,0.0,1.0
1464075797062341103,533,1464075797037090807,,5.26222038269,-4.52533531189,141.414047241,0.0012300000526,1.0,0.0,0.0,0.0,1.0,0.0,0.0,0.0,1.0,-0.365853667259,1.95121955872,-0.12195122242,1.0,0.0,0.0,0.0,1.0,0.0,0.0,0.0,1.0,-0.148440512063,-0.545877978516,10.1083194092,1.0,0.0,0.0,0.0,1.0,0.0,0.0,0.0,1.0
1464075797062716519,534,1464075797057636689,,5.25205659866,-4.52662658691,141.419754028,0.00126900000032,1.0,0.0,0.0,0.0,1.0,0.0,0.0,0.0,1.0,-0.609756112099,2.56097555161,0.426829278469,1.0,0.0,0.0,0.0,1.0,0.0,0.0,0.0,1.0,-0.0383072265625,-0.646434448242,10.165780249,1.0,0.0,0.0,0.0,1.0,0.0,0.0,0.0,1.0
1464075797085471250,535,1464075797079233194,,5.25304031372,-4.53734397888,141.416809082,0.00308199995197,1.0,0.0,0.0,0.0,1.0,0.0,0.0,0.0,1.0,-0.426829278469,3.53658556938,-0.243902444839,1.0,0.0,0.0,0.0,1.0,0.0,0.0,0.0,1.0,0.0239420166016,-0.718260498047,10.2423947021,1.0,0.0,0.0,0.0,1.0,0.0,0.0,0.0,1.0
1464075797172619922,536,1464075797100280116,,5.28099346161,-4.54498338699,141.404724121,0.00322599988431,1.0,0.0,0.0,0.0,1.0,0.0,0.0,0.0,1.0,-0.426829278469,4.20731735229,-0.243902444839,1.0,0.0,0.0,0.0,1.0,0.0,0.0,0.0,1.0,-0.143652099609,-0.651222851562,10.1945106689,1.0,0.0,0.0,0.0,1.0,0.0,0.0,0.0,1.0
1464075797175482415,537,1464075797121535841,,5.33029556274,-4.54384374619,141.392883301,0.0031340001151,1.0,0.0,0.0,0.0,1.0,0.0,0.0,0.0,1.0,-0.426829278469,3.71951246262,-0.365853667259,1.0,0.0,0.0,0.0,1.0,0.0,0.0,0.0,1.0,-0.253785375977,-0.588973571866,10.2328178955,1.0,0.0,0.0,0.0,1.0,0.0,0.0,0.0,1.0
1464075797175832518,538,1464075797142163077,,5.36935186386,-4.54055070877,141.382171631,0.00128299999051,1.0,0.0,0.0,0.0,1.0,0.0,0.0,0.0,1.0,-0.487804889679,3.41463422775,0.0609756112099,1.0,0.0,0.0,0.0,1.0,0.0,0.0,0.0,1.0,-0.325611425781,-0.545877978516,10.2950671387,1.0,0.0,0.0,0.0,1.0,0.0,0.0,0.0,1.0
1464075797176120850,539,1464075797163375416,,5.39147472382,-4.53975105286,141.379653931,0.00175199995283,1.0,0.0,0.0,0.0,1.0,0.0,0.0,0.0,1.0,-0.548780500889,3.29268312454,0.243902444839,1.0,0.0,0.0,0.0,1.0,0.0,0.0,0.0,1.0,-0.0430956298828,-0.598550451572,10.3094323486,1.0,0.0,0.0,0.0,1.0,0.0,0.0,0.0,1.0
1464075797285539620,540,1464075797183681924,,5.4067158699,-4.55179214478,141.377029419,0.00122800003737,1.0,0.0,0.0,0.0,1.0,0.0,0.0,0.0,1.0,-0.609756112099,3.41463422775,-0.12195122242,1.0,0.0,0.0,0.0,1.0,0.0,0.0,0.0,1.0,-0.138863696289,-0.641646044922,10.2471831055,1.0,0.0,0.0,0.0,1.0,0.0,0.0,0.0,1.0
1464075797285838317,541,1464075797204556660,,5.43630599976,-4.55318880081,141.369430542,0.00258599990048,1.0,0.0,0.0,0.0,1.0,0.0,0.0,0.0,1.0,-0.487804889679,2.98780488968,0.0,1.0,0.0,0.0,0.0,1.0,0.0,0.0,0.0,1.0,-0.387860668945,-0.675164868164,10.1370498291,1.0,0.0,0.0,0.0,1.0,0.0,0.0,0.0,1.0
1464075797290832053,542,1464075797225371864,,5.46393013,-4.55949211121,141.357910156,0.00251300004311,1.0,0.0,0.0,0.0,1.0,0.0,0.0,0.0,1.0,-0.609756112099,2.5,-0.548780500889,1.0,0.0,0.0,0.0,1.0,0.0,0.0,0.0,1.0,-0.368707055664,-0.684741674805,10.0652237793,1.0,0.0,0.0,0.0,1.0,0.0,0.0,0.0,1.0
1464075797291205802,543,1464075797246497433,,5.47638988495,-4.55491065979,141.354675293,0.00125900004059,1.0,0.0,0.0,0.0,1.0,0.0,0.0,0.0,1.0,-0.548780500889,1.52439022064,0.18292683363,1.0,0.0,0.0,0.0,1.0,0.0,0.0,0.0,1.0,-0.344765039063,-0.584185168546,10.2950671387,1.0,0.0,0.0,0.0,1.0,0.0,0.0,0.0,1.0
1464075797291499343,544,1464075797267372220,,5.45789957047,-4.54643392563,141.361099243,0.00124799995683,1.0,0.0,0.0,0.0,1.0,0.0,0.0,0.0,1.0,-0.426829278469,1.09756100178,0.426829278469,1.0,0.0,0.0,0.0,1.0,0.0,0.0,0.0,1.0,-0.138863696289,-0.636857641602,10.1945106689,1.0,0.0,0.0,0.0,1.0,0.0,0.0,0.0,1.0
1464075797419657906,545,1464075797288444976,,5.42531824112,-4.54608488083,141.363739014,0.00123499997426,1.0,0.0,0.0,0.0,1.0,0.0,0.0,0.0,1.0,-0.304878056049,1.2195122242,0.0609756112099,1.0,0.0,0.0,0.0,1.0,0.0,0.0,0.0,1.0,-0.0335188255255,-0.732625708008,10.285490332,1.0,0.0,0.0,0.0,1.0,0.0,0.0,0.0,1.0
1464075797419927645,546,1464075797308881797,,5.40101194382,-4.54945230484,141.363388062,0.00129199994262,1.0,0.0,0.0,0.0,1.0,0.0,0.0,0.0,1.0,-0.365853667259,1.52439022064,0.12195122242,1.0,0.0,0.0,0.0,1.0,0.0,0.0,0.0,1.0,-0.229843359375,-0.708683691406,10.4435076416,1.0,0.0,0.0,0.0,1.0,0.0,0.0,0.0,1.0
1464075797420221758,547,1464075797330022261,,5.38980197906,-4.54490756989,141.362670898,0.00154299999122,1.0,0.0,0.0,0.0,1.0,0.0,0.0,0.0,1.0,-0.243902444839,1.46341466904,0.12195122242,1.0,0.0,0.0,0.0,1.0,0.0,0.0,0.0,1.0,-0.244208569336,-0.598550451572,10.1897222656,1.0,0.0,0.0,0.0,1.0,0.0,0.0,0.0,1.0
1464075797421982743,548,1464075797350995902,,5.37947702408,-4.54395771027,141.363525391,0.00122800003737,1.0,0.0,0.0,0.0,1.0,0.0,0.0,0.0,1.0,-0.670731723309,1.58536589146,0.243902444839,1.0,0.0,0.0,0.0,1.0,0.0,0.0,0.0,1.0,-0.162805712891,-0.694318481445,10.1322614258,1.0,0.0,0.0,0.0,1.0,0.0,0.0,0.0,1.0
1464075797422301440,549,1464075797371979544,,5.36179637909,-4.53929233551,141.366943359,0.00117800000589,1.0,0.0,0.0,0.0,1.0,0.0,0.0,0.0,1.0,-0.487804889679,1.58536589146,0.18292683363,1.0,0.0,0.0,0.0,1.0,0.0,0.0,0.0,1.0,-0.0335188255255,-0.541089611728,10.2136642822,1.0,0.0,0.0,0.0,1.0,0.0,0.0,0.0,1.0
1464075797422588835,550,1464075797392578708,,5.33643245697,-4.5292506218,141.365203857,0.00120199995581,1.0,0.0,0.0,0.0,1.0,0.0,0.0,0.0,1.0,-0.426829278469,2.19512200356,-0.0609756112099,1.0,0.0,0.0,0.0,1.0,0.0,0.0,0.0,1.0,-0.067037651051,-0.641646044922,10.3046439453,1.0,0.0,0.0,0.0,1.0,0.0,0.0,0.0,1.0
1464075797475626037,551,1464075797413882244,,5.3310251236,-4.52440357208,141.360198975,0.0012309999438,1.0,0.0,0.0,0.0,1.0,0.0,0.0,0.0,1.0,-0.548780500889,2.80487799644,-0.0609756112099,1.0,0.0,0.0,0.0,1.0,0.0,0.0,0.0,1.0,-0.0622492431641,-0.588973571866,10.2136642822,1.0,0.0,0.0,0.0,1.0,0.0,0.0,0.0,1.0
1464075797475931401,552,1464075797434360106,,5.3481426239,-4.52395200729,141.354324341,0.0012379999971,1.0,0.0,0.0,0.0,1.0,0.0,0.0,0.0,1.0,-0.975609779358,2.86585378647,-0.0609756112099,1.0,0.0,0.0,0.0,1.0,0.0,0.0,0.0,1.0,-0.258573779297,-0.646434448242,10.1562034424,1.0,0.0,0.0,0.0,1.0,0.0,0.0,0.0,1.0
1464075797522431641,553,1464075797455296560,,5.37402057648,-4.52867507935,141.348953247,0.00126499996986,1.0,0.0,0.0,0.0,1.0,0.0,0.0,0.0,1.0,-0.426829278469,2.74390244484,0.0609756112099,1.0,0.0,0.0,0.0,1.0,0.0,0.0,0.0,1.0,-0.339976635742,-0.651222851562,10.1897222656,1.0,0.0,0.0,0.0,1.0,0.0,0.0,0.0,1.0
1464075797522695025,554,1464075797476442076,,5.38502788544,-4.53048276901,141.3487854,0.00124400004279,1.0,0.0,0.0,0.0,1.0,0.0,0.0,0.0,1.0,-0.243902444839,2.25609779358,0.548780500889,1.0,0.0,0.0,0.0,1.0,0.0,0.0,0.0,1.0,-0.15322890625,-0.703895288086,10.314220752,1.0,0.0,0.0,0.0,1.0,0.0,0.0,0.0,1.0
1464075797524075022,555,1464075797497201917,,5.38357114792,-4.52887105942,141.349899292,0.00119500001892,1.0,0.0,0.0,0.0,1.0,0.0,0.0,0.0,1.0,-0.365853667259,2.80487799644,0.18292683363,1.0,0.0,0.0,0.0,1.0,0.0,0.0,0.0,1.0,-0.138863696289,-0.61770402832,10.285490332,1.0,0.0,0.0,0.0,1.0,0.0,0.0,0.0,1.0
1464075797565956628,556,1464075797517974934,,5.3870215416,-4.52394962311,141.344848633,0.00123299995903,1.0,0.0,0.0,0.0,1.0,0.0,0.0,0.0,1.0,-0.426829278469,2.80487799644,-0.12195122242,1.0,0.0,0.0,0.0,1.0,0.0,0.0,0.0,1.0,-0.172382519531,-0.646434448242,10.2184526855,1.0,0.0,0.0,0.0,1.0,0.0,0.0,0.0,1.0
1464075797566242096,557,1464075797538785503,,5.40883111954,-4.52123117447,141.337265015,0.00129599997308,1.0,0.0,0.0,0.0,1.0,0.0,0.0,0.0,1.0,-0.548780500889,3.71951246262,0.0,1.0,0.0,0.0,0.0,1.0,0.0,0.0,0.0,1.0,-0.172382519531,-0.560243188477,10.3381627686,1.0,0.0,0.0,0.0,1.0,0.0,0.0,0.0,1.0
1464075797605092513,558,1464075797559886748,,5.44135713577,-4.51930189133,141.33039856,0.00131299998611,1.0,0.0,0.0,0.0,1.0,0.0,0.0,0.0,1.0,-0.304878056049,3.10975623131,-0.365853667259,1.0,0.0,0.0,0.0,1.0,0.0,0.0,0.0,1.0,-0.258573779297,-0.627280834961,10.2184526855,1.0,0.0,0.0,0.0,1.0,0.0,0.0,0.0,1.0
1464075797607063080,559,1464075797580907942,,5.4679517746,-4.51841592789,141.324768066,0.00115799997002,1.0,0.0,0.0,0.0,1.0,0.0,0.0,0.0,1.0,-0.365853667259,2.86585378647,0.0609756112099,1.0,0.0,0.0,0.0,1.0,0.0,0.0,0.0,1.0,-0.268150604204,-0.646434448242,10.2376062988,1.0,0.0,0.0,0.0,1.0,0.0,0.0,0.0,1.0
1464075797641011791,560,1464075797601350283,,5.48223304749,-4.51680040359,141.324157715,0.00119700003415,1.0,0.0,0.0,0.0,1.0,0.0,0.0,0.0,1.0,-0.243902444839,2.56097555161,0.365853667259,1.0,0.0,0.0,0.0,1.0,0.0,0.0,0.0,1.0,-0.239420166016,-0.622492431641,10.2328178955,1.0,0.0,0.0,0.0,1.0,0.0,0.0,0.0,1.0
1464075797643248452,561,1464075797622032936,,5.48230648041,-4.5183763504,141.322158813,0.0012150000548,1.0,0.0,0.0,0.0,1.0,0.0,0.0,0.0,1.0,-0.426829278469,2.43902444839,-0.0609756112099,1.0,0.0,0.0,0.0,1.0,0.0,0.0,0.0,1.0,-0.0814028564453,-0.684741674805,10.3094323486,1.0,0.0,0.0,0.0,1.0,0.0,0.0,0.0,1.0
1464075797680424082,562,1464075797642698870,,5.4877409935,-4.51632022858,141.318222046,0.0011340000201,1.0,0.0,0.0,0.0,1.0,0.0,0.0,0.0,1.0,-0.18292683363,2.01219511032,0.0,1.0,0.0,0.0,0.0,1.0,0.0,0.0,0.0,1.0,-0.277727392578,-0.603338854892,10.1609918457,1.0,0.0,0.0,0.0,1.0,0.0,0.0,0.0,1.0
1464075797681483245,563,1464075797663268190,,5.49363183975,-4.51321744919,141.317153931,0.00124300003517,1.0,0.0,0.0,0.0,1.0,0.0,0.0,0.0,1.0,-0.12195122242,1.8292683363,0.12195122242,1.0,0.0,0.0,0.0,1.0,0.0,0.0,0.0,1.0,-0.363918652344,-0.60812722168,10.3621047852,1.0,0.0,0.0,0.0,1.0,0.0,0.0,0.0,1.0
1464075797718291636,564,1464075797684532873,,5.49098539352,-4.50558853149,141.320022583,0.00123499997426,1.0,0.0,0.0,0.0,1.0,0.0,0.0,0.0,1.0,0.0609756112099,1.52439022064,0.426829278469,1.0,0.0,0.0,0.0,1.0,0.0,0.0,0.0,1.0,-0.244208569336,-0.536301208408,10.2950671387,1.0,0.0,0.0,0.0,1.0,0.0,0.0,0.0,1.0
1464075797718563146,565,1464075797706277137,,5.4756975174,-4.49805259705,141.319763184,0.00129799998831,1.0,0.0,0.0,0.0,1.0,0.0,0.0,0.0,1.0,-0.0609756112099,1.64634156227,0.0609756112099,1.0,0.0,0.0,0.0,1.0,0.0,0.0,0.0,1.0,-0.167594116211,-0.574608398438,10.3716815918,1.0,0.0,0.0,0.0,1.0,0.0,0.0,0.0,1.0
1464075797761846467,566,1464075797726908592,,5.45787191391,-4.49896240234,141.317260742,0.00119700003415,1.0,0.0,0.0,0.0,1.0,0.0,0.0,0.0,1.0,-0.365853667259,1.46341466904,0.426829278469,1.0,0.0,0.0,0.0,1.0,0.0,0.0,0.0,1.0,-0.181959326172,-0.636857641602,10.3477395752,1.0,0.0,0.0,0.0,1.0,0.0,0.0,0.0,1.0
1464075797762247091,567,1464075797749510146,,5.44410800934,-4.49181699753,141.317749023,0.00124699994922,1.0,0.0,0.0,0.0,1.0,0.0,0.0,0.0,1.0,-0.487804889679,1.70731711388,0.304878056049,1.0,0.0,0.0,0.0,1.0,0.0,0.0,0.0,1.0,-0.119710083008,-0.545877978516,10.3094323486,1.0,0.0,0.0,0.0,1.0,0.0,0.0,0.0,1.0
1464075797798690379,568,1464075797768742438,,5.43234682083,-4.48727798462,141.319366455,0.00124899996445,1.0,0.0,0.0,0.0,1.0,0.0,0.0,0.0,1.0,-0.0609756112099,2.25609779358,0.365853667259,1.0,0.0,0.0,0.0,1.0,0.0,0.0,0.0,1.0,-0.162805712891,-0.703895288086,10.2902787354,1.0,0.0,0.0,0.0,1.0,0.0,0.0,0.0,1.0
1464075797798733816,569,1464075797790038996,,5.42736196518,-4.48224449158,141.318389893,0.00126799999271,1.0,0.0,0.0,0.0,1.0,0.0,0.0,0.0,1.0,-0.487804889679,2.01219511032,0.0609756112099,1.0,0.0,0.0,0.0,1.0,0.0,0.0,0.0,1.0,-0.138863696289,-0.61770402832,10.2711251221,1.0,0.0,0.0,0.0,1.0,0.0,0.0,0.0,1.0
1464075797841175682,570,1464075797810504722,,5.42473125458,-4.48083019257,141.313949585,0.00120699999388,1.0,0.0,0.0,0.0,1.0,0.0,0.0,0.0,1.0,-0.670731723309,2.25609779358,-0.12195122242,1.0,0.0,0.0,0.0,1.0,0.0,0.0,0.0,1.0,-0.201112939453,-0.651222851562,10.2040874756,1.0,0.0,0.0,0.0,1.0,0.0,0.0,0.0,1.0
1464075797841221723,571,1464075797831055813,,5.42487430573,-4.47779989243,141.313354492,0.00120900000911,1.0,0.0,0.0,0.0,1.0,0.0,0.0,0.0,1.0,-0.304878056049,2.19512200356,0.18292683363,1.0,0.0,0.0,0.0,1.0,0.0,0.0,0.0,1.0,-0.15322890625,-0.550666381836,10.2136642822,1.0,0.0,0.0,0.0,1.0,0.0,0.0,0.0,1.0
1464075797882872757,572,1464075797861975678,,5.41657018661,-4.47607088089,141.307556152,0.00929700024426,1.0,0.0,0.0,0.0,1.0,0.0,0.0,0.0,1.0,-0.304878056049,2.5,-0.12195122242,1.0,0.0,0.0,0.0,1.0,0.0,0.0,0.0,1.0,-0.0909796630859,-0.694318481445,10.2759135254,1.0,0.0,0.0,0.0,1.0,0.0,0.0,0.0,1.0
1464075797892580283,573,1464075797885507855,,5.42971563339,-4.47239208221,141.299255371,0.0114839999005,1.0,0.0,0.0,0.0,1.0,0.0,0.0,0.0,1.0,-0.365853667259,2.92682933807,-0.18292683363,1.0,0.0,0.0,0.0,1.0,0.0,0.0,0.0,1.0,-0.225054956055,-0.588973571866,10.3285859619,1.0,0.0,0.0,0.0,1.0,0.0,0.0,0.0,1.0
1464075797903721399,574,1464075797901052396,,5.45310163498,-4.46949720383,141.291824341,0.00164699996822,1.0,0.0,0.0,0.0,1.0,0.0,0.0,0.0,1.0,-0.243902444839,2.92682933807,0.0,1.0,0.0,0.0,0.0,1.0,0.0,0.0,0.0,1.0,-0.277727392578,-0.632069238281,10.1418382324,1.0,0.0,0.0,0.0,1.0,0.0,0.0,0.0,1.0
1464075797924367021,575,1464075797921450831,,5.48128271103,-4.46518659592,141.291000366,0.00150899996515,1.0,0.0,0.0,0.0,1.0,0.0,0.0,0.0,1.0,-0.548780500889,3.04878044128,0.0609756112099,1.0,0.0,0.0,0.0,1.0,0.0,0.0,0.0,1.0,-0.234631762695,-0.684741674805,10.4004120117,1.0,0.0,0.0,0.0,1.0,0.0,0.0,0.0,1.0
1464075797944768894,576,1464075797942150723,,5.49564504623,-4.46357822418,141.290557861,0.00162600004114,1.0,0.0,0.0,0.0,1.0,0.0,0.0,0.0,1.0,-0.609756112099,2.86585378647,0.243902444839,1.0,0.0,0.0,0.0,1.0,0.0,0.0,0.0,1.0,-0.105344873047,-0.550666381836,10.3285859619,1.0,0.0,0.0,0.0,1.0,0.0,0.0,0.0,1.0
1464075797964563007,577,1464075797962793429,,5.50615644455,-4.46124076843,141.290298462,0.00172599998768,1.0,0.0,0.0,0.0,1.0,0.0,0.0,0.0,1.0,-0.853658556938,2.92682933807,0.304878056049,1.0,0.0,0.0,0.0,1.0,0.0,0.0,0.0,1.0,-0.205901342773,-0.593762048251,10.2902787354,1.0,0.0,0.0,0.0,1.0,0.0,0.0,0.0,1.0
1464075797985884512,578,1464075797983559987,,5.52463293076,-4.4621887207,141.282348633,0.00139400002081,1.0,0.0,0.0,0.0,1.0,0.0,0.0,0.0,1.0,-0.670731723309,3.04878044128,-0.18292683363,1.0,0.0,0.0,0.0,1.0,0.0,0.0,0.0,1.0,-0.3064578125,-0.670376464844,10.3190091553,1.0,0.0,0.0,0.0,1.0,0.0,0.0,0.0,1.0
1464075798005740709,579,1464075798003898266,,5.54801082611,-4.46873140335,141.27684021,0.00199300004169,1.0,0.0,0.0,0.0,1.0,0.0,0.0,0.0,1.0,-0.426829278469,2.86585378647,0.0609756112099,1.0,0.0,0.0,0.0,1.0,0.0,0.0,0.0,1.0,-0.31124621582,-0.612915625,10.1274730225,1.0,0.0,0.0,0.0,1.0,0.0,0.0,0.0,1.0
1464075798064164823,580,1464075798030884183,,5.56300020218,-4.4671587944,141.281097412,0.00269100000151,1.0,0.0,0.0,0.0,1.0,0.0,0.0,0.0,1.0,-0.304878056049,2.5,0.426829278469,1.0,0.0,0.0,0.0,1.0,0.0,0.0,0.0,1.0,-0.272938989258,-0.622492431641,10.3190091553,1.0,0.0,0.0,0.0,1.0,0.0,0.0,0.0,1.0
1464075798065274872,581,1464075798045504040,,5.56791830063,-4.46864175797,141.282821655,0.00134600000456,1.0,0.0,0.0,0.0,1.0,0.0,0.0,0.0,1.0,-0.18292683363,2.5,0.304878056049,1.0,0.0,0.0,0.0,1.0,0.0,0.0,0.0,1.0,-0.196324536133,-0.603338854892,10.2615483154,1.0,0.0,0.0,0.0,1.0,0.0,0.0,0.0,1.0
1464075798113701097,582,1464075798066531744,,5.56568145752,-4.46460819244,141.280715942,0.0014309999533,1.0,0.0,0.0,0.0,1.0,0.0,0.0,0.0,1.0,-0.670731723309,2.68292689323,0.0609756112099,1.0,0.0,0.0,0.0,1.0,0.0,0.0,0.0,1.0,-0.0861912597656,-0.61770402832,10.285490332,1.0,0.0,0.0,0.0,1.0,0.0,0.0,0.0,1.0
1464075798113744065,583,1464075798087054658,,5.57460784912,-4.46153354645,141.273223877,0.00121200003196,1.0,0.0,0.0,0.0,1.0,0.0,0.0,0.0,1.0,-0.548780500889,2.62195134163,-0.426829278469,1.0,0.0,0.0,0.0,1.0,0.0,0.0,0.0,1.0,-0.215478149414,-0.60812722168,10.2759135254,1.0,0.0,0.0,0.0,1.0,0.0,0.0,0.0,1.0
1464075798114311251,584,1464075798108088664,,5.59034156799,-4.46169042587,141.267837524,0.00146900000982,1.0,0.0,0.0,0.0,1.0,0.0,0.0,0.0,1.0,-0.487804889679,2.80487799644,0.0609756112099,1.0,0.0,0.0,0.0,1.0,0.0,0.0,0.0,1.0,-0.335188232422,-0.632069238281,10.2567599121,1.0,0.0,0.0,0.0,1.0,0.0,0.0,0.0,1.0
1464075798164331690,585,1464075798129720273,,5.6060051918,-4.45602750778,141.266418457,0.0015419999836,1.0,0.0,0.0,0.0,1.0,0.0,0.0,0.0,1.0,-0.12195122242,2.74390244484,0.18292683363,1.0,0.0,0.0,0.0,1.0,0.0,0.0,0.0,1.0,-0.225054956055,-0.665588061523,10.285490332,1.0,0.0,0.0,0.0,1.0,0.0,0.0,0.0,1.0
1464075798164729866,586,1464075798151035528,,5.61812543869,-4.45139408112,141.267776489,0.00227700010873,1.0,0.0,0.0,0.0,1.0,0.0,0.0,0.0,1.0,-0.304878056049,2.98780488968,0.0,1.0,0.0,0.0,0.0,1.0,0.0,0.0,0.0,1.0,-0.229843359375,-0.61770402832,10.2040874756,1.0,0.0,0.0,0.0,1.0,0.0,0.0,0.0,1.0
1464075798201109404,587,1464075798173416093,,5.63687896729,-4.45044326782,141.262405396,0.00205600005575,1.0,0.0,0.0,0.0,1.0,0.0,0.0,0.0,1.0,-0.426829278469,2.92682933807,-0.12195122242,1.0,0.0,0.0,0.0,1.0,0.0,0.0,0.0,1.0,-0.31124621582,-0.646434448242,10.2902787354,1.0,0.0,0.0,0.0,1.0,0.0,0.0,0.0,1.0
1464075798201510497,588,1464075798193680726,,5.65208625793,-4.45113754272,141.259963989,0.00192800001241,1.0,0.0,0.0,0.0,1.0,0.0,0.0,0.0,1.0,-0.609756112099,2.5,0.12195122242,1.0,0.0,0.0,0.0,1.0,0.0,0.0,0.0,1.0,-0.31124621582,-0.536301208408,10.1609918457,1.0,0.0,0.0,0.0,1.0,0.0,0.0,0.0,1.0
1464075798249249379,589,1464075798215622230,,5.66639328003,-4.45217418671,141.256378174,0.00160199997481,1.0,0.0,0.0,0.0,1.0,0.0,0.0,0.0,1.0,-0.670731723309,2.07317066193,-0.0609756112099,1.0,0.0,0.0,0.0,1.0,0.0,0.0,0.0,1.0,-0.325611425781,-0.622492431641,10.2519715088,1.0,0.0,0.0,0.0,1.0,0.0,0.0,0.0,1.0
1464075798249780576,590,1464075798236666965,,5.67323923111,-4.45532417297,141.253509521,0.0020530000329,1.0,0.0,0.0,0.0,1.0,0.0,0.0,0.0,1.0,-0.304878056049,1.2804877758,0.243902444839,1.0,0.0,0.0,0.0,1.0,0.0,0.0,0.0,1.0,-0.46447512207,-0.612915625,10.2184526855,1.0,0.0,0.0,0.0,1.0,0.0,0.0,0.0,1.0
1464075798286290947,591,1464075798265861574,,5.65792226791,-4.4590883255,141.256286621,0.00162800005637,1.0,0.0,0.0,0.0,1.0,0.0,0.0,0.0,1.0,-0.243902444839,0.975609779358,0.304878056049,1.0,0.0,0.0,0.0,1.0,0.0,0.0,0.0,1.0,-0.263362164351,-0.670376464844,10.2615483154,1.0,0.0,0.0,0.0,1.0,0.0,0.0,0.0,1.0
1464075798286659643,592,1464075798279222893,,5.62847709656,-4.4585981369,141.258148193,0.0019349999493,1.0,0.0,0.0,0.0,1.0,0.0,0.0,0.0,1.0,-0.670731723309,0.609756112099,0.18292683363,1.0,0.0,0.0,0.0,1.0,0.0,0.0,0.0,1.0,-0.253785375977,-0.622492431641,10.3237975586,1.0,0.0,0.0,0.0,1.0,0.0,0.0,0.0,1.0
1464075798350954731,593,1464075798302001634,,5.59714031219,-4.4546122551,141.255874634,0.00277799996547,1.0,0.0,0.0,0.0,1.0,0.0,0.0,0.0,1.0,-0.304878056049,0.670731723309,-0.304878056049,1.0,0.0,0.0,0.0,1.0,0.0,0.0,0.0,1.0,-0.282515795898,-0.579396801758,10.2088758789,1.0,0.0,0.0,0.0,1.0,0.0,0.0,0.0,1.0
1464075798351835979,594,1464075798323404701,,5.56952953339,-4.45115375519,141.258041382,0.00151400000323,1.0,0.0,0.0,0.0,1.0,0.0,0.0,0.0,1.0,-0.304878056049,-0.0609756112099,0.12195122242,1.0,0.0,0.0,0.0,1.0,0.0,0.0,0.0,1.0,-0.3064578125,-0.612915625,10.2423947021,1.0,0.0,0.0,0.0,1.0,0.0,0.0,0.0,1.0
1464075798351889781,595,1464075798344693238,,5.52559518814,-4.44463062286,141.268569946,0.00161899998784,1.0,0.0,0.0,0.0,1.0,0.0,0.0,0.0,1.0,0.0609756112099,0.0,0.365853667259,1.0,0.0,0.0,0.0,1.0,0.0,0.0,0.0,1.0,-0.129286889648,-0.593762048251,10.2328178955,1.0,0.0,0.0,0.0,1.0,0.0,0.0,0.0,1.0
1464075798424449899,596,1464075798366193284,,5.4646935463,-4.43555212021,141.275680542,0.00188500003424,1.0,0.0,0.0,0.0,1.0,0.0,0.0,0.0,1.0,-0.18292683363,0.243902444839,-0.12195122242,1.0,0.0,0.0,0.0,1.0,0.0,0.0,0.0,1.0,-0.0191536132812,-0.632069238281,10.3956236084,1.0,0.0,0.0,0.0,1.0,0.0,0.0,0.0,1.0
1464075798425009689,597,1464075798390652438,,5.40798950195,-4.4336771965,141.272567749,0.00190000003204,1.0,0.0,0.0,0.0,1.0,0.0,0.0,0.0,1.0,-0.0609756112099,0.609756112099,-0.365853667259,1.0,0.0,0.0,0.0,1.0,0.0,0.0,0.0,1.0,-0.0239420166016,-0.632069238281,10.2519715088,1.0,0.0,0.0,0.0,1.0,0.0,0.0,0.0,1.0
1464075798425458073,598,1464075798408701452,,5.38107681274,-4.43315982819,141.267181396,0.00169599999208,1.0,0.0,0.0,0.0,1.0,0.0,0.0,0.0,1.0,-0.243902444839,1.46341466904,-0.0609756112099,1.0,0.0,0.0,0.0,1.0,0.0,0.0,0.0,1.0,-0.186747729492,-0.646434448242,10.2423947021,1.0,0.0,0.0,0.0,1.0,0.0,0.0,0.0,1.0
1464075798443855003,599,1464075798431073215,,5.37008142471,-4.4290599823,141.264801025,0.00187399995048,1.0,0.0,0.0,0.0,1.0,0.0,0.0,0.0,1.0,-0.243902444839,1.76829278469,0.365853667259,1.0,0.0,0.0,0.0,1.0,0.0,0.0,0.0,1.0,-0.114921679688,-0.560243188477,10.2088758789,1.0,0.0,0.0,0.0,1.0,0.0,0.0,0.0,1.0
1464075798464945363,600,1464075798451866753,,5.35812520981,-4.42500734329,141.263977051,0.00287800002843,1.0,0.0,0.0,0.0,1.0,0.0,0.0,0.0,1.0,-0.365853667259,2.19512200356,-0.0609756112099,1.0,0.0,0.0,0.0,1.0,0.0,0.0,0.0,1.0,-0.0861912597656,-0.560243188477,10.285490332,1.0,0.0,0.0,0.0,1.0,0.0,0.0,0.0,1.0
1464075798478614650,601,1464075798472631176,,5.34898853302,-4.41911506653,141.26159668,0.00244900002144,1.0,0.0,0.0,0.0,1.0,0.0,0.0,0.0,1.0,-0.609756112099,2.37804889679,-0.0609756112099,1.0,0.0,0.0,0.0,1.0,0.0,0.0,0.0,1.0,-0.067037651051,-0.627280834961,10.1945106689,1.0,0.0,0.0,0.0,1.0,0.0,0.0,0.0,1.0
1464075798501551880,602,1464075798493517630,,5.35286045074,-4.41995286942,141.256011963,0.00188300001901,1.0,0.0,0.0,0.0,1.0,0.0,0.0,0.0,1.0,-0.548780500889,3.10975623131,-0.0609756112099,1.0,0.0,0.0,0.0,1.0,0.0,0.0,0.0,1.0,-0.0814028564453,-0.651222851562,10.2759135254,1.0,0.0,0.0,0.0,1.0,0.0,0.0,0.0,1.0
1464075798520848391,603,1464075798514890906,,5.36901330948,-4.42269706726,141.250152588,0.00152799999341,1.0,0.0,0.0,0.0,1.0,0.0,0.0,0.0,1.0,-0.426829278469,3.41463422775,-0.0609756112099,1.0,0.0,0.0,0.0,1.0,0.0,0.0,0.0,1.0,-0.244208569336,-0.684741674805,10.3190091553,1.0,0.0,0.0,0.0,1.0,0.0,0.0,0.0,1.0
1464075798541522241,604,1464075798537013660,,5.40046262741,-4.42436790466,141.24446106,0.00206300010905,1.0,0.0,0.0,0.0,1.0,0.0,0.0,0.0,1.0,-0.609756112099,3.41463422775,-0.18292683363,1.0,0.0,0.0,0.0,1.0,0.0,0.0,0.0,1.0,-0.191536132812,-0.612915625,10.1514150391,1.0,0.0,0.0,0.0,1.0,0.0,0.0,0.0,1.0
1464075798602281505,605,1464075798559690630,,5.43046998978,-4.42621660233,141.241149902,0.00180199998431,1.0,0.0,0.0,0.0,1.0,0.0,0.0,0.0,1.0,-0.243902444839,3.23170733452,0.18292683363,1.0,0.0,0.0,0.0,1.0,0.0,0.0,0.0,1.0,-0.244208569336,-0.622492431641,10.1562034424,1.0,0.0,0.0,0.0,1.0,0.0,0.0,0.0,1.0
1464075798602351974,606,1464075798581203437,,5.45103216171,-4.42929267883,141.2368927,0.00215100008063,1.0,0.0,0.0,0.0,1.0,0.0,0.0,0.0,1.0,-0.792682945728,2.5,-0.304878056049,1.0,0.0,0.0,0.0,1.0,0.0,0.0,0.0,1.0,-0.258573779297,-0.603338854892,10.1370498291,1.0,0.0,0.0,0.0,1.0,0.0,0.0,0.0,1.0
1464075798676290630,607,1464075798601609789,,5.45829343796,-4.4308848381,141.232330322,0.00263900007121,1.0,0.0,0.0,0.0,1.0,0.0,0.0,0.0,1.0,-0.548780500889,2.07317066193,-0.0609756112099,1.0,0.0,0.0,0.0,1.0,0.0,0.0,0.0,1.0,-0.220266552734,-0.651222851562,10.2376062988,1.0,0.0,0.0,0.0,1.0,0.0,0.0,0.0,1.0
1464075798676344171,608,1464075798623597907,,5.46176671982,-4.43136358261,141.229827881,0.00174099998549,1.0,0.0,0.0,0.0,1.0,0.0,0.0,0.0,1.0,-0.548780500889,2.01219511032,0.0609756112099,1.0,0.0,0.0,0.0,1.0,0.0,0.0,0.0,1.0,-0.287304199219,-0.670376464844,10.2950671387,1.0,0.0,0.0,0.0,1.0,0.0,0.0,0.0,1.0
1464075798676618546,609,1464075798644863787,,5.45890665054,-4.4284734726,141.230819702,0.00119900004938,1.0,0.0,0.0,0.0,1.0,0.0,0.0,0.0,1.0,-0.243902444839,1.95121955872,0.0609756112099,1.0,0.0,0.0,0.0,1.0,0.0,0.0,0.0,1.0,-0.268150604204,-0.588973571866,10.2040874756,1.0,0.0,0.0,0.0,1.0,0.0,0.0,0.0,1.0
1464075798676673233,610,1464075798665610607,,5.45401573181,-4.42909097672,141.229034424,0.00181699998211,1.0,0.0,0.0,0.0,1.0,0.0,0.0,0.0,1.0,-0.487804889679,2.07317066193,0.0609756112099,1.0,0.0,0.0,0.0,1.0,0.0,0.0,0.0,1.0,-0.067037651051,-0.588973571866,10.3477395752,1.0,0.0,0.0,0.0,1.0,0.0,0.0,0.0,1.0
1464075798789530535,611,1464075798688028880,,5.45785617828,-4.42145967484,141.224380493,0.00200000009499,1.0,0.0,0.0,0.0,1.0,0.0,0.0,0.0,1.0,-0.365853667259,2.31707310677,0.0,1.0,0.0,0.0,0.0,1.0,0.0,0.0,0.0,1.0,-0.234631762695,-0.593762048251,10.165780249,1.0,0.0,0.0,0.0,1.0,0.0,0.0,0.0,1.0
1464075798789595378,612,1464075798711112985,,5.45804786682,-4.41520500183,141.219192505,0.00258699990809,1.0,0.0,0.0,0.0,1.0,0.0,0.0,0.0,1.0,-0.426829278469,2.01219511032,-0.243902444839,1.0,0.0,0.0,0.0,1.0,0.0,0.0,0.0,1.0,-0.277727392578,-0.627280834961,10.3333743652,1.0,0.0,0.0,0.0,1.0,0.0,0.0,0.0,1.0
1464075798789997200,613,1464075798732940582,,5.45210790634,-4.4104347229,141.221374512,0.00344499992207,1.0,0.0,0.0,0.0,1.0,0.0,0.0,0.0,1.0,-0.365853667259,1.64634156227,0.18292683363,1.0,0.0,0.0,0.0,1.0,0.0,0.0,0.0,1.0,-0.229843359375,-0.670376464844,10.2711251221,1.0,0.0,0.0,0.0,1.0,0.0,0.0,0.0,1.0
1464075798790046054,614,1464075798754203494,,5.44228172302,-4.41373252869,141.223419189,0.00302399997599,1.0,0.0,0.0,0.0,1.0,0.0,0.0,0.0,1.0,-0.487804889679,2.01219511032,0.12195122242,1.0,0.0,0.0,0.0,1.0,0.0,0.0,0.0,1.0,-0.0909796630859,-0.665588061523,10.2376062988,1.0,0.0,0.0,0.0,1.0,0.0,0.0,0.0,1.0
1464075798790455584,615,1464075798774773335,,5.43394851685,-4.41540193558,141.220199585,0.00157800002489,1.0,0.0,0.0,0.0,1.0,0.0,0.0,0.0,1.0,-0.365853667259,2.31707310677,-0.18292683363,1.0,0.0,0.0,0.0,1.0,0.0,0.0,0.0,1.0,-0.0718260498047,-0.584185168546,10.2807019287,1.0,0.0,0.0,0.0,1.0,0.0,0.0,0.0,1.0
1464075799101023033,616,1464075798797347285,,5.43935441971,-4.41107130051,141.209747314,0.00195800000802,1.0,0.0,0.0,0.0,1.0,0.0,0.0,0.0,1.0,-0.12195122242,2.25609779358,0.0,1.0,0.0,0.0,0.0,1.0,0.0,0.0,0.0,1.0,-0.244208569336,-0.560243188477,10.2759135254,1.0,0.0,0.0,0.0,1.0,0.0,0.0,0.0,1.0
1464075799101065220,617,1464075798818676082,,5.45002841949,-4.40860891342,141.21182251,0.00158699997701,1.0,0.0,0.0,0.0,1.0,0.0,0.0,0.0,1.0,-0.12195122242,2.13414645195,0.426829278469,1.0,0.0,0.0,0.0,1.0,0.0,0.0,0.0,1.0,-0.31124621582,-0.593762048251,10.3668931885,1.0,0.0,0.0,0.0,1.0,0.0,0.0,0.0,1.0
1464075799101108293,618,1464075798840950866,,5.43478393555,-4.40553998947,141.216156006,0.00175499997567,1.0,0.0,0.0,0.0,1.0,0.0,0.0,0.0,1.0,-0.548780500889,1.2195122242,0.12195122242,1.0,0.0,0.0,0.0,1.0,0.0,0.0,0.0,1.0,-0.0718260498047,-0.569819995117,10.165780249,1.0,0.0,0.0,0.0,1.0,0.0,0.0,0.0,1.0
1464075799101159751,619,1464075798861192634,,5.41128444672,-4.39767885208,141.215209961,0.0024530000519,1.0,0.0,0.0,0.0,1.0,0.0,0.0,0.0,1.0,-0.18292683363,1.76829278469,0.0609756112099,1.0,0.0,0.0,0.0,1.0,0.0,0.0,0.0,1.0,-0.124498486328,-0.61770402832,10.3381627686,1.0,0.0,0.0,0.0,1.0,0.0,0.0,0.0,1.0
1464075799101195428,620,1464075798882825857,,5.40694284439,-4.402384758,141.208236694,0.00141400005668,1.0,0.0,0.0,0.0,1.0,0.0,0.0,0.0,1.0,-0.0609756112099,2.56097555161,-0.243902444839,1.0,0.0,0.0,0.0,1.0,0.0,0.0,0.0,1.0,-0.215478149414,-0.651222851562,10.2519715088,1.0,0.0,0.0,0.0,1.0,0.0,0.0,0.0,1.0
1464075799101233501,621,1464075798904347102,,5.41665935516,-4.4051027298,141.204559326,0.00646999990568,1.0,0.0,0.0,0.0,1.0,0.0,0.0,0.0,1.0,-0.365853667259,2.62195134163,0.18292683363,1.0,0.0,0.0,0.0,1.0,0.0,0.0,0.0,1.0,-0.239420166016,-0.708683691406,10.1753570557,1.0,0.0,0.0,0.0,1.0,0.0,0.0,0.0,1.0
1464075799101269126,622,1464075798924374965,,5.42901325226,-4.40370035172,141.202529907,0.00148400000762,1.0,0.0,0.0,0.0,1.0,0.0,0.0,0.0,1.0,-0.487804889679,2.07317066193,0.0609756112099,1.0,0.0,0.0,0.0,1.0,0.0,0.0,0.0,1.0,-0.325611425781,-0.670376464844,10.2136642822,1.0,0.0,0.0,0.0,1.0,0.0,0.0,0.0,1.0
1464075799101304230,623,1464075798945153086,,5.43097400665,-4.39749574661,141.199768066,0.00144999998156,1.0,0.0,0.0,0.0,1.0,0.0,0.0,0.0,1.0,-0.243902444839,2.01219511032,0.0609756112099,1.0,0.0,0.0,0.0,1.0,0.0,0.0,0.0,1.0,-0.196324536133,-0.584185168546,10.2615483154,1.0,0.0,0.0,0.0,1.0,0.0,0.0,0.0,1.0
1464075799101339646,624,1464075798966025166,,5.42264890671,-4.38581037521,141.200546265,0.00139700004365,1.0,0.0,0.0,0.0,1.0,0.0,0.0,0.0,1.0,-0.365853667259,1.15853655338,0.243902444839,1.0,0.0,0.0,0.0,1.0,0.0,0.0,0.0,1.0,-0.186747729492,-0.579396801758,10.2184526855,1.0,0.0,0.0,0.0,1.0,0.0,0.0,0.0,1.0
1464075799101376209,625,1464075798988514845,,5.40460777283,-4.38692092896,141.20451355,0.00133700005244,1.0,0.0,0.0,0.0,1.0,0.0,0.0,0.0,1.0,-0.365853667259,1.03658533096,0.304878056049,1.0,0.0,0.0,0.0,1.0,0.0,0.0,0.0,1.0,-0.15322890625,-0.641646044922,10.1753570557,1.0,0.0,0.0,0.0,1.0,0.0,0.0,0.0,1.0
1464075799101413032,626,1464075799008518229,,5.37961006165,-4.39193201065,141.206344604,0.00137700000778,1.0,0.0,0.0,0.0,1.0,0.0,0.0,0.0,1.0,0.0,0.914634168148,0.0609756112099,1.0,0.0,0.0,0.0,1.0,0.0,0.0,0.0,1.0,-0.138863696289,-0.727837304687,10.2088758789,1.0,0.0,0.0,0.0,1.0,0.0,0.0,0.0,1.0
