%time,field.header.seq,field.header.stamp,field.header.frame_id,field.orientation.x,field.orientation.y,field.orientation.z,field.orientation.w,field.orientation_covariance0,field.orientation_covariance1,field.orientation_covariance2,field.orientation_covariance3,field.orientation_covariance4,field.orientation_covariance5,field.orientation_covariance6,field.orientation_covariance7,field.orientation_covariance8,field.angular_velocity.x,field.angular_velocity.y,field.angular_velocity.z,field.angular_velocity_covariance0,field.angular_velocity_covariance1,field.angular_velocity_covariance2,field.angular_velocity_covariance3,field.angular_velocity_covariance4,field.angular_velocity_covariance5,field.angular_velocity_covariance6,field.angular_velocity_covariance7,field.angular_velocity_covariance8,field.linear_acceleration.x,field.linear_acceleration.y,field.linear_acceleration.z,field.linear_acceleration_covariance0,field.linear_acceleration_covariance1,field.linear_acceleration_covariance2,field.linear_acceleration_covariance3,field.linear_acceleration_covariance4,field.linear_acceleration_covariance5,field.linear_acceleration_covariance6,field.linear_acceleration_covariance7,field.linear_acceleration_covariance8
1446040279384727681,636,1446040279320368051,robocape,18.089277949,16.2578747696,-10.6759607956,0.0,10.0,0.0,0.0,0.0,10.0,0.0,0.0,0.0,10.0,0.0624511275624,0.0159789665405,0.23622238869,1.0,0.0,0.0,0.0,1.0,0.0,0.0,0.0,1.0,-7.45809082031,2.42256225586,11.7643359375,0.1,0.0,0.0,0.0,0.1,0.0,0.0,0.0,0.1
1446040279385492848,637,1446040279378731966,robocape,18.1266031538,15.8182807883,-10.3218208386,0.0,10.0,0.0,0.0,0.0,10.0,0.0,0.0,0.0,10.0,-0.0165115987585,-0.152332814353,0.231029224564,1.0,0.0,0.0,0.0,1.0,0.0,0.0,0.0,1.0,-4.87386474609,1.28612548828,9.96926879883,0.1,0.0,0.0,0.0,0.1,0.0,0.0,0.0,0.1
1446040279415236931,638,1446040279412039041,robocape,18.0763375885,15.4093292483,-10.0262931875,0.0,10.0,0.0,0.0,0.0,10.0,0.0,0.0,0.0,10.0,-0.0532632218016,-0.146740176063,0.198804975374,1.0,0.0,0.0,0.0,1.0,0.0,0.0,0.0,1.0,-0.789158935547,2.4141796875,9.39685913086,0.1,0.0,0.0,0.0,0.1,0.0,0.0,0.0,0.1
1446040279448893889,639,1446040279443165063,robocape,18.0767106948,15.1440002192,-9.61746149708,0.0,10.0,0.0,0.0,0.0,10.0,0.0,0.0,0.0,10.0,-0.0400805744057,-0.0565921731642,0.22943132791,1.0,0.0,0.0,0.0,1.0,0.0,0.0,0.0,1.0,-8.58255249023,1.47652954102,11.8457666016,0.1,0.0,0.0,0.0,0.1,0.0,0.0,0.0,0.1
1446040279495690889,640,1446040279492366075,robocape,18.0198412985,14.872731842,-9.28301088185,0.0,10.0,0.0,0.0,0.0,10.0,0.0,0.0,0.0,10.0,-0.0593884923088,-0.0716390333231,0.195342865957,1.0,0.0,0.0,0.0,1.0,0.0,0.0,0.0,1.0,2.069296875,1.7974621582,8.71906860352,0.1,0.0,0.0,0.0,0.1,0.0,0.0,0.0,0.1
1446040279525257014,641,1446040279522234916,robocape,18.0299318774,14.3994108531,-8.94298131386,0.0,10.0,0.0,0.0,0.0,10.0,0.0,0.0,0.0,10.0,-0.0256995045193,-0.172839154746,0.232360805109,1.0,0.0,0.0,0.0,1.0,0.0,0.0,0.0,1.0,-7.92152709961,-0.923280029297,12.4457189941,0.1,0.0,0.0,0.0,0.1,0.0,0.0,0.0,0.1
1446040279558768556,642,1446040279555604934,robocape,17.9980860302,12.737384411,-8.9685735909,0.0,10.0,0.0,0.0,0.0,10.0,0.0,0.0,0.0,10.0,-0.0115847507418,-0.830506785941,0.255663464648,1.0,0.0,0.0,0.0,1.0,0.0,0.0,0.0,1.0,-5.09420654297,1.65495849609,3.21651123047,0.1,0.0,0.0,0.0,0.1,0.0,0.0,0.0,0.1
1446040279600622306,643,1446040279597315073,robocape,17.8388340829,13.7057745944,-8.23004447732,0.0,10.0,0.0,0.0,0.0,10.0,0.0,0.0,0.0,10.0,-0.148604388826,0.613725473209,0.189084437396,1.0,0.0,0.0,0.0,1.0,0.0,0.0,0.0,1.0,7.08806030273,1.8741027832,10.2985839844,0.1,0.0,0.0,0.0,0.1,0.0,0.0,0.0,0.1
1446040279635807598,644,1446040279632746934,robocape,16.4490886659,15.333092138,-7.14317623219,0.0,10.0,0.0,0.0,0.0,10.0,0.0,0.0,0.0,10.0,-0.860201032096,0.985236445275,0.269511902316,1.0,0.0,0.0,0.0,1.0,0.0,0.0,0.0,1.0,-10.1872155762,-2.47166015625,18.2632214355,0.1,0.0,0.0,0.0,0.1,0.0,0.0,0.0,0.1
1446040279672352639,645,1446040279669040918,robocape,16.1590217828,14.1009167447,-6.91591160475,0.0,10.0,0.0,0.0,0.0,10.0,0.0,0.0,0.0,10.0,-0.181627586343,-0.58656123009,0.291349823255,1.0,0.0,0.0,0.0,1.0,0.0,0.0,0.0,1.0,-4.79243408203,3.67635498047,7.39342529297,0.1,0.0,0.0,0.0,0.1,0.0,0.0,0.0,0.1
1446040279703838806,646,1446040279700426101,robocape,15.6476898092,16.4878359188,-5.8677590421,0.0,10.0,0.0,0.0,0.0,10.0,0.0,0.0,0.0,10.0,-0.383228880862,1.37552270303,0.151267549917,1.0,0.0,0.0,0.0,1.0,0.0,0.0,0.0,1.0,17.8069702148,-0.649050292969,16.2538000488,0.1,0.0,0.0,0.0,0.1,0.0,0.0,0.0,0.1
1446040279734617098,647,1446040279731527090,robocape,15.1606916997,15.4101298733,-5.81453977496,0.0,10.0,0.0,0.0,0.0,10.0,0.0,0.0,0.0,10.0,-0.262188209318,-0.536493801596,0.175502315836,1.0,0.0,0.0,0.0,1.0,0.0,0.0,0.0,1.0,2.31718139648,2.30400878906,4.60682006836,0.1,0.0,0.0,0.0,0.1,0.0,0.0,0.0,0.1
1446040279767905181,648,1446040279764765977,robocape,14.5755559413,15.6037024937,-5.14033818776,0.0,10.0,0.0,0.0,0.0,10.0,0.0,0.0,0.0,10.0,-0.391351522187,0.19454391763,0.298274042089,1.0,0.0,0.0,0.0,1.0,0.0,0.0,0.0,1.0,4.59963500977,1.17475708008,9.56451049805,0.1,0.0,0.0,0.0,0.1,0.0,0.0,0.0,0.1
1446040279811048390,649,1446040279807806968,robocape,13.8722751502,15.5025783249,-4.72912976268,0.0,10.0,0.0,0.0,0.0,10.0,0.0,0.0,0.0,10.0,-0.419447871687,0.00639158661619,0.211055516389,1.0,0.0,0.0,0.0,1.0,0.0,0.0,0.0,1.0,-2.44052490234,1.06338867188,8.18976928711,0.1,0.0,0.0,0.0,0.1,0.0,0.0,0.0,0.1
1446040279844787390,650,1446040279841631889,robocape,13.0152255328,15.0662973409,-4.40591588865,0.0,10.0,0.0,0.0,0.0,10.0,0.0,0.0,0.0,10.0,-0.490953746956,-0.181627586343,0.21078920028,1.0,0.0,0.0,0.0,1.0,0.0,0.0,0.0,1.0,-2.05971679688,1.56873779297,11.3164672852,0.1,0.0,0.0,0.0,0.1,0.0,0.0,0.0,0.1
1446040279879434348,651,1446040279876050949,robocape,12.1063785183,15.0664144484,-4.08125144235,0.0,10.0,0.0,0.0,0.0,10.0,0.0,0.0,0.0,10.0,-0.514522722603,0.0422111032778,0.157659136533,1.0,0.0,0.0,0.0,1.0,0.0,0.0,0.0,1.0,-1.78668457031,2.30999633789,10.560838623,0.1,0.0,0.0,0.0,0.1,0.0,0.0,0.0,0.1
1446040279915894890,652,1446040279912733078,robocape,11.1427424901,14.8244513292,-3.88400342559,0.0,10.0,0.0,0.0,0.0,10.0,0.0,0.0,0.0,10.0,-0.527572211945,-0.0994690667145,0.121573303762,1.0,0.0,0.0,0.0,1.0,0.0,0.0,0.0,1.0,0.667012939453,1.93397827148,11.9271972656,0.1,0.0,0.0,0.0,0.1,0.0,0.0,0.0,0.1
1446040279949738306,653,1446040279946624040,robocape,9.96770354302,14.5191446241,-3.68251685446,0.0,10.0,0.0,0.0,0.0,10.0,0.0,0.0,0.0,10.0,-0.639957609946,-0.13568805754,0.128630680651,1.0,0.0,0.0,0.0,1.0,0.0,0.0,0.0,1.0,-4.59963500977,1.16397949219,9.18130737305,0.1,0.0,0.0,0.0,0.1,0.0,0.0,0.0,0.1
1446040279980915223,654,1446040279977780103,robocape,8.90535167893,13.4656911069,-3.7935356486,0.0,10.0,0.0,0.0,0.0,10.0,0.0,0.0,0.0,10.0,-0.543151704322,-0.554736455064,0.0352868844435,1.0,0.0,0.0,0.0,1.0,0.0,0.0,0.0,1.0,-8.25084228516,0.0946032714844,9.55852294922,0.1,0.0,0.0,0.0,0.1,0.0,0.0,0.0,0.1
1446040280014695556,655,1446040280011555910,robocape,7.70322184847,13.3340614657,-3.68882830445,0.0,10.0,0.0,0.0,0.0,10.0,0.0,0.0,0.0,10.0,-0.639158661619,-0.0556600667827,0.0609863889628,1.0,0.0,0.0,0.0,1.0,0.0,0.0,0.0,1.0,-4.4834765625,1.15679443359,10.7751928711,0.1,0.0,0.0,0.0,0.1,0.0,0.0,0.0,0.1
1446040280051072015,656,1446040280047928094,robocape,6.45338570994,12.7498911435,-3.76450358844,0.0,10.0,0.0,0.0,0.0,10.0,0.0,0.0,0.0,10.0,-0.64421866769,-0.30599720925,-0.00146473859954,1.0,0.0,0.0,0.0,1.0,0.0,0.0,0.0,1.0,-4.90619750977,1.33043334961,9.38009399414,0.1,0.0,0.0,0.0,0.1,0.0,0.0,0.0,0.1
1446040280084981473,657,1446040280081892013,robocape,5.25874243557,12.9358357323,-3.58717372493,0.0,10.0,0.0,0.0,0.0,10.0,0.0,0.0,0.0,10.0,-0.642753929091,0.113850136601,0.0774979877213,1.0,0.0,0.0,0.0,1.0,0.0,0.0,0.0,1.0,-0.912502441406,2.05133422852,15.2706445313,0.1,0.0,0.0,0.0,0.1,0.0,0.0,0.0,0.1
1446040280120257306,658,1446040280117031097,robocape,3.8631059378,13.0195048165,-3.68515492251,0.0,10.0,0.0,0.0,0.0,10.0,0.0,0.0,0.0,10.0,-0.71665664934,0.0475374254579,-0.0559263828917,1.0,0.0,0.0,0.0,1.0,0.0,0.0,0.0,1.0,1.81302978516,0.952020263672,10.0530944824,0.1,0.0,0.0,0.0,0.1,0.0,0.0,0.0,0.1
1446040280151472306,659,1446040280148349046,robocape,2.53615868669,12.5499421048,-3.77149915544,0.0,10.0,0.0,0.0,0.0,10.0,0.0,0.0,0.0,10.0,-0.683633451823,-0.24301344947,-0.031957933081,1.0,0.0,0.0,0.0,1.0,0.0,0.0,0.0,1.0,-4.03321289063,0.519719238281,6.91921142578,0.1,0.0,0.0,0.0,0.1,0.0,0.0,0.0,0.1
1446040280187960598,660,1446040280183567047,robocape,1.16981592147,12.7129719855,-3.98679146746,0.0,10.0,0.0,0.0,0.0,10.0,0.0,0.0,0.0,10.0,-0.689492406222,0.0918790576077,-0.116113823527,1.0,0.0,0.0,0.0,1.0,0.0,0.0,0.0,1.0,-6.04023925781,0.510139160156,9.91418334961,0.1,0.0,0.0,0.0,0.1,0.0,0.0,0.0,0.1
1446040280221201223,661,1446040280217978000,robocape,0.0426805325201,12.2706637865,-4.13844962624,0.0,10.0,0.0,0.0,0.0,10.0,0.0,0.0,0.0,10.0,-0.572712792422,-0.225436586275,-0.0774979877213,1.0,0.0,0.0,0.0,1.0,0.0,0.0,0.0,1.0,-3.09436523438,2.55788085937,13.2660131836,0.1,0.0,0.0,0.0,0.1,0.0,0.0,0.0,0.1
1446040280251104181,662,1446040280247792005,robocape,-1.25806762529,11.7987925451,-4.48296932333,0.0,10.0,0.0,0.0,0.0,10.0,0.0,0.0,0.0,10.0,-0.643952351581,-0.23768712729,-0.181893902452,1.0,0.0,0.0,0.0,1.0,0.0,0.0,0.0,1.0,-2.97461425781,0.959205322266,8.87474487305,0.1,0.0,0.0,0.0,0.1,0.0,0.0,0.0,0.1
1446040280283445973,663,1446040280280309915,robocape,-2.3325312708,11.1440322509,-4.9081294569,0.0,10.0,0.0,0.0,0.0,10.0,0.0,0.0,0.0,10.0,-0.51944957062,-0.32876723657,-0.231828172891,1.0,0.0,0.0,0.0,1.0,0.0,0.0,0.0,1.0,-10.8254882813,0.831071777344,11.1248657227,0.1,0.0,0.0,0.0,0.1,0.0,0.0,0.0,0.1
1446040280322072348,664,1446040280317925930,robocape,-3.30845866641,10.652075414,-5.40097664905,0.0,10.0,0.0,0.0,0.0,10.0,0.0,0.0,0.0,10.0,-0.464322136055,-0.236488704799,-0.269778218425,1.0,0.0,0.0,0.0,1.0,0.0,0.0,0.0,1.0,-4.19367919922,2.08127197266,8.44843139648,0.1,0.0,0.0,0.0,0.1,0.0,0.0,0.0,0.1
1446040280355376806,665,1446040280352119922,robocape,-4.19041118463,10.0797107748,-5.78916933919,0.0,10.0,0.0,0.0,0.0,10.0,0.0,0.0,0.0,10.0,-0.427969987176,-0.278167175859,-0.223306057403,1.0,0.0,0.0,0.0,1.0,0.0,0.0,0.0,1.0,5.5145324707,1.68369873047,12.4624841309,0.1,0.0,0.0,0.0,0.1,0.0,0.0,0.0,0.1
1446040280394430932,666,1446040280391205072,robocape,-5.04815863958,10.4786599149,-6.37317114659,0.0,10.0,0.0,0.0,0.0,10.0,0.0,0.0,0.0,10.0,-0.40000679573,0.24567661056,-0.290417716873,1.0,0.0,0.0,0.0,1.0,0.0,0.0,0.0,1.0,3.32189208984,0.894539794922,11.5811169434,0.1,0.0,0.0,0.0,0.1,0.0,0.0,0.0,0.1
1446040280433747640,667,1446040280430592060,robocape,-5.69435884121,10.0816864732,-6.89666697607,0.0,10.0,0.0,0.0,0.0,10.0,0.0,0.0,0.0,10.0,-0.294012984345,-0.172173364474,-0.29387982629,1.0,0.0,0.0,0.0,1.0,0.0,0.0,0.0,1.0,-4.04878051758,1.26696533203,10.8075256348,0.1,0.0,0.0,0.0,0.1,0.0,0.0,0.0,0.1
1446040280467341140,668,1446040280464271068,robocape,-6.30988885603,10.0600674453,-7.42943809775,0.0,10.0,0.0,0.0,0.0,10.0,0.0,0.0,0.0,10.0,-0.279631914458,0.0288952978274,-0.281895601385,1.0,0.0,0.0,0.0,1.0,0.0,0.0,0.0,1.0,1.46694946289,0.902922363281,9.10227172852,0.1,0.0,0.0,0.0,0.1,0.0,0.0,0.0,0.1
1446040280500823265,669,1446040280496440887,robocape,-6.83061810349,10.0899683522,-8.05444718541,0.0,10.0,0.0,0.0,0.0,10.0,0.0,0.0,0.0,10.0,-0.222373951022,0.0645816564344,-0.326903023807,1.0,0.0,0.0,0.0,1.0,0.0,0.0,0.0,1.0,-0.701740722656,0.111368408203,12.017010498,0.1,0.0,0.0,0.0,0.1,0.0,0.0,0.0,0.1
1446040280535603057,670,1446040280532155990,robocape,-7.3747361273,10.4454349352,-8.60262949124,0.0,10.0,0.0,0.0,0.0,10.0,0.0,0.0,0.0,10.0,-0.242214501143,0.233825543709,-0.267514531498,1.0,0.0,0.0,0.0,1.0,0.0,0.0,0.0,1.0,0.953217773438,0.949625244141,10.9320666504,0.1,0.0,0.0,0.0,0.1,0.0,0.0,0.0,0.1
1446040280568646307,671,1446040280565438032,robocape,-7.88669076344,10.8608108705,-9.18504707656,0.0,10.0,0.0,0.0,0.0,10.0,0.0,0.0,0.0,10.0,-0.221175528531,0.270976640916,-0.279631914458,1.0,0.0,0.0,0.0,1.0,0.0,0.0,0.0,1.0,0.504151611328,0.813109130859,10.4674328613,0.1,0.0,0.0,0.0,0.1,0.0,0.0,0.0,0.1
1446040280602959973,672,1446040280599790096,robocape,-8.16914321815,9.96424566324,-9.70402456028,0.0,10.0,0.0,0.0,0.0,10.0,0.0,0.0,0.0,10.0,-0.104395914731,-0.419181555578,-0.337289352059,1.0,0.0,0.0,0.0,1.0,0.0,0.0,0.0,1.0,6.57193359375,1.21307739258,9.63276855469,0.1,0.0,0.0,0.0,0.1,0.0,0.0,0.0,0.1
1446040280635154848,673,1446040280631846904,robocape,-8.35419845216,10.1200030569,-10.2708320202,0.0,10.0,0.0,0.0,0.0,10.0,0.0,0.0,0.0,10.0,-0.0540621701286,0.135821215594,-0.288952978274,1.0,0.0,0.0,0.0,1.0,0.0,0.0,0.0,1.0,5.10737915039,1.40467895508,9.61720092773,0.1,0.0,0.0,0.0,0.1,0.0,0.0,0.0,0.1
1446040280670719932,674,1446040280667573928,robocape,-8.46764484702,11.0116727326,-11.1074163198,0.0,10.0,0.0,0.0,0.0,10.0,0.0,0.0,0.0,10.0,0.00918790576077,0.54368433654,-0.373907817047,1.0,0.0,0.0,0.0,1.0,0.0,0.0,0.0,1.0,0.176033935547,-0.638272705078,15.0191674805,0.1,0.0,0.0,0.0,0.1,0.0,0.0,0.0,0.1
1446040280709584557,675,1446040280706038951,robocape,-8.59663839872,11.0993113811,-11.7389088434,0.0,10.0,0.0,0.0,0.0,10.0,0.0,0.0,0.0,10.0,-0.0134489635049,0.108656972475,-0.327835130189,1.0,0.0,0.0,0.0,1.0,0.0,0.0,0.0,1.0,0.625100097656,0.232316894531,7.53353393555,0.1,0.0,0.0,0.0,0.1,0.0,0.0,0.0,0.1
1446040280743996723,676,1446040280740832090,robocape,-8.67034927822,11.8646385155,-12.4800842774,0.0,10.0,0.0,0.0,0.0,10.0,0.0,0.0,0.0,10.0,0.0268979270098,0.473776357925,-0.334226716805,1.0,0.0,0.0,0.0,1.0,0.0,0.0,0.0,1.0,3.75658813477,0.650247802734,12.359498291,0.1,0.0,0.0,0.0,0.1,0.0,0.0,0.0,0.1
1446040280781561473,677,1446040280777846097,robocape,-8.60064293473,12.1413238686,-13.2213992176,0.0,10.0,0.0,0.0,0.0,10.0,0.0,0.0,0.0,10.0,0.107192233876,0.21877868355,-0.370845181794,1.0,0.0,0.0,0.0,1.0,0.0,0.0,0.0,1.0,1.32803833008,-0.832269287109,9.40045166016,0.1,0.0,0.0,0.0,0.1,0.0,0.0,0.0,0.1
1446040280815067765,678,1446040280811768054,robocape,-8.89690681795,14.5362850928,-14.4509314948,0.0,10.0,0.0,0.0,0.0,10.0,0.0,0.0,0.0,10.0,-0.0262321367373,1.37778638995,-0.46445529411,1.0,0.0,0.0,0.0,1.0,0.0,0.0,0.0,1.0,5.98275878906,5.61632080078,18.2153210449,0.1,0.0,0.0,0.0,0.1,0.0,0.0,0.0,0.1
1446040280848167973,679,1446040280844635009,robocape,-8.0682805065,13.9551452067,-15.237141502,0.0,10.0,0.0,0.0,0.0,10.0,0.0,0.0,0.0,10.0,0.529702740817,-0.22823290542,-0.452471069204,1.0,0.0,0.0,0.0,1.0,0.0,0.0,0.0,1.0,-0.663420410156,0.368833007813,1.67172363281,0.1,0.0,0.0,0.0,0.1,0.0,0.0,0.0,0.1
1446040280881782182,680,1446040280878475904,robocape,-7.30530980698,14.2279366183,-15.580167294,0.0,10.0,0.0,0.0,0.0,10.0,0.0,0.0,0.0,10.0,0.436891576827,0.183092324943,-0.170841783929,1.0,0.0,0.0,0.0,1.0,0.0,0.0,0.0,1.0,-1.75195678711,0.844244384766,8.25084228516,0.1,0.0,0.0,0.0,0.1,0.0,0.0,0.0,0.1
1446040280916461473,681,1446040280912754058,robocape,-6.88382409152,15.6086665986,-16.2227303873,0.0,10.0,0.0,0.0,0.0,10.0,0.0,0.0,0.0,10.0,0.297475093762,0.792157266244,-0.264718212354,1.0,0.0,0.0,0.0,1.0,0.0,0.0,0.0,1.0,-9.10945678711,1.47533203125,11.3703552246,0.1,0.0,0.0,0.0,0.1,0.0,0.0,0.0,0.1
1446040280950541640,682,1446040280947340965,robocape,-5.84578691135,17.3592112878,-16.748301053,0.0,10.0,0.0,0.0,0.0,10.0,0.0,0.0,0.0,10.0,0.613858631263,0.981774335858,-0.195875498175,1.0,0.0,0.0,0.0,1.0,0.0,0.0,0.0,1.0,2.50159790039,-3.64881225586,8.64242797852,0.1,0.0,0.0,0.0,0.1,0.0,0.0,0.0,0.1
1446040280984795932,683,1446040280981687068,robocape,-4.86524876785,15.9451404194,-17.2184919402,0.0,10.0,0.0,0.0,0.0,10.0,0.0,0.0,0.0,10.0,0.583232278727,-0.709332956343,-0.309725634776,1.0,0.0,0.0,0.0,1.0,0.0,0.0,0.0,1.0,-4.1805065918,0.541274414062,2.02977905273,0.1,0.0,0.0,0.0,0.1,0.0,0.0,0.0,0.1
1446040281018501557,684,1446040281014991998,robocape,-4.03431361809,16.1572260369,-17.4647032949,0.0,10.0,0.0,0.0,0.0,10.0,0.0,0.0,0.0,10.0,0.468716351854,0.142612276374,-0.137019638085,1.0,0.0,0.0,0.0,1.0,0.0,0.0,0.0,1.0,6.21627319336,0.286204833984,9.53696777344,0.1,0.0,0.0,0.0,0.1,0.0,0.0,0.0,0.1
1446040281053074265,685,1446040281049891948,robocape,-3.48141865718,16.2145887651,-17.6293731036,0.0,10.0,0.0,0.0,0.0,10.0,0.0,0.0,0.0,10.0,0.312388795866,0.0560595409462,-0.101599595587,1.0,0.0,0.0,0.0,1.0,0.0,0.0,0.0,1.0,0.154478759766,1.68369873047,9.21364013672,0.1,0.0,0.0,0.0,0.1,0.0,0.0,0.0,0.1
1446040281087695807,686,1446040281084506988,robocape,-3.11778240482,16.5124417413,-17.7835457708,0.0,10.0,0.0,0.0,0.0,10.0,0.0,0.0,0.0,10.0,0.212387096934,0.184024431324,-0.0925448478803,1.0,0.0,0.0,0.0,1.0,0.0,0.0,0.0,1.0,5.4762121582,2.23215820313,12.1894519043,0.1,0.0,0.0,0.0,0.1,0.0,0.0,0.0,0.1
1446040281116983265,687,1446040281113846063,robocape,-2.84287076914,16.9275539922,-18.0645648548,0.0,10.0,0.0,0.0,0.0,10.0,0.0,0.0,0.0,10.0,0.186021802142,0.252068197176,-0.157392820424,1.0,0.0,0.0,0.0,1.0,0.0,0.0,0.0,1.0,-0.755628662109,0.382005615234,9.77886474609,0.1,0.0,0.0,0.0,0.1,0.0,0.0,0.0,0.1
1446040281151268890,688,1446040281148183107,robocape,-1.79507833229,17.0683125075,-18.246327846,0.0,10.0,0.0,0.0,0.0,10.0,0.0,0.0,0.0,10.0,0.577772798493,0.101200121423,-0.112252239947,1.0,0.0,0.0,0.0,1.0,0.0,0.0,0.0,1.0,-8.92144775391,0.047900390625,6.67491943359,0.1,0.0,0.0,0.0,0.1,0.0,0.0,0.0,0.1
1446040281184442099,689,1446040281181377887,robocape,-0.852936111029,15.3807187691,-18.599363143,0.0,10.0,0.0,0.0,0.0,10.0,0.0,0.0,0.0,10.0,0.545548549303,-0.874848418091,-0.203199191173,1.0,0.0,0.0,0.0,1.0,0.0,0.0,0.0,1.0,-11.6912878418,-0.353265380859,3.1769934082,0.1,0.0,0.0,0.0,0.1,0.0,0.0,0.0,0.1
1446040281218520807,690,1446040281215250015,robocape,-0.0553917158046,15.1629327865,-18.603718949,0.0,10.0,0.0,0.0,0.0,10.0,0.0,0.0,0.0,10.0,0.420779452233,-0.0980043281149,-0.0225037112112,1.0,0.0,0.0,0.0,1.0,0.0,0.0,0.0,1.0,9.10346923828,1.54718261719,10.9164990234,0.1,0.0,0.0,0.0,0.1,0.0,0.0,0.0,0.1
1446040281250717724,691,1446040281247483015,robocape,0.7712330212,16.312649927,-18.578714453,0.0,10.0,0.0,0.0,0.0,10.0,0.0,0.0,0.0,10.0,0.435426838228,0.633033391112,-0.0264984528463,1.0,0.0,0.0,0.0,1.0,0.0,0.0,0.0,1.0,16.462166748,4.01046020508,15.0946105957,0.1,0.0,0.0,0.0,0.1,0.0,0.0,0.0,0.1
1446040281282062474,692,1446040281279043912,robocape,0.954301202697,16.3247792392,-18.6673265547,0.0,10.0,0.0,0.0,0.0,10.0,0.0,0.0,0.0,10.0,0.113450662437,0.0259658206283,-0.068176923906,1.0,0.0,0.0,0.0,1.0,0.0,0.0,0.0,1.0,0.936452636719,1.4944921875,8.8903125,0.1,0.0,0.0,0.0,0.1,0.0,0.0,0.0,0.1
1446040281315691807,693,1446040281312602996,robocape,0.905583500323,16.0518234229,-18.7965260695,0.0,10.0,0.0,0.0,0.0,10.0,0.0,0.0,0.0,10.0,-0.00279631914458,-0.127032783997,-0.0828243099015,1.0,0.0,0.0,0.0,1.0,0.0,0.0,0.0,1.0,-0.294587402344,0.446671142578,8.38735839844,0.1,0.0,0.0,0.0,0.1,0.0,0.0,0.0,0.1
1446040281349991432,694,1446040281346873044,robocape,0.876901604747,15.9092879196,-18.9718961306,0.0,10.0,0.0,0.0,0.0,10.0,0.0,0.0,0.0,10.0,0.0145142279409,-0.0572579634367,-0.109855394966,1.0,0.0,0.0,0.0,1.0,0.0,0.0,0.0,1.0,-3.43326049805,0.845441894531,11.3284423828,0.1,0.0,0.0,0.0,0.1,0.0,0.0,0.0,0.1
1446040281380671265,695,1446040281377315044,robocape,0.901312532101,15.8392000796,-19.0832675853,0.0,10.0,0.0,0.0,0.0,10.0,0.0,0.0,0.0,10.0,0.033023197517,-0.0187752856851,-0.0785632521573,1.0,0.0,0.0,0.0,1.0,0.0,0.0,0.0,1.0,-3.1386730957,1.84895507813,10.9847570801,0.1,0.0,0.0,0.0,0.1,0.0,0.0,0.0,0.1
1446040281415697890,696,1446040281412555932,robocape,0.990640490463,15.453423075,-19.3162996526,0.0,10.0,0.0,0.0,0.0,10.0,0.0,0.0,0.0,10.0,0.083756416283,-0.187087066578,-0.135554899485,1.0,0.0,0.0,0.0,1.0,0.0,0.0,0.0,1.0,-1.65974853516,0.948427734375,8.61608276367,0.1,0.0,0.0,0.0,0.1,0.0,0.0,0.0,0.1
1446040281449786099,697,1446040281446719884,robocape,1.09927168905,15.2840264172,-19.5386586868,0.0,10.0,0.0,0.0,0.0,10.0,0.0,0.0,0.0,10.0,0.0924116898257,-0.0720385074866,-0.135022267267,1.0,0.0,0.0,0.0,1.0,0.0,0.0,0.0,1.0,0.047900390625,1.3759387207,10.5740112305,0.1,0.0,0.0,0.0,0.1,0.0,0.0,0.0,0.1
1446040281484426349,698,1446040281481306076,robocape,1.24438187729,15.4596262467,-19.7567330756,0.0,10.0,0.0,0.0,0.0,10.0,0.0,0.0,0.0,10.0,0.111985923838,0.111985923838,-0.141147537774,1.0,0.0,0.0,0.0,1.0,0.0,0.0,0.0,1.0,0.141306152344,1.80225219727,9.53696777344,0.1,0.0,0.0,0.0,0.1,0.0,0.0,0.0,0.1
1446040281518696057,699,1446040281515563011,robocape,1.50136315671,15.3621036304,-19.8830613433,0.0,10.0,0.0,0.0,0.0,10.0,0.0,0.0,0.0,10.0,0.157392820424,-0.0336889877895,-0.0876179998636,1.0,0.0,0.0,0.0,1.0,0.0,0.0,0.0,1.0,3.04287231445,1.17715209961,10.8171057129,0.1,0.0,0.0,0.0,0.1,0.0,0.0,0.0,0.1
1446040281553288682,700,1446040281550230026,robocape,1.70472443798,15.4969643195,-20.0028638324,0.0,10.0,0.0,0.0,0.0,10.0,0.0,0.0,0.0,10.0,0.129296470923,0.0900148448447,-0.0905474770627,1.0,0.0,0.0,0.0,1.0,0.0,0.0,0.0,1.0,0.573607177734,1.35917358398,10.5464685059,0.1,0.0,0.0,0.0,0.1,0.0,0.0,0.0,0.1
1446040281586929307,701,1446040281583518981,robocape,1.99641211498,15.4496848466,-20.1255269796,0.0,10.0,0.0,0.0,0.0,10.0,0.0,0.0,0.0,10.0,0.176034948054,-0.00705737688871,-0.0876179998636,1.0,0.0,0.0,0.0,1.0,0.0,0.0,0.0,1.0,-4.6403503418,1.40348144531,11.306887207,0.1,0.0,0.0,0.0,0.1,0.0,0.0,0.0,0.1
1446040281620887099,702,1446040281617259979,robocape,2.28519456073,15.5220806575,-20.2437742513,0.0,10.0,0.0,0.0,0.0,10.0,0.0,0.0,0.0,10.0,0.174703367509,0.0565921731642,-0.0894822126267,1.0,0.0,0.0,0.0,1.0,0.0,0.0,0.0,1.0,3.12550048828,1.36037109375,11.3643676758,0.1,0.0,0.0,0.0,0.1,0.0,0.0,0.0,0.1
1446040281653029140,703,1446040281649939060,robocape,2.65360301083,15.916328182,-20.2398295935,0.0,10.0,0.0,0.0,0.0,10.0,0.0,0.0,0.0,10.0,0.200536030083,0.229830802074,-0.0382163616426,1.0,0.0,0.0,0.0,1.0,0.0,0.0,0.0,1.0,1.60705810547,1.19511474609,8.82444946289,0.1,0.0,0.0,0.0,0.1,0.0,0.0,0.0,0.1
1446040281688499807,704,1446040281684884071,robocape,2.91735923099,16.7175032107,-20.2691539649,0.0,10.0,0.0,0.0,0.0,10.0,0.0,0.0,0.0,10.0,0.152865446571,0.447810537297,-0.0728374558137,1.0,0.0,0.0,0.0,1.0,0.0,0.0,0.0,1.0,-0.465831298828,-0.450263671875,14.3820922852,0.1,0.0,0.0,0.0,0.1,0.0,0.0,0.0,0.1
1446040281726388057,705,1446040281723203897,robocape,3.18557014197,16.3033841997,-20.4083590242,0.0,10.0,0.0,0.0,0.0,10.0,0.0,0.0,0.0,10.0,0.168045464784,-0.202666558955,-0.0814927293564,1.0,0.0,0.0,0.0,1.0,0.0,0.0,0.0,1.0,-6.53121826172,0.371228027344,9.28788574219,0.1,0.0,0.0,0.0,0.1,0.0,0.0,0.0,0.1
1446040281759692974,706,1446040281756540060,robocape,3.43074270626,17.2385262093,-20.2797453512,0.0,10.0,0.0,0.0,0.0,10.0,0.0,0.0,0.0,10.0,0.120374881272,0.522778521983,-0.00173105470855,1.0,0.0,0.0,0.0,1.0,0.0,0.0,0.0,1.0,0.502954101562,2.02139648438,14.1030725098,0.1,0.0,0.0,0.0,0.1,0.0,0.0,0.0,0.1
1446040281789689516,707,1446040281786648035,robocape,3.89894254043,17.2967386397,-20.285882736,0.0,10.0,0.0,0.0,0.0,10.0,0.0,0.0,0.0,10.0,0.255929780757,0.0537958540196,-0.0344879361165,1.0,0.0,0.0,0.0,1.0,0.0,0.0,0.0,1.0,-4.50742675781,-0.0969982910156,8.79091918945,0.1,0.0,0.0,0.0,0.1,0.0,0.0,0.0,0.1
1446040281822921474,708,1446040281819546937,robocape,4.22910492753,18.6252161636,-20.3576534494,0.0,10.0,0.0,0.0,0.0,10.0,0.0,0.0,0.0,10.0,0.201867610628,0.733967196426,-0.135155425322,1.0,0.0,0.0,0.0,1.0,0.0,0.0,0.0,1.0,-9.62678100586,0.831071777344,11.480526123,0.1,0.0,0.0,0.0,0.1,0.0,0.0,0.0,0.1
1446040281856467266,709,1446040281853267908,robocape,4.98098148474,17.2460268865,-20.5457296152,0.0,10.0,0.0,0.0,0.0,10.0,0.0,0.0,0.0,10.0,0.428902093557,-0.717721913776,-0.0478037415669,1.0,0.0,0.0,0.0,1.0,0.0,0.0,0.0,1.0,-4.64274536133,0.336500244141,5.64985107422,0.1,0.0,0.0,0.0,0.1,0.0,0.0,0.0,0.1
1446040281887247682,710,1446040281884166955,robocape,5.61888681039,16.7347583417,-20.4869317557,0.0,10.0,0.0,0.0,0.0,10.0,0.0,0.0,0.0,10.0,0.33409355875,-0.247274507214,0.0318247750264,1.0,0.0,0.0,0.0,1.0,0.0,0.0,0.0,1.0,-10.9248815918,1.59628051758,11.2529992676,0.1,0.0,0.0,0.0,0.1,0.0,0.0,0.0,0.1
1446040281915803807,711,1446040281912719011,robocape,6.07108848476,16.5097382147,-20.401453002,0.0,10.0,0.0,0.0,0.0,10.0,0.0,0.0,0.0,10.0,0.234624492036,-0.0945422186978,0.0295610880999,1.0,0.0,0.0,0.0,1.0,0.0,0.0,0.0,1.0,-2.43812988281,1.32564331055,9.18849243164,0.1,0.0,0.0,0.0,0.1,0.0,0.0,0.0,0.1
1446040281949104557,712,1446040281945868015,robocape,6.4000206166,16.3092005541,-20.3309422312,0.0,10.0,0.0,0.0,0.0,10.0,0.0,0.0,0.0,10.0,0.172705996692,-0.082691151847,0.0217047628841,1.0,0.0,0.0,0.0,1.0,0.0,0.0,0.0,1.0,-1.15799194336,1.42024658203,9.40763671875,0.1,0.0,0.0,0.0,0.1,0.0,0.0,0.0,0.1
1446040281981968891,713,1446040281978552103,robocape,6.57189086314,16.2276358463,-20.4070286576,0.0,10.0,0.0,0.0,0.0,10.0,0.0,0.0,0.0,10.0,0.113716978546,-0.0267647689553,-0.0615190211808,1.0,0.0,0.0,0.0,1.0,0.0,0.0,0.0,1.0,-8.82684448242,2.49201782227,11.8876794434,0.1,0.0,0.0,0.0,0.1,0.0,0.0,0.0,0.1
1446040282015713807,714,1446040282012298107,robocape,6.90457424199,15.685991775,-20.44924398,0.0,10.0,0.0,0.0,0.0,10.0,0.0,0.0,0.0,10.0,0.190416017941,-0.269112428153,-0.0099868540878,1.0,0.0,0.0,0.0,1.0,0.0,0.0,0.0,1.0,-8.00295776367,0.110170898438,9.67468139648,0.1,0.0,0.0,0.0,0.1,0.0,0.0,0.0,0.1
1446040282050670432,715,1446040282047329902,robocape,7.09592061067,15.3930897463,-20.3629427552,0.0,10.0,0.0,0.0,0.0,10.0,0.0,0.0,0.0,10.0,0.0984038022784,-0.132092790068,0.0395479421877,1.0,0.0,0.0,0.0,1.0,0.0,0.0,0.0,1.0,0.0718505859375,1.96631103516,10.7428601074,0.1,0.0,0.0,0.0,0.1,0.0,0.0,0.0,0.1
1446040282079882557,716,1446040282076602935,robocape,7.29561338865,15.4254179737,-20.273746356,0.0,10.0,0.0,0.0,0.0,10.0,0.0,0.0,0.0,10.0,0.104795388895,0.0403468905147,0.015579492377,1.0,0.0,0.0,0.0,1.0,0.0,0.0,0.0,1.0,-3.03448974609,1.52203491211,9.2771081543,0.1,0.0,0.0,0.0,0.1,0.0,0.0,0.0,0.1
1446040282116218432,717,1446040282112986087,robocape,7.393433341,15.9411283262,-20.0443634934,0.0,10.0,0.0,0.0,0.0,10.0,0.0,0.0,0.0,10.0,0.0331563555715,0.303600364269,0.0498011123845,1.0,0.0,0.0,0.0,1.0,0.0,0.0,0.0,1.0,1.53041748047,1.49688720703,12.472064209,0.1,0.0,0.0,0.0,0.1,0.0,0.0,0.0,0.1
1446040282150263057,718,1446040282147089004,robocape,7.51708865981,16.3016363727,-19.8529338398,0.0,10.0,0.0,0.0,0.0,10.0,0.0,0.0,0.0,10.0,0.0511326929295,0.220509738259,0.0418116291142,1.0,0.0,0.0,0.0,1.0,0.0,0.0,0.0,1.0,-2.06690185547,1.60346557617,9.07712402344,0.1,0.0,0.0,0.0,0.1,0.0,0.0,0.0,0.1
1446040282182424432,719,1446040282179312944,robocape,7.67775359353,17.4169476154,-19.6071080792,0.0,10.0,0.0,0.0,0.0,10.0,0.0,0.0,0.0,10.0,0.0667121853065,0.625976014223,0.00492684801665,1.0,0.0,0.0,0.0,1.0,0.0,0.0,0.0,1.0,4.20685180664,1.59867553711,12.7043811035,0.1,0.0,0.0,0.0,0.1,0.0,0.0,0.0,0.1
1446040282220070766,720,1446040282216598033,robocape,7.87678041574,17.687637752,-19.4683428299,0.0,10.0,0.0,0.0,0.0,10.0,0.0,0.0,0.0,10.0,0.0980043281149,0.173638103073,0.0193079179031,1.0,0.0,0.0,0.0,1.0,0.0,0.0,0.0,1.0,-7.48683105469,1.45377685547,8.78253662109,0.1,0.0,0.0,0.0,0.1,0.0,0.0,0.0,0.1
1446040282255888891,721,1446040282252521991,robocape,8.19801907985,16.5929921604,-19.5149518174,0.0,10.0,0.0,0.0,0.0,10.0,0.0,0.0,0.0,10.0,0.182293376616,-0.561394357789,0.0443416321498,1.0,0.0,0.0,0.0,1.0,0.0,0.0,0.0,1.0,-8.01134033203,2.04414916992,6.68090698242,0.1,0.0,0.0,0.0,0.1,0.0,0.0,0.0,0.1
1446040282289236891,722,1446040282286164999,robocape,8.48879005333,16.7708276038,-19.3698835358,0.0,10.0,0.0,0.0,0.0,10.0,0.0,0.0,0.0,10.0,0.146207543845,0.124236464852,0.0295610880999,1.0,0.0,0.0,0.0,1.0,0.0,0.0,0.0,1.0,-3.52067871094,2.09803710938,8.88192993164,0.1,0.0,0.0,0.0,0.1,0.0,0.0,0.0,0.1
1446040282322336724,723,1446040282318784952,robocape,8.64349754905,15.2652746524,-19.6233533255,0.0,10.0,0.0,0.0,0.0,10.0,0.0,0.0,0.0,10.0,0.122638568198,-0.792556740408,-0.017710021249,1.0,0.0,0.0,0.0,1.0,0.0,0.0,0.0,1.0,-7.60538452148,0.216749267578,5.80313232422,0.1,0.0,0.0,0.0,0.1,0.0,0.0,0.0,0.1
1446040282357019016,724,1446040282353743076,robocape,8.86398026576,15.0415519225,-19.5733319143,0.0,10.0,0.0,0.0,0.0,10.0,0.0,0.0,0.0,10.0,0.121706461817,-0.0964064314609,0.0190416017941,1.0,0.0,0.0,0.0,1.0,0.0,0.0,0.0,1.0,-5.88935302734,1.23104003906,10.8997338867,0.1,0.0,0.0,0.0,0.1,0.0,0.0,0.0,0.1
1446040282399749016,725,1446040282396641016,robocape,8.10180207606,18.6842041408,-19.5470409592,0.0,10.0,0.0,0.0,0.0,10.0,0.0,0.0,0.0,10.0,-0.367915704594,1.9454391763,-0.338754090658,1.0,0.0,0.0,0.0,1.0,0.0,0.0,0.0,1.0,12.282857666,9.08430908203,17.7518847656,0.1,0.0,0.0,0.0,0.1,0.0,0.0,0.0,0.1
1446040282430394557,726,1446040282427205085,robocape,8.65524107128,16.7559076021,-19.7134170431,0.0,10.0,0.0,0.0,0.0,10.0,0.0,0.0,0.0,10.0,0.317848276101,-1.00907173703,0.0623179695079,1.0,0.0,0.0,0.0,1.0,0.0,0.0,0.0,1.0,-2.62733642578,0.667012939453,2.20940551758,0.1,0.0,0.0,0.0,0.1,0.0,0.0,0.0,0.1
1446040282463095266,727,1446040282460000038,robocape,9.06793513236,17.1374129071,-19.427705828,0.0,10.0,0.0,0.0,0.0,10.0,0.0,0.0,0.0,10.0,0.190416017941,0.243146607524,0.0790958843754,1.0,0.0,0.0,0.0,1.0,0.0,0.0,0.0,1.0,9.24717041016,2.42016723633,10.3273242188,0.1,0.0,0.0,0.0,0.1,0.0,0.0,0.0,0.1
1446040282492660599,728,1446040282489236116,robocape,9.48651294307,17.5949708544,-19.1020085101,0.0,10.0,0.0,0.0,0.0,10.0,0.0,0.0,0.0,10.0,0.187486540742,0.287887713838,0.0897485287357,1.0,0.0,0.0,0.0,1.0,0.0,0.0,0.0,1.0,5.04750366211,1.65376098633,12.9845983887,0.1,0.0,0.0,0.0,0.1,0.0,0.0,0.0,0.1
1446040282527813558,729,1446040282524691104,robocape,9.80077064222,17.9987321923,-18.6926618617,0.0,10.0,0.0,0.0,0.0,10.0,0.0,0.0,0.0,10.0,0.117045929909,0.266182950953,0.136753321976,1.0,0.0,0.0,0.0,1.0,0.0,0.0,0.0,1.0,7.66526000977,0.663420410156,8.32868041992,0.1,0.0,0.0,0.0,0.1,0.0,0.0,0.0,0.1
1446040282558083891,730,1446040282554855108,robocape,10.0623462553,18.522433356,-18.2742254429,0.0,10.0,0.0,0.0,0.0,10.0,0.0,0.0,0.0,10.0,0.0877511579181,0.331696713769,0.12743225816,1.0,0.0,0.0,0.0,1.0,0.0,0.0,0.0,1.0,9.46272216797,2.03696411133,10.0914147949,0.1,0.0,0.0,0.0,0.1,0.0,0.0,0.0,0.1
1446040282588197141,731,1446040282585042953,robocape,10.3348881385,18.7972858025,-17.8016076227,0.0,10.0,0.0,0.0,0.0,10.0,0.0,0.0,0.0,10.0,0.0805606229749,0.205596036154,0.179896531635,1.0,0.0,0.0,0.0,1.0,0.0,0.0,0.0,1.0,3.09556274414,1.86212768555,9.31063842773,0.1,0.0,0.0,0.0,0.1,0.0,0.0,0.0,0.1
1446040282617018724,732,1446040282613948106,robocape,9.84549760773,21.0855490243,-17.2330427522,0.0,10.0,0.0,0.0,0.0,10.0,0.0,0.0,0.0,10.0,-0.326503549644,1.27751837491,0.0173105470855,1.0,0.0,0.0,0.0,1.0,0.0,0.0,0.0,1.0,-3.88711669922,-1.53401000977,16.6238305664,0.1,0.0,0.0,0.0,0.1,0.0,0.0,0.0,0.1
1446040282648731308,733,1446040282644897937,robocape,9.5557118427,21.1312313906,-16.8509958025,0.0,10.0,0.0,0.0,0.0,10.0,0.0,0.0,0.0,10.0,-0.211854464716,0.0737695621952,0.162186510386,1.0,0.0,0.0,0.0,1.0,0.0,0.0,0.0,1.0,4.97445556641,1.18313964844,4.76369384766,0.1,0.0,0.0,0.0,0.1,0.0,0.0,0.0,0.1
1446040282686058683,734,1446040282682928085,robocape,9.29257021467,20.9517500388,-16.7087877982,0.0,10.0,0.0,0.0,0.0,10.0,0.0,0.0,0.0,10.0,-0.152998604625,-0.0629837597804,0.0667121853065,1.0,0.0,0.0,0.0,1.0,0.0,0.0,0.0,1.0,-0.404758300781,1.33402587891,9.07113647461,0.1,0.0,0.0,0.0,0.1,0.0,0.0,0.0,0.1
1446040282720925974,735,1446040282717645883,robocape,8.99888807469,20.819221462,-16.5593377213,0.0,10.0,0.0,0.0,0.0,10.0,0.0,0.0,0.0,10.0,-0.170309151711,-0.0383495196971,0.0659132369795,1.0,0.0,0.0,0.0,1.0,0.0,0.0,0.0,1.0,1.02147583008,1.85135009766,7.42815307617,0.1,0.0,0.0,0.0,0.1,0.0,0.0,0.0,0.1
1446040282751404766,736,1446040282748245000,robocape,8.79969525772,20.5368016896,-16.4803851059,0.0,10.0,0.0,0.0,0.0,10.0,0.0,0.0,0.0,10.0,-0.108257498312,-0.122638568198,0.0447411063133,1.0,0.0,0.0,0.0,1.0,0.0,0.0,0.0,1.0,5.9815612793,1.66453857422,12.3343505859,0.1,0.0,0.0,0.0,0.1,0.0,0.0,0.0,0.1
1446040282782129224,737,1446040282779012918,robocape,8.63777294894,20.9600954291,-16.3281825937,0.0,10.0,0.0,0.0,0.0,10.0,0.0,0.0,0.0,10.0,-0.0958737992429,0.259791364337,0.0133158054504,1.0,0.0,0.0,0.0,1.0,0.0,0.0,0.0,1.0,9.84233276367,1.60107055664,11.302097168,0.1,0.0,0.0,0.0,0.1,0.0,0.0,0.0,0.1
1446040282817972474,738,1446040282814007997,robocape,8.6198385451,21.100839978,-16.1809481011,0.0,10.0,0.0,0.0,0.0,10.0,0.0,0.0,0.0,10.0,-0.0218379209386,0.10998855302,0.0366184649886,1.0,0.0,0.0,0.0,1.0,0.0,0.0,0.0,1.0,4.30864013672,1.43102416992,8.67595825195,0.1,0.0,0.0,0.0,0.1,0.0,0.0,0.0,0.1
1446040282850132058,739,1446040282846909999,robocape,8.81322914572,21.3200484576,-15.9918440546,0.0,10.0,0.0,0.0,0.0,10.0,0.0,0.0,0.0,10.0,0.0825579937925,0.15699334626,0.0480700576759,1.0,0.0,0.0,0.0,1.0,0.0,0.0,0.0,1.0,7.87242919922,1.46096191406,13.0803991699,0.1,0.0,0.0,0.0,0.1,0.0,0.0,0.0,0.1
1446040282881930183,740,1446040282878612995,robocape,9.02215889797,21.4672701324,-15.8142142575,0.0,10.0,0.0,0.0,0.0,10.0,0.0,0.0,0.0,10.0,0.0924116898257,0.118510668509,0.0487358479485,1.0,0.0,0.0,0.0,1.0,0.0,0.0,0.0,1.0,1.82380737305,1.24660766602,8.41011108398,0.1,0.0,0.0,0.0,0.1,0.0,0.0,0.0,0.1
1446040282914753349,741,1446040282911655902,robocape,9.44766686863,21.5200651162,-15.6092788811,0.0,10.0,0.0,0.0,0.0,10.0,0.0,0.0,0.0,10.0,0.201068662301,0.0724379816502,0.0693753463966,1.0,0.0,0.0,0.0,1.0,0.0,0.0,0.0,1.0,5.05708374023,1.61783569336,8.78852416992,0.1,0.0,0.0,0.0,0.1,0.0,0.0,0.0,0.1
1446040282948244683,742,1446040282944850921,robocape,10.0068876141,21.1246825167,-15.5223306132,0.0,10.0,0.0,0.0,0.0,10.0,0.0,0.0,0.0,10.0,0.291349823255,-0.173504945019,0.0565921731642,1.0,0.0,0.0,0.0,1.0,0.0,0.0,0.0,1.0,-0.447868652344,1.31007568359,8.98371826172,0.1,0.0,0.0,0.0,0.1,0.0,0.0,0.0,0.1
1446040282978262058,743,1446040282975151062,robocape,10.5735683014,21.1408046175,-15.3761153711,0.0,10.0,0.0,0.0,0.0,10.0,0.0,0.0,0.0,10.0,0.289485610492,0.0513990090385,0.0424774193868,1.0,0.0,0.0,0.0,1.0,0.0,0.0,0.0,1.0,-0.0263452148438,1.08135131836,8.49872680664,0.1,0.0,0.0,0.0,0.1,0.0,0.0,0.0,0.1
1446040283011730349,744,1446040283008636951,robocape,11.4406551854,20.8478945025,-15.2579051078,0.0,10.0,0.0,0.0,0.0,10.0,0.0,0.0,0.0,10.0,0.45233791115,-0.111320133565,0.0612527050718,1.0,0.0,0.0,0.0,1.0,0.0,0.0,0.0,1.0,1.02746337891,1.21547241211,8.78373413086,0.1,0.0,0.0,0.0,0.1,0.0,0.0,0.0,0.1
1446040283045067933,745,1446040283042017936,robocape,12.4571763744,20.6898360019,-14.9998417192,0.0,10.0,0.0,0.0,0.0,10.0,0.0,0.0,0.0,10.0,0.508397452096,-0.0241016078652,0.113583820492,1.0,0.0,0.0,0.0,1.0,0.0,0.0,0.0,1.0,0.803529052734,1.36995117188,8.83163452148,0.1,0.0,0.0,0.0,0.1,0.0,0.0,0.0,0.1
1446040283078506016,746,1446040283075298070,robocape,13.5711735398,21.550693281,-14.4744453961,0.0,10.0,0.0,0.0,0.0,10.0,0.0,0.0,0.0,10.0,0.52357747031,0.546214339575,0.106925917767,1.0,0.0,0.0,0.0,1.0,0.0,0.0,0.0,1.0,3.73503295898,1.90763305664,12.6397155762,0.1,0.0,0.0,0.0,0.1,0.0,0.0,0.0,0.1
1446040283111749349,747,1446040283108691930,robocape,14.9747089756,21.9019953681,-14.083671197,0.0,10.0,0.0,0.0,0.0,10.0,0.0,0.0,0.0,10.0,0.700943998909,0.273639802006,0.0989364344964,1.0,0.0,0.0,0.0,1.0,0.0,0.0,0.0,1.0,2.66326171875,1.07775878906,7.95266235352,0.1,0.0,0.0,0.0,0.1,0.0,0.0,0.0,0.1
1446040283150976141,748,1446040283147484064,robocape,16.7007664205,22.1622829546,-13.6383056072,0.0,10.0,0.0,0.0,0.0,10.0,0.0,0.0,0.0,10.0,0.866592618712,0.243812397797,0.127299100106,1.0,0.0,0.0,0.0,1.0,0.0,0.0,0.0,1.0,2.69200195313,1.20948486328,12.8025769043,0.1,0.0,0.0,0.0,0.1,0.0,0.0,0.0,0.1
1446040283182116683,749,1446040283178879976,robocape,18.793426786,21.6853015433,-13.3961222417,0.0,10.0,0.0,0.0,0.0,10.0,0.0,0.0,0.0,10.0,1.1013502688,-0.152732288516,0.147272808281,1.0,0.0,0.0,0.0,1.0,0.0,0.0,0.0,1.0,5.96838867188,1.68489624023,9.0783215332,0.1,0.0,0.0,0.0,0.1,0.0,0.0,0.0,0.1
1446040283216298725,750,1446040283213068962,robocape,21.3636184128,21.6788697809,-12.8726084978,0.0,10.0,0.0,0.0,0.0,10.0,0.0,0.0,0.0,10.0,1.32518895842,0.151267549917,0.184423905488,1.0,0.0,0.0,0.0,1.0,0.0,0.0,0.0,1.0,3.41649536133,1.6058605957,10.0578845215,0.1,0.0,0.0,0.0,0.1,0.0,0.0,0.0,0.1
1446040283247053016,751,1446040283243726968,robocape,24.4468657653,22.241443769,-12.0551267913,0.0,10.0,0.0,0.0,0.0,10.0,0.0,0.0,0.0,10.0,1.57765662976,0.519050096456,0.175102841673,1.0,0.0,0.0,0.0,1.0,0.0,0.0,0.0,1.0,4.71579345703,1.57352783203,8.20653442383,0.1,0.0,0.0,0.0,0.1,0.0,0.0,0.0,0.1
1446040283282121266,752,1446040283278772115,robocape,28.0651398082,22.2802913398,-11.1035379857,0.0,10.0,0.0,0.0,0.0,10.0,0.0,0.0,0.0,10.0,1.86088381169,0.325571443262,0.322375649954,1.0,0.0,0.0,0.0,1.0,0.0,0.0,0.0,1.0,-1.63819335938,1.13164672852,10.4171374512,0.1,0.0,0.0,0.0,0.1,0.0,0.0,0.0,0.1
1446040283311599808,753,1446040283308504104,robocape,31.8937081636,21.1976427558,-10.3995091332,0.0,10.0,0.0,0.0,0.0,10.0,0.0,0.0,0.0,10.0,2.04131297555,-0.223838689621,0.501473233262,1.0,0.0,0.0,0.0,1.0,0.0,0.0,0.0,1.0,-0.63228515625,1.97229858398,4.35175048828,0.1,0.0,0.0,0.0,0.1,0.0,0.0,0.0,0.1
1446040283350337558,754,1446040283346971035,robocape,36.3503959632,21.2615318054,-8.35654250928,0.0,10.0,0.0,0.0,0.0,10.0,0.0,0.0,0.0,10.0,2.21495107862,0.724113500393,0.702275579454,1.0,0.0,0.0,0.0,1.0,0.0,0.0,0.0,1.0,3.87514160156,5.4031640625,13.0456713867,0.1,0.0,0.0,0.0,0.1,0.0,0.0,0.0,0.1
1446040283389849558,755,1446040283386744022,robocape,38.0065512559,20.7108781088,-5.47992118349,0.0,10.0,0.0,0.0,0.0,10.0,0.0,0.0,0.0,10.0,0.425173668031,0.669119223882,1.26313730502,1.0,0.0,0.0,0.0,1.0,0.0,0.0,0.0,1.0,7.0856652832,13.0049560547,14.4922631836,0.1,0.0,0.0,0.0,0.1,0.0,0.0,0.0,0.1
1446040283422199266,756,1446040283419025897,robocape,37.9837495825,25.433750667,1.20555627246,0.0,10.0,0.0,0.0,0.0,10.0,0.0,0.0,0.0,10.0,-1.28910312565,4.00472848921,0.992160664109,1.0,0.0,0.0,0.0,1.0,0.0,0.0,0.0,1.0,10.9643994141,2.08965454102,19.6194012451,0.1,0.0,0.0,0.0,0.1,0.0,0.0,0.0,0.1
1446040283460798016,757,1446040283457389116,robocape,36.5696530893,23.804890005,4.16747066694,0.0,10.0,0.0,0.0,0.0,10.0,0.0,0.0,0.0,10.0,-1.4797854597,0.107858024148,1.65076040169,1.0,0.0,0.0,0.0,1.0,0.0,0.0,0.0,1.0,4.37570068359,0.376018066406,4.76369384766,0.1,0.0,0.0,0.0,0.1,0.0,0.0,0.0,0.1
1446040283495588808,758,1446040283492096900,robocape,35.2737983788,23.6020715376,6.78300090031,0.0,10.0,0.0,0.0,0.0,10.0,0.0,0.0,0.0,10.0,-1.24595991599,0.637028132747,1.07897971565,1.0,0.0,0.0,0.0,1.0,0.0,0.0,0.0,1.0,1.50886230469,2.46806762695,12.6588757324,0.1,0.0,0.0,0.0,0.1,0.0,0.0,0.0,0.1
1446040283529706475,759,1446040283525835990,robocape,33.6959119207,22.3216324955,8.37129141784,0.0,10.0,0.0,0.0,0.0,10.0,0.0,0.0,0.0,10.0,-1.19669143583,-0.155262291552,1.00947121119,1.0,0.0,0.0,0.0,1.0,0.0,0.0,0.0,1.0,3.91106689453,1.24062011719,7.55029907227,0.1,0.0,0.0,0.0,0.1,0.0,0.0,0.0,0.1
1446040283562815475,760,1446040283559619903,robocape,32.745844353,21.9789945719,10.6958388936,0.0,10.0,0.0,0.0,0.0,10.0,0.0,0.0,0.0,10.0,-0.942625867834,0.47923583816,1.04316019898,1.0,0.0,0.0,0.0,1.0,0.0,0.0,0.0,1.0,2.29323120117,-0.443078613281,1.98307617188,0.1,0.0,0.0,0.0,0.1,0.0,0.0,0.0,0.1
1446040283600702558,761,1446040283597367048,robocape,31.6669691408,21.6955897898,12.1831204222,0.0,10.0,0.0,0.0,0.0,10.0,0.0,0.0,0.0,10.0,-0.840893114193,0.271642431188,0.693353989802,1.0,0.0,0.0,0.0,1.0,0.0,0.0,0.0,1.0,4.10985351563,2.14713500977,12.4708666992,0.1,0.0,0.0,0.0,0.1,0.0,0.0,0.0,0.1
1446040283631654600,762,1446040283628026008,robocape,31.23126648,21.2220979149,13.5960684597,0.0,10.0,0.0,0.0,0.0,10.0,0.0,0.0,0.0,10.0,-0.463523187728,0.178831267199,0.725711397047,1.0,0.0,0.0,0.0,1.0,0.0,0.0,0.0,1.0,3.1805859375,2.85606079102,10.3536694336,0.1,0.0,0.0,0.0,0.1,0.0,0.0,0.0,0.1
1446040283667048766,763,1446040283663666009,robocape,31.1023134087,20.8175757966,15.0980804448,0.0,10.0,0.0,0.0,0.0,10.0,0.0,0.0,0.0,10.0,-0.299339306525,0.243546081688,0.753674588492,1.0,0.0,0.0,0.0,1.0,0.0,0.0,0.0,1.0,2.25012084961,2.32077392578,9.13220947266,0.1,0.0,0.0,0.0,0.1,0.0,0.0,0.0,0.1
1446040283696332850,764,1446040283693131923,robocape,31.2023565078,20.5332345587,16.6456292291,0.0,10.0,0.0,0.0,0.0,10.0,0.0,0.0,0.0,10.0,-0.170042835602,0.322109333845,0.749679846857,1.0,0.0,0.0,0.0,1.0,0.0,0.0,0.0,1.0,-0.531694335938,1.86572021484,8.64961303711,0.1,0.0,0.0,0.0,0.1,0.0,0.0,0.0,0.1
1446040283727447475,765,1446040283724318027,robocape,31.4899480282,20.3827721821,18.195147008,0.0,10.0,0.0,0.0,0.0,10.0,0.0,0.0,0.0,10.0,-0.0569916473277,0.397210476585,0.722781919848,1.0,0.0,0.0,0.0,1.0,0.0,0.0,0.0,1.0,2.36867431641,1.67531616211,11.1116931152,0.1,0.0,0.0,0.0,0.1,0.0,0.0,0.0,0.1
1446040283765430516,766,1446040283761388063,robocape,31.6939303414,19.1037884525,19.2300713878,0.0,10.0,0.0,0.0,0.0,10.0,0.0,0.0,0.0,10.0,-0.0255663464648,-0.25899241601,0.810000445548,1.0,0.0,0.0,0.0,1.0,0.0,0.0,0.0,1.0,-10.975177002,2.4525,10.4147424316,0.1,0.0,0.0,0.0,0.1,0.0,0.0,0.0,0.1
1446040283801297308,767,1446040283797995090,robocape,32.625074497,18.8550432012,20.7587321031,0.0,10.0,0.0,0.0,0.0,10.0,0.0,0.0,0.0,10.0,0.333161452369,0.383095722808,0.764726707016,1.0,0.0,0.0,0.0,1.0,0.0,0.0,0.0,1.0,1.54359008789,1.71363647461,9.46990722656,0.1,0.0,0.0,0.0,0.1,0.0,0.0,0.0,0.1
1446040283839510183,768,1446040283835999965,robocape,33.8430064394,18.5861200366,22.106727816,0.0,10.0,0.0,0.0,0.0,10.0,0.0,0.0,0.0,10.0,0.533830640506,0.350605157509,0.702541895563,1.0,0.0,0.0,0.0,1.0,0.0,0.0,0.0,1.0,0.839454345703,2.00463134766,10.3297192383,0.1,0.0,0.0,0.0,0.1,0.0,0.0,0.0,0.1
1446040283875190308,769,1446040283871484994,robocape,35.6584955465,17.6364923078,22.9004407078,0.0,10.0,0.0,0.0,0.0,10.0,0.0,0.0,0.0,10.0,0.960735363246,-0.0762995652308,0.683899767932,1.0,0.0,0.0,0.0,1.0,0.0,0.0,0.0,1.0,-6.83778076172,3.35661987305,12.4996069336,0.1,0.0,0.0,0.0,0.1,0.0,0.0,0.0,0.1
1446040283907016517,770,1446040283903860092,robocape,37.9755831027,17.5406609461,24.2808145781,0.0,10.0,0.0,0.0,0.0,10.0,0.0,0.0,0.0,10.0,1.20481407715,0.527705369999,0.692821357584,1.0,0.0,0.0,0.0,1.0,0.0,0.0,0.0,1.0,-0.560434570312,1.87530029297,8.43765380859,0.1,0.0,0.0,0.0,0.1,0.0,0.0,0.0,0.1
1446040283941757183,771,1446040283938638925,robocape,41.0235100377,17.3180483515,25.5571338888,0.0,10.0,0.0,0.0,0.0,10.0,0.0,0.0,0.0,10.0,1.67579411593,0.511193771241,0.709865588561,1.0,0.0,0.0,0.0,1.0,0.0,0.0,0.0,1.0,2.51956054688,1.02746337891,9.03760620117,0.1,0.0,0.0,0.0,0.1,0.0,0.0,0.0,0.1
1446040283975739600,772,1446040283972657918,robocape,45.3717485449,18.8219812906,28.4434167369,0.0,10.0,0.0,0.0,0.0,10.0,0.0,0.0,0.0,10.0,2.30110433988,1.90922018548,0.746350895495,1.0,0.0,0.0,0.0,1.0,0.0,0.0,0.0,1.0,19.6194012451,-4.16972900391,10.5512585449,0.1,0.0,0.0,0.0,0.1,0.0,0.0,0.0,0.1
1446040284006344600,773,1446040284003247976,robocape,46.5805128438,16.976433984,30.9319896989,0.0,10.0,0.0,0.0,0.0,10.0,0.0,0.0,0.0,10.0,0.508264294042,0.420246820015,1.70974941983,1.0,0.0,0.0,0.0,1.0,0.0,0.0,0.0,1.0,4.69304077148,12.1571191406,8.30353271484,0.1,0.0,0.0,0.0,0.1,0.0,0.0,0.0,0.1
1446040284041480142,774,1446040284038372039,robocape,46.0722667161,15.9917057349,34.675404211,0.0,10.0,0.0,0.0,0.0,10.0,0.0,0.0,0.0,10.0,-0.592020710325,1.17924773069,1.81933849869,1.0,0.0,0.0,0.0,1.0,0.0,0.0,0.0,1.0,3.61168945313,7.01501220703,11.1931237793,0.1,0.0,0.0,0.0,0.1,0.0,0.0,0.0,0.1
1446040284076397517,775,1446040284073271036,robocape,45.5156781756,15.5647510713,37.8094974582,0.0,10.0,0.0,0.0,0.0,10.0,0.0,0.0,0.0,10.0,-0.50733218766,1.1575429678,1.43278066646,1.0,0.0,0.0,0.0,1.0,0.0,0.0,0.0,1.0,1.6477734375,1.39869140625,9.79562988281,0.1,0.0,0.0,0.0,0.1,0.0,0.0,0.0,0.1
1446040284107716017,776,1446040284104629039,robocape,45.8252173502,15.0494896786,40.2930398254,0.0,10.0,0.0,0.0,0.0,10.0,0.0,0.0,0.0,10.0,0.101333279478,0.932372697637,1.30148682472,1.0,0.0,0.0,0.0,1.0,0.0,0.0,0.0,1.0,-0.395178222656,1.37354370117,8.92025024414,0.1,0.0,0.0,0.0,0.1,0.0,0.0,0.0,0.1
1446040284139245517,777,1446040284136138916,robocape,46.7798581694,13.9853053198,42.2988445704,0.0,10.0,0.0,0.0,0.0,10.0,0.0,0.0,0.0,10.0,0.567120154132,0.606401780211,1.39363219844,1.0,0.0,0.0,0.0,1.0,0.0,0.0,0.0,1.0,-10.2387084961,4.53616699219,13.9833215332,0.1,0.0,0.0,0.0,0.1,0.0,0.0,0.0,0.1
1446040284173698850,778,1446040284170556068,robocape,46.8597178579,12.8763621884,45.080124197,0.0,10.0,0.0,0.0,0.0,10.0,0.0,0.0,0.0,10.0,0.0435426838228,0.904942138409,1.71281205508,1.0,0.0,0.0,0.0,1.0,0.0,0.0,0.0,1.0,6.32524658203,8.58614501953,8.51788696289,0.1,0.0,0.0,0.0,0.1,0.0,0.0,0.0,0.1
1446040284203798392,779,1446040284200468063,robocape,46.3972430755,14.5721827041,48.8799002674,0.0,10.0,0.0,0.0,0.0,10.0,0.0,0.0,0.0,10.0,-0.361657276033,2.32360805109,1.03836650902,1.0,0.0,0.0,0.0,1.0,0.0,0.0,0.0,1.0,6.79467041016,12.9642407227,17.3291638184,0.1,0.0,0.0,0.0,0.1,0.0,0.0,0.0,0.1
1446040284235270433,780,1446040284231726884,robocape,46.0579322082,13.5140679009,50.702959564,0.0,10.0,0.0,0.0,0.0,10.0,0.0,0.0,0.0,10.0,-0.135022267267,0.532632218016,1.35581531096,1.0,0.0,0.0,0.0,1.0,0.0,0.0,0.0,1.0,0.450263671875,-0.872984619141,3.44284057617,0.1,0.0,0.0,0.0,0.1,0.0,0.0,0.0,0.1
1446040284267959850,781,1446040284264549970,robocape,46.7436820022,12.9360985917,53.0370154724,0.0,10.0,0.0,0.0,0.0,10.0,0.0,0.0,0.0,10.0,0.48043426065,1.01146858201,1.51746918913,1.0,0.0,0.0,0.0,1.0,0.0,0.0,0.0,1.0,4.27391235352,8.2807800293,11.2949121094,0.1,0.0,0.0,0.0,0.1,0.0,0.0,0.0,0.1
1446040284301708683,782,1446040284298590898,robocape,46.2569143776,12.3874326766,55.5929047565,0.0,10.0,0.0,0.0,0.0,10.0,0.0,0.0,0.0,10.0,-0.19334549514,1.08084392841,1.56181082128,1.0,0.0,0.0,0.0,1.0,0.0,0.0,0.0,1.0,4.32301025391,7.5910144043,9.48188232422,0.1,0.0,0.0,0.0,0.1,0.0,0.0,0.0,0.1
1446040284338580725,783,1446040284335499048,robocape,45.418645406,11.9384989936,57.9863646147,0.0,10.0,0.0,0.0,0.0,10.0,0.0,0.0,0.0,10.0,-0.373375184829,1.03383913517,1.4812501983,1.0,0.0,0.0,0.0,1.0,0.0,0.0,0.0,1.0,0.526904296875,4.81638427734,10.0770446777,0.1,0.0,0.0,0.0,0.1,0.0,0.0,0.0,0.1
1446040284377359183,784,1446040284369941949,robocape,44.7424814537,11.5967774496,60.3690357425,0.0,10.0,0.0,0.0,0.0,10.0,0.0,0.0,0.0,10.0,-0.258193467683,1.0879013053,1.51680339885,1.0,0.0,0.0,0.0,1.0,0.0,0.0,0.0,1.0,0.0874182128906,2.13276489258,10.6183190918,0.1,0.0,0.0,0.0,0.1,0.0,0.0,0.0,0.1
1446040284418014058,785,1446040284414783000,robocape,45.1567207001,11.0496111517,61.809703691,0.0,10.0,0.0,0.0,0.0,10.0,0.0,0.0,0.0,10.0,0.426238932467,0.669918172209,1.28404311958,1.0,0.0,0.0,0.0,1.0,0.0,0.0,0.0,1.0,2.86803588867,5.70733154297,7.35270996094,0.1,0.0,0.0,0.0,0.1,0.0,0.0,0.0,0.1
1446040284456934225,786,1446040284453484058,robocape,44.9379752089,10.6702431792,63.7108256385,0.0,10.0,0.0,0.0,0.0,10.0,0.0,0.0,0.0,10.0,0.068443240015,0.924516372421,1.43278066646,1.0,0.0,0.0,0.0,1.0,0.0,0.0,0.0,1.0,1.61184814453,8.37658081055,9.19567749023,0.1,0.0,0.0,0.0,0.1,0.0,0.0,0.0,0.1
1446040284490914308,787,1446040284487765073,robocape,44.5457081268,10.3740911414,65.4336175716,0.0,10.0,0.0,0.0,0.0,10.0,0.0,0.0,0.0,10.0,-0.0195742340121,0.874715260037,1.33677370917,1.0,0.0,0.0,0.0,1.0,0.0,0.0,0.0,1.0,2.10881469727,6.67252441406,8.83163452148,0.1,0.0,0.0,0.0,0.1,0.0,0.0,0.0,0.1
1446040284521615267,788,1446040284518484115,robocape,44.1175684606,10.1590083773,67.1028272339,0.0,10.0,0.0,0.0,0.0,10.0,0.0,0.0,0.0,10.0,-0.0308926686449,0.887764749378,1.31866421375,1.0,0.0,0.0,0.0,1.0,0.0,0.0,0.0,1.0,1.52203491211,5.19000732422,8.96216308594,0.1,0.0,0.0,0.0,0.1,0.0,0.0,0.0,0.1
1446040284553555767,789,1446040284549686908,robocape,43.792537185,9.94614342425,68.5601329274,0.0,10.0,0.0,0.0,0.0,10.0,0.0,0.0,0.0,10.0,0.0375505713701,0.806272020021,1.25568045397,1.0,0.0,0.0,0.0,1.0,0.0,0.0,0.0,1.0,2.21180053711,6.6294140625,8.18617675781,0.1,0.0,0.0,0.0,0.1,0.0,0.0,0.0,0.1
1446040284588398475,790,1446040284584794998,robocape,43.5216978345,9.85972484013,69.9202385406,0.0,10.0,0.0,0.0,0.0,10.0,0.0,0.0,0.0,10.0,0.0724379816502,0.818788877145,1.19203090392,1.0,0.0,0.0,0.0,1.0,0.0,0.0,0.0,1.0,-0.556842041016,6.57552612305,8.26521240234,0.1,0.0,0.0,0.0,0.1,0.0,0.0,0.0,0.1
1446040284623271059,791,1446040284620137929,robocape,43.0655263895,9.81886019388,71.3269452941,0.0,10.0,0.0,0.0,0.0,10.0,0.0,0.0,0.0,10.0,-0.0310258266994,0.856872080733,1.21906198898,1.0,0.0,0.0,0.0,1.0,0.0,0.0,0.0,1.0,1.6513659668,5.71691162109,9.31902099609,0.1,0.0,0.0,0.0,0.1,0.0,0.0,0.0,0.1
1446040284657258684,792,1446040284653927087,robocape,42.6330441555,9.84979783077,72.4345282732,0.0,10.0,0.0,0.0,0.0,10.0,0.0,0.0,0.0,10.0,-0.0227700273202,0.748081950203,1.0466223084,1.0,0.0,0.0,0.0,1.0,0.0,0.0,0.0,1.0,2.85246826172,6.68569702148,7.45210327148,0.1,0.0,0.0,0.0,0.1,0.0,0.0,0.0,0.1
1446040284689136142,793,1446040284685811042,robocape,42.2733791778,10.0187432668,73.4230052261,0.0,10.0,0.0,0.0,0.0,10.0,0.0,0.0,0.0,10.0,0.0127831732324,0.750745111293,0.950748509158,1.0,0.0,0.0,0.0,1.0,0.0,0.0,0.0,1.0,3.00215698242,5.40795410156,8.87953491211,0.1,0.0,0.0,0.0,0.1,0.0,0.0,0.0,0.1
1446040284723890475,794,1446040284720665931,robocape,42.019006786,10.1277293564,74.3409832609,0.0,10.0,0.0,0.0,0.0,10.0,0.0,0.0,0.0,10.0,0.0733700880317,0.709599272452,0.968991162625,1.0,0.0,0.0,0.0,1.0,0.0,0.0,0.0,1.0,3.36619995117,10.2111657715,8.8555847168,0.1,0.0,0.0,0.0,0.1,0.0,0.0,0.0,0.1
1446040284754711475,795,1446040284751270055,robocape,41.9383198053,10.1301156265,74.9471575404,0.0,10.0,0.0,0.0,0.0,10.0,0.0,0.0,0.0,10.0,0.171507574201,0.537825382142,0.854208919643,1.0,0.0,0.0,0.0,1.0,0.0,0.0,0.0,1.0,1.35917358398,10.2842138672,8.21970703125,0.1,0.0,0.0,0.0,0.1,0.0,0.0,0.0,0.1
1446040284785683225,796,1446040284782641887,robocape,41.5049295259,10.2200643308,75.5709018913,0.0,10.0,0.0,0.0,0.0,10.0,0.0,0.0,0.0,10.0,-0.0342216200075,0.560994883625,0.802410436441,1.0,0.0,0.0,0.0,1.0,0.0,0.0,0.0,1.0,-0.302969970703,8.80049926758,8.44364135742,0.1,0.0,0.0,0.0,0.1,0.0,0.0,0.0,0.1
1446040284816882309,797,1446040284813815116,robocape,41.3938654812,10.6046400762,76.2231922401,0.0,10.0,0.0,0.0,0.0,10.0,0.0,0.0,0.0,10.0,0.140348589447,0.702941369726,0.747549317985,1.0,0.0,0.0,0.0,1.0,0.0,0.0,0.0,1.0,2.96623168945,6.36955444336,6.85813842773,0.1,0.0,0.0,0.0,0.1,0.0,0.0,0.0,0.1
1446040284846107934,798,1446040284843005895,robocape,40.8685808088,10.7988556294,76.6624765378,0.0,10.0,0.0,0.0,0.0,10.0,0.0,0.0,0.0,10.0,-0.0988032764419,0.512525351786,0.652341309015,1.0,0.0,0.0,0.0,1.0,0.0,0.0,0.0,1.0,0.195194091797,7.00183959961,7.84967651367,0.1,0.0,0.0,0.0,0.1,0.0,0.0,0.0,0.1
1446040284878399225,799,1446040284875000953,robocape,40.6848765843,11.0103503712,76.7630941762,0.0,10.0,0.0,0.0,0.0,10.0,0.0,0.0,0.0,10.0,0.0884169481906,0.374706765374,0.46299055551,1.0,0.0,0.0,0.0,1.0,0.0,0.0,0.0,1.0,1.38432128906,8.41130859375,8.29754516602,0.1,0.0,0.0,0.0,0.1,0.0,0.0,0.0,0.1
1446040284912375434,800,1446040284909270048,robocape,40.3264201991,11.1213583862,76.8556236792,0.0,10.0,0.0,0.0,0.0,10.0,0.0,0.0,0.0,10.0,-0.0111852765783,0.32490565299,0.481233208977,1.0,0.0,0.0,0.0,1.0,0.0,0.0,0.0,1.0,-0.378413085938,6.51924316406,7.94068725586,0.1,0.0,0.0,0.0,0.1,0.0,0.0,0.0,0.1
1446040284947205434,801,1446040284944072008,robocape,40.1261238922,11.1971994548,76.7402825146,0.0,10.0,0.0,0.0,0.0,10.0,0.0,0.0,0.0,10.0,0.0757669330128,0.219710789932,0.372309920393,1.0,0.0,0.0,0.0,1.0,0.0,0.0,0.0,1.0,0.865799560547,8.63284790039,7.69400024414,0.1,0.0,0.0,0.0,0.1,0.0,0.0,0.0,0.1
1446040284976406559,802,1446040284973098993,robocape,39.9129089235,11.4249374653,76.445085681,0.0,10.0,0.0,0.0,0.0,10.0,0.0,0.0,0.0,10.0,0.0616521792353,0.187220224633,0.183225482997,1.0,0.0,0.0,0.0,1.0,0.0,0.0,0.0,1.0,0.991538085938,8.77654907227,8.660390625,0.1,0.0,0.0,0.0,0.1,0.0,0.0,0.0,0.1
1446040285007623309,803,1446040285004067897,robocape,39.491027919,11.4580500055,76.241745544,0.0,10.0,0.0,0.0,0.0,10.0,0.0,0.0,0.0,10.0,-0.0543284862376,0.146074385791,0.296809303489,1.0,0.0,0.0,0.0,1.0,0.0,0.0,0.0,1.0,0.940045166016,7.27487182617,7.77064086914,0.1,0.0,0.0,0.0,0.1,0.0,0.0,0.0,0.1
1446040285041721684,804,1446040285038583993,robocape,39.2982640388,11.6500415337,75.7498888052,0.0,10.0,0.0,0.0,0.0,10.0,0.0,0.0,0.0,10.0,0.0692421883421,0.0790958843754,0.0571248053822,1.0,0.0,0.0,0.0,1.0,0.0,0.0,0.0,1.0,1.20708984375,8.33347045898,7.6604699707,0.1,0.0,0.0,0.0,0.1,0.0,0.0,0.0,0.1
1446040285071442059,805,1446040285068377017,robocape,39.0751187056,11.9286515395,74.9183699091,0.0,10.0,0.0,0.0,0.0,10.0,0.0,0.0,0.0,10.0,0.050466902657,-0.04966795433,-0.215050258024,1.0,0.0,0.0,0.0,1.0,0.0,0.0,0.0,1.0,-0.295784912109,6.42104736328,8.23647216797,0.1,0.0,0.0,0.0,0.1,0.0,0.0,0.0,0.1
1446040285101285350,806,1446040285098097085,robocape,38.8862205969,12.2191928479,74.0811920092,0.0,10.0,0.0,0.0,0.0,10.0,0.0,0.0,0.0,10.0,0.0691090302876,-0.0475374254579,-0.228366063474,1.0,0.0,0.0,0.0,1.0,0.0,0.0,0.0,1.0,-1.17954711914,6.95154418945,8.55141723633,0.1,0.0,0.0,0.0,0.1,0.0,0.0,0.0,0.1
1446040285131451517,807,1446040285128379106,robocape,38.7906707331,12.4566422759,73.3441139544,0.0,10.0,0.0,0.0,0.0,10.0,0.0,0.0,0.0,10.0,0.120774355435,-0.0194410759576,-0.141547011938,1.0,0.0,0.0,0.0,1.0,0.0,0.0,0.0,1.0,-1.55676269531,7.00543212891,8.56698486328,0.1,0.0,0.0,0.0,0.1,0.0,0.0,0.0,0.1
1446040285164035767,808,1446040285160753965,robocape,38.5813500937,12.6264207402,72.743223471,0.0,10.0,0.0,0.0,0.0,10.0,0.0,0.0,0.0,10.0,0.0547279604011,0.00865527354276,-0.0460726868584,1.0,0.0,0.0,0.0,1.0,0.0,0.0,0.0,1.0,-1.60346557617,6.66533935547,8.53345458984,0.1,0.0,0.0,0.0,0.1,0.0,0.0,0.0,0.1
1446040285197779725,809,1446040285194516897,robocape,38.2963610081,12.7342146387,72.2818338951,0.0,10.0,0.0,0.0,0.0,10.0,0.0,0.0,0.0,10.0,0.00852211548825,0.0415453130052,0.0525974315291,1.0,0.0,0.0,0.0,1.0,0.0,0.0,0.0,1.0,-1.29211303711,6.72521484375,8.4268762207,0.1,0.0,0.0,0.0,0.1,0.0,0.0,0.0,0.1
1446040285233805392,810,1446040285230427980,robocape,37.9850898837,12.8251210794,71.8558431457,0.0,10.0,0.0,0.0,0.0,10.0,0.0,0.0,0.0,10.0,-0.00892158965177,0.0474042674034,0.0727042977592,1.0,0.0,0.0,0.0,1.0,0.0,0.0,0.0,1.0,-0.730480957031,7.02818481445,8.25563232422,0.1,0.0,0.0,0.0,0.1,0.0,0.0,0.0,0.1
1446040285270554059,811,1446040285267013072,robocape,37.6953194223,12.9345393924,71.3803104391,0.0,10.0,0.0,0.0,0.0,10.0,0.0,0.0,0.0,10.0,0.00213052887206,0.031957933081,0.0300937203179,1.0,0.0,0.0,0.0,1.0,0.0,0.0,0.0,1.0,-0.576002197266,7.13715820313,8.19336181641,0.1,0.0,0.0,0.0,0.1,0.0,0.0,0.0,0.1
1446040285301673934,812,1446040285298268079,robocape,37.4164191534,13.0625755774,70.8546895186,0.0,10.0,0.0,0.0,0.0,10.0,0.0,0.0,0.0,10.0,0.00759000910673,0.0162452826495,-0.0138484376684,1.0,0.0,0.0,0.0,1.0,0.0,0.0,0.0,1.0,-0.626297607422,6.98746948242,8.26161987305,0.1,0.0,0.0,0.0,0.1,0.0,0.0,0.0,0.1
1446040285338525892,813,1446040285335186004,robocape,37.1416743766,13.1954704745,70.313459791,0.0,10.0,0.0,0.0,0.0,10.0,0.0,0.0,0.0,10.0,0.00865527354276,0.0099868540878,-0.0315584589174,1.0,0.0,0.0,0.0,1.0,0.0,0.0,0.0,1.0,-0.97716796875,6.89047119141,8.33466796875,0.1,0.0,0.0,0.0,0.1,0.0,0.0,0.0,0.1
1446040285379193226,814,1446040285371371984,robocape,36.8753592637,13.3172789028,69.8053212535,0.0,10.0,0.0,0.0,0.0,10.0,0.0,0.0,0.0,10.0,0.0106526443603,0.0183758115215,-0.0125168571234,1.0,0.0,0.0,0.0,1.0,0.0,0.0,0.0,1.0,-1.16158447266,6.85694091797,8.36460571289,0.1,0.0,0.0,0.0,0.1,0.0,0.0,0.0,0.1
1446040285413288017,815,1446040285410186052,robocape,36.6048095565,13.4146942509,69.3516345818,0.0,10.0,0.0,0.0,0.0,10.0,0.0,0.0,0.0,10.0,0.00479368996214,0.0296942461544,0.0237021337017,1.0,0.0,0.0,0.0,1.0,0.0,0.0,0.0,1.0,-1.06817871094,6.89047119141,8.33945800781,0.1,0.0,0.0,0.0,0.1,0.0,0.0,0.0,0.1
1446040285443245934,816,1446040285440078020,robocape,36.3359439336,13.5093543612,68.9088329662,0.0,10.0,0.0,0.0,0.0,10.0,0.0,0.0,0.0,10.0,0.00359526747161,0.0315584589174,0.0259658206283,1.0,0.0,0.0,0.0,1.0,0.0,0.0,0.0,1.0,-0.866997070313,6.96112426758,8.29874267578,0.1,0.0,0.0,0.0,0.1,0.0,0.0,0.0,0.1
1446040285478762976,817,1446040285475593090,robocape,36.0715506838,13.6079064337,68.4503952017,0.0,10.0,0.0,0.0,0.0,10.0,0.0,0.0,0.0,10.0,0.00506000607115,0.0253000303558,0.00985369603329,1.0,0.0,0.0,0.0,1.0,0.0,0.0,0.0,1.0,-0.758023681641,7.01501220703,8.26521240234,0.1,0.0,0.0,0.0,0.1,0.0,0.0,0.0,0.1
1446040285510686184,818,1446040285506999015,robocape,35.8126396334,13.7112728673,67.9791934085,0.0,10.0,0.0,0.0,0.0,10.0,0.0,0.0,0.0,10.0,0.00705737688871,0.0207726565026,-0.00466053190764,1.0,0.0,0.0,0.0,1.0,0.0,0.0,0.0,1.0,-0.815504150391,6.97669189453,8.32029785156,0.1,0.0,0.0,0.0,0.1,0.0,0.0,0.0,0.1
1446040285541887434,819,1446040285538259983,robocape,35.5561250188,13.8118695381,67.5101461752,0.0,10.0,0.0,0.0,0.0,10.0,0.0,0.0,0.0,10.0,0.0067910607797,0.0191747598486,-0.00759000910673,1.0,0.0,0.0,0.0,1.0,0.0,0.0,0.0,1.0,-0.950822753906,6.91921142578,8.35622314453,0.1,0.0,0.0,0.0,0.1,0.0,0.0,0.0,0.1
1446040285577851017,820,1446040285574671983,robocape,35.302616189,13.9005068518,67.0675573578,0.0,10.0,0.0,0.0,0.0,10.0,0.0,0.0,0.0,10.0,0.00572579634367,0.0235689756472,0.00759000910673,1.0,0.0,0.0,0.0,1.0,0.0,0.0,0.0,1.0,-1.02506835938,6.90723632813,8.3502355957,0.1,0.0,0.0,0.0,0.1,0.0,0.0,0.0,0.1
1446040285617811684,821,1446040285614718914,robocape,35.0518703838,13.982489125,66.6418562304,0.0,10.0,0.0,0.0,0.0,10.0,0.0,0.0,0.0,10.0,0.00492684801665,0.0262321367373,0.015313176268,1.0,0.0,0.0,0.0,1.0,0.0,0.0,0.0,1.0,-0.922082519531,6.95034667969,8.32748291016,0.1,0.0,0.0,0.0,0.1,0.0,0.0,0.0,0.1
1446040285652757476,822,1446040285649445056,robocape,34.8043337026,14.0655923722,66.2144039104,0.0,10.0,0.0,0.0,0.0,10.0,0.0,0.0,0.0,10.0,0.00532632218016,0.0247673981377,0.00932106381528,1.0,0.0,0.0,0.0,1.0,0.0,0.0,0.0,1.0,-0.840651855469,6.98148193359,8.29994018555,0.1,0.0,0.0,0.0,0.1,0.0,0.0,0.0,0.1
1446040285685824934,823,1446040285682683944,robocape,34.561140618,14.1506951596,65.7829756137,0.0,10.0,0.0,0.0,0.0,10.0,0.0,0.0,0.0,10.0,0.00652474467069,0.0229031853747,0.00186421276306,1.0,0.0,0.0,0.0,1.0,0.0,0.0,0.0,1.0,-0.858614501953,6.95753173828,8.3191003418,0.1,0.0,0.0,0.0,0.1,0.0,0.0,0.0,0.1
1446040285715472851,824,1446040285711810111,robocape,34.3205802092,14.2332703063,65.3555880491,0.0,10.0,0.0,0.0,0.0,10.0,0.0,0.0,0.0,10.0,0.00639158661619,0.0222373951022,0.00066579027252,1.0,0.0,0.0,0.0,1.0,0.0,0.0,0.0,1.0,-0.947230224609,6.93837158203,8.30353271484,0.1,0.0,0.0,0.0,0.1,0.0,0.0,0.0,0.1
1446040285752586184,825,1446040285749536037,robocape,34.0836253042,14.3113715093,64.9415571357,0.0,10.0,0.0,0.0,0.0,10.0,0.0,0.0,0.0,10.0,0.00625842856169,0.0243679239742,0.00585895439817,1.0,0.0,0.0,0.0,1.0,0.0,0.0,0.0,1.0,-0.966390380859,6.92040893555,8.32868041992,0.1,0.0,0.0,0.0,0.1,0.0,0.0,0.0,0.1
1446040285788666559,826,1446040285785506963,robocape,33.8498505712,14.3850460009,64.5391964282,0.0,10.0,0.0,0.0,0.0,10.0,0.0,0.0,0.0,10.0,0.00599211245268,0.0258326625738,0.0101200121423,1.0,0.0,0.0,0.0,1.0,0.0,0.0,0.0,1.0,-1.06458618164,6.94795166016,8.30952026367,0.1,0.0,0.0,0.0,0.1,0.0,0.0,0.0,0.1
1446040285823012101,827,1446040285819565057,robocape,33.6188725997,14.4573206556,64.138817968,0.0,10.0,0.0,0.0,0.0,10.0,0.0,0.0,0.0,10.0,0.00612527050718,0.0249005561922,0.00772316716123,1.0,0.0,0.0,0.0,1.0,0.0,0.0,0.0,1.0,-0.889749755859,6.95872924805,8.3119152832,0.1,0.0,0.0,0.0,0.1,0.0,0.0,0.0,0.1
1446040285857392309,828,1446040285853837966,robocape,33.3904809852,14.528744364,63.7390393145,0.0,10.0,0.0,0.0,0.0,10.0,0.0,0.0,0.0,10.0,0.00625842856169,0.0237021337017,0.00439421579863,1.0,0.0,0.0,0.0,1.0,0.0,0.0,0.0,1.0,-0.898132324219,6.95513671875,8.30712524414,0.1,0.0,0.0,0.0,0.1,0.0,0.0,0.0,0.1
1446040285893851934,829,1446040285890659093,robocape,33.1640746746,14.5970457314,63.345350297,0.0,10.0,0.0,0.0,0.0,10.0,0.0,0.0,0.0,10.0,0.00572579634367,0.0235689756472,0.00506000607115,1.0,0.0,0.0,0.0,1.0,0.0,0.0,0.0,1.0,-0.936452636719,6.93837158203,8.32508789063,0.1,0.0,0.0,0.0,0.1,0.0,0.0,0.0,0.1
1446040285924959934,830,1446040285921809911,robocape,32.940860756,14.6619349786,62.9597980524,0.0,10.0,0.0,0.0,0.0,10.0,0.0,0.0,0.0,10.0,0.00572579634367,0.0241016078652,0.00719053494321,1.0,0.0,0.0,0.0,1.0,0.0,0.0,0.0,1.0,-0.932860107422,6.95034667969,8.28437255859,0.1,0.0,0.0,0.0,0.1,0.0,0.0,0.0,0.1
1446040285955314309,831,1446040285952236890,robocape,32.7194420358,14.7253757692,62.5790984614,0.0,10.0,0.0,0.0,0.0,10.0,0.0,0.0,0.0,10.0,0.00519316412565,0.0242347659197,0.0067910607797,1.0,0.0,0.0,0.0,1.0,0.0,0.0,0.0,1.0,-0.913699951172,6.94795166016,8.29275512695,0.1,0.0,0.0,0.0,0.1,0.0,0.0,0.0,0.1
1446040285987994518,832,1446040285984780073,robocape,32.5017015234,14.7867332446,62.2012460268,0.0,10.0,0.0,0.0,0.0,10.0,0.0,0.0,0.0,10.0,0.00585895439817,0.0234358175927,0.00559263828917,1.0,0.0,0.0,0.0,1.0,0.0,0.0,0.0,1.0,-0.908909912109,6.95274169922,8.33347045898,0.1,0.0,0.0,0.0,0.1,0.0,0.0,0.0,0.1
1446040286018081351,833,1446040286015031099,robocape,32.2869780334,14.8466796395,61.8287906793,0.0,10.0,0.0,0.0,0.0,10.0,0.0,0.0,0.0,10.0,0.00599211245268,0.0238352917562,0.00572579634367,1.0,0.0,0.0,0.0,1.0,0.0,0.0,0.0,1.0,-0.931662597656,6.94555664063,8.32508789063,0.1,0.0,0.0,0.0,0.1,0.0,0.0,0.0,0.1
1446040286053483809,834,1446040286050076007,robocape,32.0750308826,14.9050184276,61.4619746625,0.0,10.0,0.0,0.0,0.0,10.0,0.0,0.0,0.0,10.0,0.00599211245268,0.0242347659197,0.00612527050718,1.0,0.0,0.0,0.0,1.0,0.0,0.0,0.0,1.0,-0.925675048828,6.93837158203,8.31431030273,0.1,0.0,0.0,0.0,0.1,0.0,0.0,0.0,0.1
1446040286089422143,835,1446040286086214065,robocape,31.8654888437,14.9614267387,61.1000875891,0.0,10.0,0.0,0.0,0.0,10.0,0.0,0.0,0.0,10.0,0.00585895439817,0.0242347659197,0.00625842856169,1.0,0.0,0.0,0.0,1.0,0.0,0.0,0.0,1.0,-0.924477539063,6.94914916992,8.33706298828,0.1,0.0,0.0,0.0,0.1,0.0,0.0,0.0,0.1
1446040286127467851,836,1446040286124244928,robocape,31.6581324971,15.0170044401,60.7417471928,0.0,10.0,0.0,0.0,0.0,10.0,0.0,0.0,0.0,10.0,0.00572579634367,0.0242347659197,0.00532632218016,1.0,0.0,0.0,0.0,1.0,0.0,0.0,0.0,1.0,-0.769998779297,6.9323840332,8.30353271484,0.1,0.0,0.0,0.0,0.1,0.0,0.0,0.0,0.1
1446040286161602101,837,1446040286158447980,robocape,31.454156928,15.0702512023,60.3887277208,0.0,10.0,0.0,0.0,0.0,10.0,0.0,0.0,0.0,10.0,0.00612527050718,0.0242347659197,0.00599211245268,1.0,0.0,0.0,0.0,1.0,0.0,0.0,0.0,1.0,-0.926872558594,6.93837158203,8.33107543945,0.1,0.0,0.0,0.0,0.1,0.0,0.0,0.0,0.1
1446040286190909809,838,1446040286187598943,robocape,31.2521882045,15.1225625252,60.0401190844,0.0,10.0,0.0,0.0,0.0,10.0,0.0,0.0,0.0,10.0,0.00585895439817,0.0245010820287,0.00572579634367,1.0,0.0,0.0,0.0,1.0,0.0,0.0,0.0,1.0,-0.928070068359,6.94316162109,8.32868041992,0.1,0.0,0.0,0.0,0.1,0.0,0.0,0.0,0.1
1446040286228076476,839,1446040286224381923,robocape,31.0527529538,15.203466199,59.7039821947,0.0,10.0,0.0,0.0,0.0,10.0,0.0,0.0,0.0,10.0,0.00519316412565,0.0407463646782,0.00199737081756,1.0,0.0,0.0,0.0,1.0,0.0,0.0,0.0,1.0,-1.02626586914,7.03417236328,8.49752929688,0.1,0.0,0.0,0.0,0.1,0.0,0.0,0.0,0.1
1446040286264143643,840,1446040286260961055,robocape,30.8616949286,15.2100925526,59.5550244729,0.0,10.0,0.0,0.0,0.0,10.0,0.0,0.0,0.0,10.0,-0.0067910607797,0.0707069269416,0.128763838705,1.0,0.0,0.0,0.0,1.0,0.0,0.0,0.0,1.0,-1.43102416992,6.54678588867,8.59093505859,0.1,0.0,0.0,0.0,0.1,0.0,0.0,0.0,0.1
1446040286299515226,841,1446040286296432971,robocape,30.8307521999,15.1922621742,59.8009200432,0.0,10.0,0.0,0.0,0.0,10.0,0.0,0.0,0.0,10.0,0.0466053190764,0.197739710938,0.372443078448,1.0,0.0,0.0,0.0,1.0,0.0,0.0,0.0,1.0,-1.85614013672,6.99465454102,8.11432617187,0.1,0.0,0.0,0.0,0.1,0.0,0.0,0.0,0.1
1446040286330246309,842,1446040286327174901,robocape,31.0610929278,15.355077135,60.4096678515,0.0,10.0,0.0,0.0,0.0,10.0,0.0,0.0,0.0,10.0,0.158724400969,0.41212417869,0.551274345646,1.0,0.0,0.0,0.0,1.0,0.0,0.0,0.0,1.0,-2.11599975586,6.6641418457,8.30233520508,0.1,0.0,0.0,0.0,0.1,0.0,0.0,0.0,0.1
1446040286359728893,843,1446040286356470108,robocape,31.1534905027,15.5699711248,61.1451184094,0.0,10.0,0.0,0.0,0.0,10.0,0.0,0.0,0.0,10.0,0.0727042977592,0.480966892868,0.610929154064,1.0,0.0,0.0,0.0,1.0,0.0,0.0,0.0,1.0,-3.17340087891,6.94316162109,9.20885009766,0.1,0.0,0.0,0.0,0.1,0.0,0.0,0.0,0.1
1446040286401926893,844,1446040286398737907,robocape,31.046417314,15.8307034001,61.9293951857,0.0,10.0,0.0,0.0,0.0,10.0,0.0,0.0,0.0,10.0,-0.0418116291142,0.518251148129,0.625976014223,1.0,0.0,0.0,0.0,1.0,0.0,0.0,0.0,1.0,-3.76377319336,5.84983520508,9.3118359375,0.1,0.0,0.0,0.0,0.1,0.0,0.0,0.0,0.1
1446040286435393893,845,1446040286431962013,robocape,30.8648953452,16.1696043437,63.2013803609,0.0,10.0,0.0,0.0,0.0,10.0,0.0,0.0,0.0,10.0,-0.13009541925,0.727442451755,0.903743715918,1.0,0.0,0.0,0.0,1.0,0.0,0.0,0.0,1.0,-0.718505859375,5.09899658203,8.29874267578,0.1,0.0,0.0,0.0,0.1,0.0,0.0,0.0,0.1
1446040286466747101,846,1446040286463395118,robocape,30.6165754302,16.2479661557,64.5669874049,0.0,10.0,0.0,0.0,0.0,10.0,0.0,0.0,0.0,10.0,-0.177766002763,0.650477096252,1.05514442389,1.0,0.0,0.0,0.0,1.0,0.0,0.0,0.0,1.0,-1.73279663086,4.80919921875,8.88192993164,0.1,0.0,0.0,0.0,0.1,0.0,0.0,0.0,0.1
1446040286495554434,847,1446040286492320060,robocape,30.7358318084,16.5478942001,66.3012462509,0.0,10.0,0.0,0.0,0.0,10.0,0.0,0.0,0.0,10.0,-0.0143810698864,0.903876873973,1.27099363024,1.0,0.0,0.0,0.0,1.0,0.0,0.0,0.0,1.0,-3.7517980957,6.69048706055,9.88185058594,0.1,0.0,0.0,0.0,0.1,0.0,0.0,0.0,0.1
1446040286526640851,848,1446040286523266077,robocape,30.8171722758,16.9193968196,68.1740896441,0.0,10.0,0.0,0.0,0.0,10.0,0.0,0.0,0.0,10.0,-0.0519316412565,1.0068080501,1.37565586108,1.0,0.0,0.0,0.0,1.0,0.0,0.0,0.0,1.0,-4.60921508789,4.62119018555,9.87466552734,0.1,0.0,0.0,0.0,0.1,0.0,0.0,0.0,0.1
1446040286563905351,849,1446040286560722112,robocape,30.6848770593,17.2631422828,69.964367089,0.0,10.0,0.0,0.0,0.0,10.0,0.0,0.0,0.0,10.0,-0.165115987585,0.980309597258,1.36606848116,1.0,0.0,0.0,0.0,1.0,0.0,0.0,0.0,1.0,-6.361171875,4.89062988281,8.32269287109,0.1,0.0,0.0,0.0,0.1,0.0,0.0,0.0,0.1
1446040286598636143,850,1446040286595016956,robocape,31.0815887714,18.7701660657,71.880277101,0.0,10.0,0.0,0.0,0.0,10.0,0.0,0.0,0.0,10.0,0.0901480028992,1.58844243218,1.18444089481,1.0,0.0,0.0,0.0,1.0,0.0,0.0,0.0,1.0,2.31957641602,7.40061035156,12.7750341797,0.1,0.0,0.0,0.0,0.1,0.0,0.0,0.0,0.1
1446040286632067184,851,1446040286628761053,robocape,31.2825252815,18.2426293869,73.5536133967,0.0,10.0,0.0,0.0,0.0,10.0,0.0,0.0,0.0,10.0,0.00452737385313,0.616921266517,1.64649934394,1.0,0.0,0.0,0.0,1.0,0.0,0.0,0.0,1.0,-3.50151855469,8.29634765625,7.49162109375,0.1,0.0,0.0,0.0,0.1,0.0,0.0,0.0,0.1
1446040286662195684,852,1446040286658952951,robocape,31.8663343223,19.1241833613,75.8321619411,0.0,10.0,0.0,0.0,0.0,10.0,0.0,0.0,0.0,10.0,0.144210173028,1.52332814353,1.71614100645,1.0,0.0,0.0,0.0,1.0,0.0,0.0,0.0,1.0,5.40915161133,13.9390136719,8.83283203125,0.1,0.0,0.0,0.0,0.1,0.0,0.0,0.0,0.1
1446040286693455351,853,1446040286690352916,robocape,31.7146504432,19.5770810553,77.1783009633,0.0,10.0,0.0,0.0,0.0,10.0,0.0,0.0,0.0,10.0,-0.155395449606,0.975782223405,1.22212462424,1.0,0.0,0.0,0.0,1.0,0.0,0.0,0.0,1.0,1.08494384766,1.4525793457,9.94891113281,0.1,0.0,0.0,0.0,0.1,0.0,0.0,0.0,0.1
1446040286725500101,854,1446040286722326040,robocape,31.9687990432,19.7943063898,78.2659966977,0.0,10.0,0.0,0.0,0.0,10.0,0.0,0.0,0.0,10.0,0.0902811609537,0.795619375661,1.17059245714,1.0,0.0,0.0,0.0,1.0,0.0,0.0,0.0,1.0,-1.4214440918,3.70868774414,7.52634887695,0.1,0.0,0.0,0.0,0.1,0.0,0.0,0.0,0.1
1446040286760088810,855,1446040286756834983,robocape,32.0296958733,19.9665361576,79.3822313784,0.0,10.0,0.0,0.0,0.0,10.0,0.0,0.0,0.0,10.0,-0.0190416017941,0.799880433405,1.22318988867,1.0,0.0,0.0,0.0,1.0,0.0,0.0,0.0,1.0,0.154478759766,5.94922851563,9.17412231445,0.1,0.0,0.0,0.0,0.1,0.0,0.0,0.0,0.1
1446040286795995685,856,1446040286791608095,robocape,32.294820212,20.1050968332,80.2054747712,0.0,10.0,0.0,0.0,0.0,10.0,0.0,0.0,0.0,10.0,0.12743225816,0.682701345442,1.06393285549,1.0,0.0,0.0,0.0,1.0,0.0,0.0,0.0,1.0,-0.748443603516,4.80800170898,7.79578857422,0.1,0.0,0.0,0.0,0.1,0.0,0.0,0.0,0.1
1446040286825154851,857,1446040286822082042,robocape,32.4333329657,20.1887443803,81.0614977952,0.0,10.0,0.0,0.0,0.0,10.0,0.0,0.0,0.0,10.0,0.0553937506736,0.683100819605,1.11959292227,1.0,0.0,0.0,0.0,1.0,0.0,0.0,0.0,1.0,1.97469360352,7.81854125977,8.16701660156,0.1,0.0,0.0,0.0,0.1,0.0,0.0,0.0,0.1
1446040286860448143,858,1446040286857363939,robocape,32.3331730409,20.6140618683,81.8545961285,0.0,10.0,0.0,0.0,0.0,10.0,0.0,0.0,0.0,10.0,-0.0685763980695,0.809068339166,0.97711380395,1.0,0.0,0.0,0.0,1.0,0.0,0.0,0.0,1.0,2.89078857422,6.17076782227,7.47964599609,0.1,0.0,0.0,0.0,0.1,0.0,0.0,0.0,0.1
1446040286892416393,859,1446040286889084100,robocape,32.1181911925,20.5443594882,82.4692108675,0.0,10.0,0.0,0.0,0.0,10.0,0.0,0.0,0.0,10.0,-0.109722236911,0.523444312255,1.01479753337,1.0,0.0,0.0,0.0,1.0,0.0,0.0,0.0,1.0,-1.00111816406,4.76728637695,10.7201074219,0.1,0.0,0.0,0.0,0.1,0.0,0.0,0.0,0.1
1446040286923521143,860,1446040286920387029,robocape,32.3483463611,20.5032986856,82.5714779737,0.0,10.0,0.0,0.0,0.0,10.0,0.0,0.0,0.0,10.0,0.198139185102,0.328234604352,0.662195005048,1.0,0.0,0.0,0.0,1.0,0.0,0.0,0.0,1.0,-1.7974621582,3.99130004883,6.80664550781,0.1,0.0,0.0,0.0,0.1,0.0,0.0,0.0,0.1
1446040286957811851,861,1446040286954730987,robocape,32.3320216976,20.6830416563,83.1495773109,0.0,10.0,0.0,0.0,0.0,10.0,0.0,0.0,0.0,10.0,0.00213052887206,0.629571281695,0.940495338961,1.0,0.0,0.0,0.0,1.0,0.0,0.0,0.0,1.0,0.768801269531,11.6373999023,9.120234375,0.1,0.0,0.0,0.0,0.1,0.0,0.0,0.0,0.1
1446040286988348060,862,1446040286985260009,robocape,32.3897720719,20.832519508,83.3286823874,0.0,10.0,0.0,0.0,0.0,10.0,0.0,0.0,0.0,10.0,0.0942759025888,0.448742643678,0.666722378901,1.0,0.0,0.0,0.0,1.0,0.0,0.0,0.0,1.0,-0.331710205078,5.23311767578,7.98020507813,0.1,0.0,0.0,0.0,0.1,0.0,0.0,0.0,0.1
1446040287017774643,863,1446040287014655113,robocape,32.4423963896,21.1122963731,83.422971012,0.0,10.0,0.0,0.0,0.0,10.0,0.0,0.0,0.0,10.0,0.101732753641,0.470047932399,0.564723309151,1.0,0.0,0.0,0.0,1.0,0.0,0.0,0.0,1.0,0.973575439453,6.59708129883,8.8483996582,0.1,0.0,0.0,0.0,0.1,0.0,0.0,0.0,0.1
1446040287051221435,864,1446040287047439098,robocape,32.4510225154,21.4027886471,83.6203559757,0.0,10.0,0.0,0.0,0.0,10.0,0.0,0.0,0.0,10.0,0.0617853372898,0.522245889765,0.637960239128,1.0,0.0,0.0,0.0,1.0,0.0,0.0,0.0,1.0,3.01293457031,8.83762207031,7.76944335938,0.1,0.0,0.0,0.0,0.1,0.0,0.0,0.0,0.1
1446040287084403810,865,1446040287081206083,robocape,32.3614812399,21.6448835104,83.5256729624,0.0,10.0,0.0,0.0,0.0,10.0,0.0,0.0,0.0,10.0,0.049401638221,0.372043604284,0.431565254647,1.0,0.0,0.0,0.0,1.0,0.0,0.0,0.0,1.0,-0.105380859375,7.73351806641,8.01732788086,0.1,0.0,0.0,0.0,0.1,0.0,0.0,0.0,0.1
1446040287115723518,866,1446040287112329959,robocape,32.2242184754,21.7305296801,83.3687134507,0.0,10.0,0.0,0.0,0.0,10.0,0.0,0.0,0.0,10.0,0.031957933081,0.275637172823,0.428635777448,1.0,0.0,0.0,0.0,1.0,0.0,0.0,0.0,1.0,0.520916748047,7.15272583008,7.76585083008,0.1,0.0,0.0,0.0,0.1,0.0,0.0,0.0,0.1
1446040287145174476,867,1446040287142127990,robocape,32.0338049625,21.816881243,83.1164016261,0.0,10.0,0.0,0.0,0.0,10.0,0.0,0.0,0.0,10.0,0.016644756813,0.231162382619,0.351137789727,1.0,0.0,0.0,0.0,1.0,0.0,0.0,0.0,1.0,1.99505126953,7.22577392578,7.65807495117,0.1,0.0,0.0,0.0,0.1,0.0,0.0,0.0,0.1
1446040287183673601,868,1446040287180411100,robocape,31.7448091552,22.025257903,82.736762868,0.0,10.0,0.0,0.0,0.0,10.0,0.0,0.0,0.0,10.0,-0.018242653467,0.224371321839,0.209857093898,1.0,0.0,0.0,0.0,1.0,0.0,0.0,0.0,1.0,-0.586779785156,7.68442016602,7.67244506836,0.1,0.0,0.0,0.0,0.1,0.0,0.0,0.0,0.1
1446040287216160310,869,1446040287212898015,robocape,31.5220351855,22.0919658959,82.4349931579,0.0,10.0,0.0,0.0,0.0,10.0,0.0,0.0,0.0,10.0,0.00386158358061,0.195609182066,0.306529841468,1.0,0.0,0.0,0.0,1.0,0.0,0.0,0.0,1.0,1.94355834961,8.03289550781,7.33714233398,0.1,0.0,0.0,0.0,0.1,0.0,0.0,0.0,0.1
1446040287247348601,870,1446040287244052886,robocape,31.2635118046,22.1811077549,81.8692072023,0.0,10.0,0.0,0.0,0.0,10.0,0.0,0.0,0.0,10.0,0.0246342400832,0.0892158965177,0.0977380120059,1.0,0.0,0.0,0.0,1.0,0.0,0.0,0.0,1.0,0.82388671875,7.3994128418,7.64370483398,0.1,0.0,0.0,0.0,0.1,0.0,0.0,0.0,0.1
1446040287283520851,871,1446040287280112028,robocape,30.88251913,22.2855853872,81.0598734279,0.0,10.0,0.0,0.0,0.0,10.0,0.0,0.0,0.0,10.0,-0.0031957933081,-0.0119842249054,-0.0986701183874,1.0,0.0,0.0,0.0,1.0,0.0,0.0,0.0,1.0,0.202379150391,7.27606933594,8.19336181641,0.1,0.0,0.0,0.0,0.1,0.0,0.0,0.0,0.1
1446040287319427185,872,1446040287316051006,robocape,30.6093575948,22.4437462805,80.0875638984,0.0,10.0,0.0,0.0,0.0,10.0,0.0,0.0,0.0,10.0,0.0794953585389,-0.0555269087282,-0.236888178963,1.0,0.0,0.0,0.0,1.0,0.0,0.0,0.0,1.0,-0.801134033203,6.83538574219,8.20294189453,0.1,0.0,0.0,0.0,0.1,0.0,0.0,0.0,0.1
1446040287355572101,873,1446040287352174043,robocape,30.3984947885,22.6062702661,79.1858874581,0.0,10.0,0.0,0.0,0.0,10.0,0.0,0.0,0.0,10.0,0.101599595587,-0.0254331884103,-0.194677075685,1.0,0.0,0.0,0.0,1.0,0.0,0.0,0.0,1.0,-1.41066650391,6.81981811523,8.5418371582,0.1,0.0,0.0,0.0,0.1,0.0,0.0,0.0,0.1
1446040287392059060,874,1446040287388860940,robocape,30.1506400416,22.6816514213,78.5148002105,0.0,10.0,0.0,0.0,0.0,10.0,0.0,0.0,0.0,10.0,0.0444747902043,0.0251668723012,-0.0190416017941,1.0,0.0,0.0,0.0,1.0,0.0,0.0,0.0,1.0,-1.62981079102,6.78030029297,8.48675170898,0.1,0.0,0.0,0.0,0.1,0.0,0.0,0.0,0.1
1446040287422130602,875,1446040287418872117,robocape,29.8593011596,22.6941947141,77.9836733783,0.0,10.0,0.0,0.0,0.0,10.0,0.0,0.0,0.0,10.0,-0.00239684498107,0.048869006003,0.085620629046,1.0,0.0,0.0,0.0,1.0,0.0,0.0,0.0,1.0,-1.04542602539,6.90843383789,8.33706298828,0.1,0.0,0.0,0.0,0.1,0.0,0.0,0.0,0.1
1446040287454553810,876,1446040287450695991,robocape,29.5515743458,22.6979225657,77.4651714383,0.0,10.0,0.0,0.0,0.0,10.0,0.0,0.0,0.0,10.0,-0.0142479118319,0.0467384771309,0.0885501062451,1.0,0.0,0.0,0.0,1.0,0.0,0.0,0.0,1.0,-0.426313476563,7.13835571289,8.18378173828,0.1,0.0,0.0,0.0,0.1,0.0,0.0,0.0,0.1
1446040287486740518,877,1446040287483365058,robocape,29.1874256049,22.7285504265,76.8769584238,0.0,10.0,0.0,0.0,0.0,10.0,0.0,0.0,0.0,10.0,-0.0336889877895,0.0283626656093,0.0237021337017,1.0,0.0,0.0,0.0,1.0,0.0,0.0,0.0,1.0,-0.295784912109,7.25211914063,8.12390625,0.1,0.0,0.0,0.0,0.1,0.0,0.0,0.0,0.1
1446040287519179977,878,1446040287515681982,robocape,28.8846945319,22.7769030037,76.2286202667,0.0,10.0,0.0,0.0,0.0,10.0,0.0,0.0,0.0,10.0,0.00798948327024,0.0123836990689,-0.0276968753368,1.0,0.0,0.0,0.0,1.0,0.0,0.0,0.0,1.0,-0.447868652344,7.04494995117,8.22210205078,0.1,0.0,0.0,0.0,0.1,0.0,0.0,0.0,0.1
1446040287554607060,879,1446040287550898075,robocape,28.5828335992,22.8297969816,75.5722840166,0.0,10.0,0.0,0.0,0.0,10.0,0.0,0.0,0.0,10.0,0.00905474770627,0.00932106381528,-0.0420779452233,1.0,0.0,0.0,0.0,1.0,0.0,0.0,0.0,1.0,-0.852626953125,7.04375244141,8.30473022461,0.1,0.0,0.0,0.0,0.1,0.0,0.0,0.0,0.1
1446040287589603268,880,1446040287586436033,robocape,28.3047949082,22.8623387583,74.9818547301,0.0,10.0,0.0,0.0,0.0,10.0,0.0,0.0,0.0,10.0,0.00972053797879,0.0226368692657,0.000932106381528,1.0,0.0,0.0,0.0,1.0,0.0,0.0,0.0,1.0,-1.09811645508,6.88807617188,8.36340820313,0.1,0.0,0.0,0.0,0.1,0.0,0.0,0.0,0.1
1446040287625437810,881,1446040287622164964,robocape,28.0361894836,22.8788115179,74.4439544656,0.0,10.0,0.0,0.0,0.0,10.0,0.0,0.0,0.0,10.0,0.00492684801665,0.0323574072445,0.033555829735,1.0,0.0,0.0,0.0,1.0,0.0,0.0,0.0,1.0,-0.887354736328,7.00303710938,8.27838500977,0.1,0.0,0.0,0.0,0.1,0.0,0.0,0.0,0.1
1446040287659723852,882,1446040287656572103,robocape,27.7670706231,22.8967108391,73.904397054,0.0,10.0,0.0,0.0,0.0,10.0,0.0,0.0,0.0,10.0,0.00412789968962,0.0302268783724,0.0254331884103,1.0,0.0,0.0,0.0,1.0,0.0,0.0,0.0,1.0,-0.718505859375,7.06291259766,8.21012695313,0.1,0.0,0.0,0.0,0.1,0.0,0.0,0.0,0.1
1446040287693731852,883,1446040287690579891,robocape,27.4921461418,22.9227840386,73.336362646,0.0,10.0,0.0,0.0,0.0,10.0,0.0,0.0,0.0,10.0,0.00519316412565,0.0217047628841,-0.00226368692657,1.0,0.0,0.0,0.0,1.0,0.0,0.0,0.0,1.0,-0.560434570312,7.09165283203,8.21012695313,0.1,0.0,0.0,0.0,0.1,0.0,0.0,0.0,0.1
1446040287728375560,884,1446040287724906921,robocape,27.2208376202,22.9494198751,72.7627940924,0.0,10.0,0.0,0.0,0.0,10.0,0.0,0.0,0.0,10.0,0.00732369299772,0.0181094954125,-0.0125168571234,1.0,0.0,0.0,0.0,1.0,0.0,0.0,0.0,1.0,-0.635877685547,7.0090246582,8.2771875,0.1,0.0,0.0,0.0,0.1,0.0,0.0,0.0,0.1
1446040287758790435,885,1446040287755588054,robocape,26.9580249522,22.9698115103,72.2131090829,0.0,10.0,0.0,0.0,0.0,10.0,0.0,0.0,0.0,10.0,0.00692421883421,0.0217047628841,-0.00146473859954,1.0,0.0,0.0,0.0,1.0,0.0,0.0,0.0,1.0,-0.892144775391,6.91681640625,8.32748291016,0.1,0.0,0.0,0.0,0.1,0.0,0.0,0.0,0.1
1446040287794160102,886,1446040287790982961,robocape,26.7051013441,22.9798676816,71.6958892404,0.0,10.0,0.0,0.0,0.0,10.0,0.0,0.0,0.0,10.0,0.00572579634367,0.0262321367373,0.016378440704,1.0,0.0,0.0,0.0,1.0,0.0,0.0,0.0,1.0,-0.857416992188,6.97549438477,8.29275512695,0.1,0.0,0.0,0.0,0.1,0.0,0.0,0.0,0.1
1446040287830826977,887,1446040287827745914,robocape,26.4547102349,22.9896942011,71.1851861074,0.0,10.0,0.0,0.0,0.0,10.0,0.0,0.0,0.0,10.0,0.00519316412565,0.0264984528463,0.0149137021044,1.0,0.0,0.0,0.0,1.0,0.0,0.0,0.0,1.0,-0.690963134766,7.04494995117,8.25802734375,0.1,0.0,0.0,0.0,0.1,0.0,0.0,0.0,0.1
1446040287867755518,888,1446040287864391088,robocape,26.202209734,23.0017674891,70.6648943668,0.0,10.0,0.0,0.0,0.0,10.0,0.0,0.0,0.0,10.0,0.00506000607115,0.0225037112112,0.00239684498107,1.0,0.0,0.0,0.0,1.0,0.0,0.0,0.0,1.0,-0.681383056641,7.02099975586,8.25323730469,0.1,0.0,0.0,0.0,0.1,0.0,0.0,0.0,0.1
1446040287906930727,889,1446040287902977943,robocape,25.9404633471,23.0429553072,70.1076664405,0.0,10.0,0.0,0.0,0.0,10.0,0.0,0.0,0.0,10.0,0.00612527050718,0.0223705531567,-0.033822145844,1.0,0.0,0.0,0.0,1.0,0.0,0.0,0.0,1.0,-0.795146484375,6.98627197266,8.32987792969,0.1,0.0,0.0,0.0,0.1,0.0,0.0,0.0,0.1
1446040287941507768,890,1446040287938191890,robocape,25.7009731287,23.0503090234,69.610272549,0.0,10.0,0.0,0.0,0.0,10.0,0.0,0.0,0.0,10.0,0.00652474467069,0.0245010820287,0.00705737688871,1.0,0.0,0.0,0.0,1.0,0.0,0.0,0.0,1.0,-0.803529052734,6.9778894043,8.27958251953,0.1,0.0,0.0,0.0,0.1,0.0,0.0,0.0,0.1
1446040287976199768,891,1446040287972852945,robocape,25.4653197057,23.0534588967,69.1249269678,0.0,10.0,0.0,0.0,0.0,10.0,0.0,0.0,0.0,10.0,0.00572579634367,0.0247673981377,0.0105194863058,1.0,0.0,0.0,0.0,1.0,0.0,0.0,0.0,1.0,-0.735270996094,7.02339477539,8.29515014648,0.1,0.0,0.0,0.0,0.1,0.0,0.0,0.0,0.1
1446040288011692227,892,1446040288008431911,robocape,25.2110985503,23.0490176062,68.6535975349,0.0,10.0,0.0,0.0,0.0,10.0,0.0,0.0,0.0,10.0,-0.00732369299772,0.0237021337017,0.0154463343225,1.0,0.0,0.0,0.0,1.0,0.0,0.0,0.0,1.0,-0.711320800781,7.04135742188,8.24844726562,0.1,0.0,0.0,0.0,0.1,0.0,0.0,0.0,0.1
1446040288044731643,893,1446040288041218042,robocape,24.9533998665,23.0314949438,68.2054063949,0.0,10.0,0.0,0.0,0.0,10.0,0.0,0.0,0.0,10.0,-0.0141147537774,0.0230363434292,0.0278300333913,1.0,0.0,0.0,0.0,1.0,0.0,0.0,0.0,1.0,-0.801134033203,7.08806030273,8.27479248047,0.1,0.0,0.0,0.0,0.1,0.0,0.0,0.0,0.1
1446040288077431227,894,1446040288073925018,robocape,24.6825254362,22.9987913229,67.7928850294,0.0,10.0,0.0,0.0,0.0,10.0,0.0,0.0,0.0,10.0,-0.0283626656093,0.0250337142467,0.0484695318394,1.0,0.0,0.0,0.0,1.0,0.0,0.0,0.0,1.0,-0.843046875,6.9395690918,8.33706298828,0.1,0.0,0.0,0.0,0.1,0.0,0.0,0.0,0.1
1446040288113305185,895,1446040288109980106,robocape,24.4265945856,22.9736473675,67.3850492841,0.0,10.0,0.0,0.0,0.0,10.0,0.0,0.0,0.0,10.0,-0.0221042370477,0.0287621397729,0.0458063707494,1.0,0.0,0.0,0.0,1.0,0.0,0.0,0.0,1.0,-0.725690917969,6.89047119141,8.32029785156,0.1,0.0,0.0,0.0,0.1,0.0,0.0,0.0,0.1
1446040288146270852,896,1446040288142757892,robocape,24.1715292391,22.9473172094,66.9849707055,0.0,10.0,0.0,0.0,0.0,10.0,0.0,0.0,0.0,10.0,-0.0238352917562,0.0290284558819,0.0466053190764,1.0,0.0,0.0,0.0,1.0,0.0,0.0,0.0,1.0,-0.695753173828,6.92519897461,8.29515014648,0.1,0.0,0.0,0.0,0.1,0.0,0.0,0.0,0.1
1446040288180702810,897,1446040288177479982,robocape,23.9564555285,22.9422073309,66.5480785184,0.0,10.0,0.0,0.0,0.0,10.0,0.0,0.0,0.0,10.0,0.0033289513626,0.0272974011733,0.0159789665405,1.0,0.0,0.0,0.0,1.0,0.0,0.0,0.0,1.0,-0.638272705078,7.10482543945,8.25682983398,0.1,0.0,0.0,0.0,0.1,0.0,0.0,0.0,0.1
1446040288213466102,898,1446040288210151910,robocape,23.7455583261,22.9380774289,66.0981147373,0.0,10.0,0.0,0.0,0.0,10.0,0.0,0.0,0.0,10.0,0.00732369299772,0.0225037112112,0.0033289513626,1.0,0.0,0.0,0.0,1.0,0.0,0.0,0.0,1.0,-0.665815429688,7.05812255859,8.29036010742,0.1,0.0,0.0,0.0,0.1,0.0,0.0,0.0,0.1
1446040288248237144,899,1446040288245095014,robocape,23.5386144527,22.9350248783,65.6463422988,0.0,10.0,0.0,0.0,0.0,10.0,0.0,0.0,0.0,10.0,0.00918790576077,0.0211721306661,-0.00226368692657,1.0,0.0,0.0,0.0,1.0,0.0,0.0,0.0,1.0,-0.712518310547,6.91801391602,8.29994018555,0.1,0.0,0.0,0.0,0.1,0.0,0.0,0.0,0.1
1446040288280194977,900,1446040288276613950,robocape,23.3375460631,22.9351429517,65.1985276503,0.0,10.0,0.0,0.0,0.0,10.0,0.0,0.0,0.0,10.0,0.0110521185238,0.0226368692657,-0.00452737385313,1.0,0.0,0.0,0.0,1.0,0.0,0.0,0.0,1.0,-0.620310058594,6.98267944336,8.32389038086,0.1,0.0,0.0,0.0,0.1,0.0,0.0,0.0,0.1
1446040288313324560,901,1446040288310247898,robocape,23.1388496936,22.9253655479,64.7779001976,0.0,10.0,0.0,0.0,0.0,10.0,0.0,0.0,0.0,10.0,0.0067910607797,0.0243679239742,0.0101200121423,1.0,0.0,0.0,0.0,1.0,0.0,0.0,0.0,1.0,-0.76640625,6.99345703125,8.31071777344,0.1,0.0,0.0,0.0,0.1,0.0,0.0,0.0,0.1
1446040288347997602,902,1446040288344597101,robocape,22.9393305006,22.9149110933,64.3643422051,0.0,10.0,0.0,0.0,0.0,10.0,0.0,0.0,0.0,10.0,0.00452737385313,0.0247673981377,0.0106526443603,1.0,0.0,0.0,0.0,1.0,0.0,0.0,0.0,1.0,-0.705333251953,6.93118652344,8.29515014648,0.1,0.0,0.0,0.0,0.1,0.0,0.0,0.0,0.1
1446040288383181144,903,1446040288379853963,robocape,22.7676554546,22.9942476485,63.9644437535,0.0,10.0,0.0,0.0,0.0,10.0,0.0,0.0,0.0,10.0,0.016644756813,0.0724379816502,-0.000399474163512,1.0,0.0,0.0,0.0,1.0,0.0,0.0,0.0,1.0,-1.22625,5.98395629883,8.8172644043,0.1,0.0,0.0,0.0,0.1,0.0,0.0,0.0,0.1
1446040288425594060,904,1446040288422210931,robocape,22.9988487147,22.9141636325,64.4216099434,0.0,10.0,0.0,0.0,0.0,10.0,0.0,0.0,0.0,10.0,0.0716390333231,0.240882920598,0.564323834988,1.0,0.0,0.0,0.0,1.0,0.0,0.0,0.0,1.0,-0.813109130859,5.24269775391,8.24126220703,0.1,0.0,0.0,0.0,0.1,0.0,0.0,0.0,0.1
1446040288459088185,905,1446040288455379962,robocape,24.509179405,23.2813736647,65.6952675494,0.0,10.0,0.0,0.0,0.0,10.0,0.0,0.0,0.0,10.0,0.605602831884,0.727708767864,1.02198806832,1.0,0.0,0.0,0.0,1.0,0.0,0.0,0.0,1.0,2.18665283203,7.21260131836,6.65575927734,0.1,0.0,0.0,0.0,0.1,0.0,0.0,0.0,0.1
1446040288487997060,906,1446040288484822988,robocape,25.8661159188,23.8046503715,67.1073046233,0.0,10.0,0.0,0.0,0.0,10.0,0.0,0.0,0.0,10.0,0.503337446025,0.879642108053,1.08523814421,1.0,0.0,0.0,0.0,1.0,0.0,0.0,0.0,1.0,-4.09308837891,10.3392993164,9.47948730469,0.1,0.0,0.0,0.0,0.1,0.0,0.0,0.0,0.1
1446040288526710185,907,1446040288523607015,robocape,25.6772577674,24.3131042946,68.5327259409,0.0,10.0,0.0,0.0,0.0,10.0,0.0,0.0,0.0,10.0,-0.326370391589,0.880973688598,1.07551760623,1.0,0.0,0.0,0.0,1.0,0.0,0.0,0.0,1.0,-4.60083251953,6.95393920898,8.95737304688,0.1,0.0,0.0,0.0,0.1,0.0,0.0,0.0,0.1
1446040288559846269,908,1446040288556410074,robocape,25.3331540399,24.8369988102,70.3530417052,0.0,10.0,0.0,0.0,0.0,10.0,0.0,0.0,0.0,10.0,-0.500141652717,1.03037702575,1.3554158368,1.0,0.0,0.0,0.0,1.0,0.0,0.0,0.0,1.0,-2.95545410156,5.57201293945,8.3502355957,0.1,0.0,0.0,0.0,0.1,0.0,0.0,0.0,0.1
1446040288596202060,909,1446040288592746019,robocape,25.7778753442,25.2480622325,72.6857444062,0.0,10.0,0.0,0.0,0.0,10.0,0.0,0.0,0.0,10.0,-0.199603923701,1.18231036594,1.78378529814,1.0,0.0,0.0,0.0,1.0,0.0,0.0,0.0,1.0,-5.98515380859,3.19256103516,9.11903686523,0.1,0.0,0.0,0.0,0.1,0.0,0.0,0.0,0.1
1446040288628578144,910,1446040288625447988,robocape,26.4051806195,25.3587889786,75.4598457712,0.0,10.0,0.0,0.0,0.0,10.0,0.0,0.0,0.0,10.0,-0.203066033119,1.24076675187,2.22160898134,1.0,0.0,0.0,0.0,1.0,0.0,0.0,0.0,1.0,-4.92176513672,6.0929296875,7.48443603516,0.1,0.0,0.0,0.0,0.1,0.0,0.0,0.0,0.1
1446040288660653352,911,1446040288657145023,robocape,27.4935806202,26.260800285,78.5836319136,0.0,10.0,0.0,0.0,0.0,10.0,0.0,0.0,0.0,10.0,-0.0411458388417,1.83039061721,2.38952128807,1.0,0.0,0.0,0.0,1.0,0.0,0.0,0.0,1.0,-11.9295922852,7.78860351563,15.2035839844,0.1,0.0,0.0,0.0,0.1,0.0,0.0,0.0,0.1
1446040288691803019,912,1446040288688666105,robocape,28.3396661432,26.7615585477,81.6211198989,0.0,10.0,0.0,0.0,0.0,10.0,0.0,0.0,0.0,10.0,-0.179497057471,1.69883045936,2.52747303254,1.0,0.0,0.0,0.0,1.0,0.0,0.0,0.0,1.0,-3.80927856445,2.39262451172,7.10841796875,0.1,0.0,0.0,0.0,0.1,0.0,0.0,0.0,0.1
1446040288723670394,913,1446040288719902992,robocape,29.802461206,27.5387488025,84.7237438763,0.0,10.0,0.0,0.0,0.0,10.0,0.0,0.0,0.0,10.0,0.115048559091,1.96314919755,2.6341326342,1.0,0.0,0.0,0.0,1.0,0.0,0.0,0.0,1.0,-3.02850219727,5.84145263672,11.8278039551,0.1,0.0,0.0,0.0,0.1,0.0,0.0,0.0,0.1
1446040288754497560,914,1446040288751391887,robocape,30.261742489,28.2547236146,87.4259645422,0.0,10.0,0.0,0.0,0.0,10.0,0.0,0.0,0.0,10.0,-0.358195166616,1.85995170531,2.44997504482,1.0,0.0,0.0,0.0,1.0,0.0,0.0,0.0,1.0,-7.63771728516,3.88591918945,11.9739001465,0.1,0.0,0.0,0.0,0.1,0.0,0.0,0.0,0.1
1446040288788177519,915,1446040288785029888,robocape,29.4317175824,28.6281915765,89.3312461932,0.0,10.0,0.0,0.0,0.0,10.0,0.0,0.0,0.0,10.0,-0.889096329923,1.39922483673,2.03319033422,1.0,0.0,0.0,0.0,1.0,0.0,0.0,0.0,1.0,-7.98739013672,3.57336914063,12.0337756348,0.1,0.0,0.0,0.0,0.1,0.0,0.0,0.0,0.1
1446040288822585561,916,1446040288819221019,robocape,28.6397783471,29.0020937077,90.7995023381,0.0,10.0,0.0,0.0,0.0,10.0,0.0,0.0,0.0,10.0,-0.790159895427,1.22878252696,1.79190793946,1.0,0.0,0.0,0.0,1.0,0.0,0.0,0.0,1.0,-6.58989624023,1.47772705078,10.8434509277,0.1,0.0,0.0,0.0,0.1,0.0,0.0,0.0,0.1
1446040288855578019,917,1446040288852405071,robocape,28.2773301303,29.8042080534,92.4015777593,0.0,10.0,0.0,0.0,0.0,10.0,0.0,0.0,0.0,10.0,-0.62823970115,1.51360760555,1.87752856851,1.0,0.0,0.0,0.0,1.0,0.0,0.0,0.0,1.0,0.21076171875,2.08007446289,9.08670410156,0.1,0.0,0.0,0.0,0.1,0.0,0.0,0.0,0.1
1446040288891032019,918,1446040288887629985,robocape,27.2521977549,30.5224402357,94.0225314007,0.0,10.0,0.0,0.0,0.0,10.0,0.0,0.0,0.0,10.0,-1.03037702575,1.52212972103,2.01641241935,1.0,0.0,0.0,0.0,1.0,0.0,0.0,0.0,1.0,1.15918945312,3.20333862305,13.5210827637,0.1,0.0,0.0,0.0,0.1,0.0,0.0,0.0,0.1
1446040288925726102,919,1446040288922568082,robocape,25.1532545651,30.2793367183,95.3070070649,0.0,10.0,0.0,0.0,0.0,10.0,0.0,0.0,0.0,10.0,-1.55275607357,0.939030600362,2.09071461377,1.0,0.0,0.0,0.0,1.0,0.0,0.0,0.0,1.0,-5.60554321289,4.07392822266,10.6111340332,0.1,0.0,0.0,0.0,0.1,0.0,0.0,0.0,0.1
1446040288965587519,920,1446040288961385011,robocape,21.9063041324,29.8007778996,96.3704293845,0.0,10.0,0.0,0.0,0.0,10.0,0.0,0.0,0.0,10.0,-2.14158099059,0.728108242028,2.09857093898,1.0,0.0,0.0,0.0,1.0,0.0,0.0,0.0,1.0,-6.84376831055,3.48116088867,10.0459094238,0.1,0.0,0.0,0.0,0.1,0.0,0.0,0.0,0.1
1446040288999123436,921,1446040288995764970,robocape,17.5225531874,28.9340539478,97.0717459343,0.0,10.0,0.0,0.0,0.0,10.0,0.0,0.0,0.0,10.0,-2.68872743654,0.36511938545,1.99750397561,1.0,0.0,0.0,0.0,1.0,0.0,0.0,0.0,1.0,-6.45457763672,3.42607543945,9.57409057617,0.1,0.0,0.0,0.0,0.1,0.0,0.0,0.0,0.1
1446040289033825061,922,1446040289030222892,robocape,11.8185918444,27.9548740239,97.3596305371,0.0,10.0,0.0,0.0,0.0,10.0,0.0,0.0,0.0,10.0,-3.32921767871,0.132225948122,1.79643531331,1.0,0.0,0.0,0.0,1.0,0.0,0.0,0.0,1.0,-6.44978759766,3.07041503906,7.60658203125,0.1,0.0,0.0,0.0,0.1,0.0,0.0,0.0,0.1
1446040289068125311,923,1446040289064941883,robocape,5.10242801169,26.805895053,97.0667045507,0.0,10.0,0.0,0.0,0.0,10.0,0.0,0.0,0.0,10.0,-3.7591850367,-0.154862817388,1.39283325011,1.0,0.0,0.0,0.0,1.0,0.0,0.0,0.0,1.0,-8.68074829102,2.61296630859,8.09516601563,0.1,0.0,0.0,0.0,0.1,0.0,0.0,0.0,0.1
1446040289101731602,924,1446040289098453044,robocape,-2.53046666996,25.347630087,96.2071962034,0.0,10.0,0.0,0.0,0.0,10.0,0.0,0.0,0.0,10.0,-4.14960445251,-0.444481585934,0.944490080597,1.0,0.0,0.0,0.0,1.0,0.0,0.0,0.0,1.0,-3.30392944336,1.74956176758,6.18394042969,0.1,0.0,0.0,0.0,0.1,0.0,0.0,0.0,0.1
1446040289133010436,925,1446040289129833936,robocape,-10.6823609855,23.1240473401,94.9028753989,0.0,10.0,0.0,0.0,0.0,10.0,0.0,0.0,0.0,10.0,-4.35173837924,-0.894955284321,0.41478733978,1.0,0.0,0.0,0.0,1.0,0.0,0.0,0.0,1.0,-5.71092407227,1.19631225586,2.75307495117,0.1,0.0,0.0,0.0,0.1,0.0,0.0,0.0,0.1
1446040289169963977,926,1446040289166773080,robocape,-18.9532222665,20.2395582099,93.2649854232,0.0,10.0,0.0,0.0,0.0,10.0,0.0,0.0,0.0,10.0,-4.36332312999,-1.18537300119,-0.179230741362,1.0,0.0,0.0,0.0,1.0,0.0,0.0,0.0,1.0,-11.3763427734,1.86093017578,4.77087890625,0.1,0.0,0.0,0.0,0.1,0.0,0.0,0.0,0.1
1446040289204853936,927,1446040289201586961,robocape,-26.6534495908,18.5790842301,90.4656940873,0.0,10.0,0.0,0.0,0.0,10.0,0.0,0.0,0.0,10.0,-3.76823978441,-0.267381373444,-1.05008441782,1.0,0.0,0.0,0.0,1.0,0.0,0.0,0.0,1.0,1.85015258789,-11.5044763184,7.21739135742,0.1,0.0,0.0,0.0,0.1,0.0,0.0,0.0,0.1
1446040289238673977,928,1446040289235511064,robocape,-27.6034781941,19.9106885399,86.4816313635,0.0,10.0,0.0,0.0,0.0,10.0,0.0,0.0,0.0,10.0,0.491752695283,1.55741660548,-2.20935844033,1.0,0.0,0.0,0.0,1.0,0.0,0.0,0.0,1.0,15.7173156738,-19.62,19.5828771973,0.1,0.0,0.0,0.0,0.1,0.0,0.0,0.0,0.1
1446040289273394894,929,1446040289270061016,robocape,-25.6885403404,21.7022395812,82.8994946668,0.0,10.0,0.0,0.0,0.0,10.0,0.0,0.0,0.0,10.0,2.07060774754,1.65648619803,-2.1552962702,1.0,0.0,0.0,0.0,1.0,0.0,0.0,0.0,1.0,-5.04391113281,-2.24173828125,7.75746826172,0.1,0.0,0.0,0.0,0.1,0.0,0.0,0.0,0.1
1446040289307615602,930,1446040289304480075,robocape,-23.0385882916,23.0300112678,80.4064276408,0.0,10.0,0.0,0.0,0.0,10.0,0.0,0.0,0.0,10.0,2.14411099362,1.12598450889,-1.45861332904,1.0,0.0,0.0,0.0,1.0,0.0,0.0,0.0,1.0,-3.46798828125,-1.14841186523,9.3465637207,0.1,0.0,0.0,0.0,0.1,0.0,0.0,0.0,0.1
1446040289339947102,931,1446040289336822032,robocape,-19.9157891392,24.252270672,78.2689209359,0.0,10.0,0.0,0.0,0.0,10.0,0.0,0.0,0.0,10.0,2.30003907545,0.941960077561,-1.27032783997,1.0,0.0,0.0,0.0,1.0,0.0,0.0,0.0,1.0,-2.61416381836,-0.787961425781,10.6901696777,0.1,0.0,0.0,0.0,0.1,0.0,0.0,0.0,0.1
1446040289377522061,932,1446040289370575904,robocape,-16.0251664321,24.9689388116,76.7124551987,0.0,10.0,0.0,0.0,0.0,10.0,0.0,0.0,0.0,10.0,2.55516990788,0.539689594905,-1.06819391323,1.0,0.0,0.0,0.0,1.0,0.0,0.0,0.0,1.0,-5.84983520508,-0.329315185547,6.50846557617,0.1,0.0,0.0,0.0,0.1,0.0,0.0,0.0,0.1
1446040289418620144,933,1446040289415515899,robocape,-13.092027507,28.7501325256,74.1704724928,0.0,10.0,0.0,0.0,0.0,10.0,0.0,0.0,0.0,10.0,2.21481792056,2.17726734919,-0.873117363382,1.0,0.0,0.0,0.0,1.0,0.0,0.0,0.0,1.0,11.3344299316,-3.85837646484,15.4335058594,0.1,0.0,0.0,0.0,0.1,0.0,0.0,0.0,0.1
1446040289450917686,934,1446040289447576999,robocape,-8.60543777419,28.642965974,73.7701780993,0.0,10.0,0.0,0.0,0.0,10.0,0.0,0.0,0.0,10.0,2.51602143985,-0.0613858631263,-0.380166245609,1.0,0.0,0.0,0.0,1.0,0.0,0.0,0.0,1.0,2.60338623047,1.93637329102,5.77918212891,0.1,0.0,0.0,0.0,0.1,0.0,0.0,0.0,0.1
1446040289488208853,935,1446040289484003067,robocape,-4.43429715693,29.7688136371,73.2094184896,0.0,10.0,0.0,0.0,0.0,10.0,0.0,0.0,0.0,10.0,2.32707016051,0.616521792353,-0.183225482997,1.0,0.0,0.0,0.0,1.0,0.0,0.0,0.0,1.0,1.35917358398,0.956810302734,10.1656604004,0.1,0.0,0.0,0.0,0.1,0.0,0.0,0.0,0.1
1446040289521602853,936,1446040289518420934,robocape,-0.0303889704122,30.1207359226,72.9938781754,0.0,10.0,0.0,0.0,0.0,10.0,0.0,0.0,0.0,10.0,2.3534354553,0.200269713974,-0.0524642734746,1.0,0.0,0.0,0.0,1.0,0.0,0.0,0.0,1.0,0.877774658203,0.989143066406,5.99832641602,0.1,0.0,0.0,0.0,0.1,0.0,0.0,0.0,0.1
1446040289555017811,937,1446040289551805019,robocape,4.37162490365,30.5620121643,72.8809837662,0.0,10.0,0.0,0.0,0.0,10.0,0.0,0.0,0.0,10.0,2.3089606651,0.274971382551,0.0644484983799,1.0,0.0,0.0,0.0,1.0,0.0,0.0,0.0,1.0,0.354462890625,1.43701171875,9.52379516602,0.1,0.0,0.0,0.0,0.1,0.0,0.0,0.0,0.1
1446040289585780728,938,1446040289582669019,robocape,9.24317908216,30.8647007539,72.8693208956,0.0,10.0,0.0,0.0,0.0,10.0,0.0,0.0,0.0,10.0,2.52947040336,0.222240792967,0.132359106177,1.0,0.0,0.0,0.0,1.0,0.0,0.0,0.0,1.0,12.2684875488,5.36484375,10.6542443848,0.1,0.0,0.0,0.0,0.1,0.0,0.0,0.0,0.1
1446040289620391186,939,1446040289617315053,robocape,13.603410708,31.5272502592,73.2197905515,0.0,10.0,0.0,0.0,0.0,10.0,0.0,0.0,0.0,10.0,2.14597520639,0.542485914049,0.444082111771,1.0,0.0,0.0,0.0,1.0,0.0,0.0,0.0,1.0,2.29083618164,2.30879882813,8.83522705078,0.1,0.0,0.0,0.0,0.1,0.0,0.0,0.0,0.1
1446040289652653353,940,1446040289649350881,robocape,18.0917327307,31.8241192984,73.7451350107,0.0,10.0,0.0,0.0,0.0,10.0,0.0,0.0,0.0,10.0,2.17580261059,0.432497361029,0.599211245268,1.0,0.0,0.0,0.0,1.0,0.0,0.0,0.0,1.0,2.61176879883,2.60458374023,10.7464526367,0.1,0.0,0.0,0.0,0.1,0.0,0.0,0.0,0.1
1446040289688219353,941,1446040289684246063,robocape,22.597127933,32.0863119307,74.4833879908,0.0,10.0,0.0,0.0,0.0,10.0,0.0,0.0,0.0,10.0,2.14264625502,0.540089069068,0.775645667486,1.0,0.0,0.0,0.0,1.0,0.0,0.0,0.0,1.0,10.1680554199,3.80448852539,12.6552832031,0.1,0.0,0.0,0.0,0.1,0.0,0.0,0.0,0.1
1446040289718023061,942,1446040289714916944,robocape,26.7205386634,32.1628992386,75.3382180603,0.0,10.0,0.0,0.0,0.0,10.0,0.0,0.0,0.0,10.0,1.93385442556,0.564190676933,0.919056892186,1.0,0.0,0.0,0.0,1.0,0.0,0.0,0.0,1.0,3.02969970703,3.16262329102,10.5368884277,0.1,0.0,0.0,0.0,0.1,0.0,0.0,0.0,0.1
1446040289756642603,943,1446040289753391981,robocape,30.2049728913,31.8715589274,76.5773455844,0.0,10.0,0.0,0.0,0.0,10.0,0.0,0.0,0.0,10.0,1.52226287909,0.608798625192,1.28004837795,1.0,0.0,0.0,0.0,1.0,0.0,0.0,0.0,1.0,4.73136108398,8.49992431641,11.664942627,0.1,0.0,0.0,0.0,0.1,0.0,0.0,0.0,0.1
1446040289794452978,944,1446040289791259050,robocape,30.238476118,31.0064066604,78.320694797,0.0,10.0,0.0,0.0,0.0,10.0,0.0,0.0,0.0,10.0,-0.416651552543,0.576308059893,1.74197366902,1.0,0.0,0.0,0.0,1.0,0.0,0.0,0.0,1.0,-0.0383203125,8.46639404297,8.44843139648,0.1,0.0,0.0,0.0,0.1,0.0,0.0,0.0,0.1
1446040289827905061,945,1446040289824445009,robocape,29.2145901054,31.1959907839,80.1282113524,0.0,10.0,0.0,0.0,0.0,10.0,0.0,0.0,0.0,10.0,-0.992959612436,1.11040501651,1.57818926198,1.0,0.0,0.0,0.0,1.0,0.0,0.0,0.0,1.0,-1.36635864258,3.85119140625,11.4122680664,0.1,0.0,0.0,0.0,0.1,0.0,0.0,0.0,0.1
1446040289856886144,946,1446040289853732109,robocape,27.7337691314,30.5936124127,81.4385073152,0.0,10.0,0.0,0.0,0.0,10.0,0.0,0.0,0.0,10.0,-1.12145713503,0.53835801436,1.50521864811,1.0,0.0,0.0,0.0,1.0,0.0,0.0,0.0,1.0,-9.27950317383,2.69559448242,11.2541967773,0.1,0.0,0.0,0.0,0.1,0.0,0.0,0.0,0.1
1446040289898640269,947,1446040289895399093,robocape,25.9179512307,31.0260534816,82.7141650481,0.0,10.0,0.0,0.0,0.0,10.0,0.0,0.0,0.0,10.0,-1.30601419857,1.02371912303,1.32132737484,1.0,0.0,0.0,0.0,1.0,0.0,0.0,0.0,1.0,-13.8216577148,2.45369750977,11.072175293,0.1,0.0,0.0,0.0,0.1,0.0,0.0,0.0,0.1
1446040289932739019,948,1446040289929614067,robocape,23.9957602315,30.8558750423,83.5463454321,0.0,10.0,0.0,0.0,0.0,10.0,0.0,0.0,0.0,10.0,-1.26659941444,0.558997512808,1.20055301941,1.0,0.0,0.0,0.0,1.0,0.0,0.0,0.0,1.0,-4.42839111328,1.82620239258,7.27846435547,0.1,0.0,0.0,0.0,0.1,0.0,0.0,0.0,0.1
1446040289968013353,949,1446040289964329957,robocape,21.9437720141,30.7962129231,84.2431411964,0.0,10.0,0.0,0.0,0.0,10.0,0.0,0.0,0.0,10.0,-1.31746579126,0.559130670862,1.13730294352,1.0,0.0,0.0,0.0,1.0,0.0,0.0,0.0,1.0,-0.489781494141,3.04646484375,11.9607275391,0.1,0.0,0.0,0.0,0.1,0.0,0.0,0.0,0.1
1446040290001807228,950,1446040289998089075,robocape,20.0335289488,30.0275745485,84.5640319828,0.0,10.0,0.0,0.0,0.0,10.0,0.0,0.0,0.0,10.0,-1.14768927177,0.050200586548,0.998818566834,1.0,0.0,0.0,0.0,1.0,0.0,0.0,0.0,1.0,-12.6492956543,2.77223510742,16.017890625,0.1,0.0,0.0,0.0,0.1,0.0,0.0,0.0,0.1
1446040290033639353,951,1446040290030438899,robocape,17.9814223947,29.405303464,84.8607211505,0.0,10.0,0.0,0.0,0.0,10.0,0.0,0.0,0.0,10.0,-1.22705147225,0.102398543914,0.982040651967,1.0,0.0,0.0,0.0,1.0,0.0,0.0,0.0,1.0,-0.769998779297,1.21187988281,6.25579101563,0.1,0.0,0.0,0.0,0.1,0.0,0.0,0.0,0.1
1446040290070944186,952,1446040290067883968,robocape,16.1520053993,31.5391674815,85.232186685,0.0,10.0,0.0,0.0,0.0,10.0,0.0,0.0,0.0,10.0,-1.16579876718,1.58338242611,0.782436728265,1.0,0.0,0.0,0.0,1.0,0.0,0.0,0.0,1.0,19.5253967285,8.73942626953,19.1457861328,0.1,0.0,0.0,0.0,0.1,0.0,0.0,0.0,0.1
1446040290107945269,953,1446040290104686021,robocape,13.5900858076,30.9517325231,85.2165919732,0.0,10.0,0.0,0.0,0.0,10.0,0.0,0.0,0.0,10.0,-1.45395279713,0.0378168874791,0.800413065623,1.0,0.0,0.0,0.0,1.0,0.0,0.0,0.0,1.0,2.31837890625,1.76393188477,7.14434326172,0.1,0.0,0.0,0.0,0.1,0.0,0.0,0.0,0.1
1446040290142180894,954,1446040290139029026,robocape,10.9598058054,30.7698514057,85.075308659,0.0,10.0,0.0,0.0,0.0,10.0,0.0,0.0,0.0,10.0,-1.47286124087,0.217047628841,0.703740318053,1.0,0.0,0.0,0.0,1.0,0.0,0.0,0.0,1.0,0.186811523438,2.60338623047,10.9847570801,0.1,0.0,0.0,0.0,0.1,0.0,0.0,0.0,0.1
1446040290176330270,955,1446040290172996997,robocape,7.78909111792,30.0669423827,84.8497303738,0.0,10.0,0.0,0.0,0.0,10.0,0.0,0.0,0.0,10.0,-1.75249315533,-0.0854874709915,0.694286096184,1.0,0.0,0.0,0.0,1.0,0.0,0.0,0.0,1.0,7.15991088867,1.86572021484,10.5668261719,0.1,0.0,0.0,0.0,0.1,0.0,0.0,0.0,0.1
1446040290211653145,956,1446040290208349943,robocape,4.3205744279,29.4469367688,84.3435908952,0.0,10.0,0.0,0.0,0.0,10.0,0.0,0.0,0.0,10.0,-1.84357326461,-0.0970722217334,0.492418485556,1.0,0.0,0.0,0.0,1.0,0.0,0.0,0.0,1.0,2.2189855957,2.50638793945,9.49385742188,0.1,0.0,0.0,0.0,0.1,0.0,0.0,0.0,0.1
1446040290242629478,957,1446040290239584922,robocape,0.429896466444,28.6946983711,83.7328455384,0.0,10.0,0.0,0.0,0.0,10.0,0.0,0.0,0.0,10.0,-2.06528142536,-0.176567580272,0.439821054027,1.0,0.0,0.0,0.0,1.0,0.0,0.0,0.0,1.0,1.15918945312,2.38783447266,10.668614502,0.1,0.0,0.0,0.0,0.1,0.0,0.0,0.0,0.1
1446040290276635936,958,1446040290273374080,robocape,-3.92707754684,27.9661325477,82.877276024,0.0,10.0,0.0,0.0,0.0,10.0,0.0,0.0,0.0,10.0,-2.27314114844,-0.171374416147,0.289751926601,1.0,0.0,0.0,0.0,1.0,0.0,0.0,0.0,1.0,-0.310155029297,1.7280065918,8.32508789063,0.1,0.0,0.0,0.0,0.1,0.0,0.0,0.0,0.1
1446040290315171520,959,1446040290311928987,robocape,-8.72729485314,27.1672300524,81.6386815382,0.0,10.0,0.0,0.0,0.0,10.0,0.0,0.0,0.0,10.0,-2.42267764365,-0.200003397865,0.0137152796139,1.0,0.0,0.0,0.0,1.0,0.0,0.0,0.0,1.0,-0.118553466797,0.809516601563,7.95505737305,0.1,0.0,0.0,0.0,0.1,0.0,0.0,0.0,0.1
1446040290353225561,960,1446040290350030899,robocape,-13.7492583601,26.1430751009,80.1996188942,0.0,10.0,0.0,0.0,0.0,10.0,0.0,0.0,0.0,10.0,-2.51655407207,-0.277501385586,-0.161787036222,1.0,0.0,0.0,0.0,1.0,0.0,0.0,0.0,1.0,-1.11009155273,1.30408813477,9.12861694336,0.1,0.0,0.0,0.0,0.1,0.0,0.0,0.0,0.1
1446040290392042603,961,1446040290388665914,robocape,-18.9096229537,24.7083193015,78.4120029493,0.0,10.0,0.0,0.0,0.0,10.0,0.0,0.0,0.0,10.0,-2.49737931222,-0.415453130052,-0.549676448992,1.0,0.0,0.0,0.0,1.0,0.0,0.0,0.0,1.0,-7.96463745117,0.966390380859,9.22082519531,0.1,0.0,0.0,0.0,0.1,0.0,0.0,0.0,0.1
1446040290430650895,962,1446040290427068948,robocape,-24.3476312803,23.6826810711,76.1686019928,0.0,10.0,0.0,0.0,0.0,10.0,0.0,0.0,0.0,10.0,-2.58473099598,-0.0580569117637,-0.722249287629,1.0,0.0,0.0,0.0,1.0,0.0,0.0,0.0,1.0,2.02498901367,0.849034423828,9.95489868164,0.1,0.0,0.0,0.0,0.1,0.0,0.0,0.0,0.1
1446040290468499186,963,1446040290465342998,robocape,-29.6577490926,22.9332176506,72.9176173063,0.0,10.0,0.0,0.0,0.0,10.0,0.0,0.0,0.0,10.0,-2.21721476555,0.372842552611,-1.35941057843,1.0,0.0,0.0,0.0,1.0,0.0,0.0,0.0,1.0,-6.54798339844,-7.52994140625,12.8588598633,0.1,0.0,0.0,0.0,0.1,0.0,0.0,0.0,0.1
1446040290503463103,964,1446040290500291109,robocape,-30.8557958575,23.3385512691,69.039573861,0.0,10.0,0.0,0.0,0.0,10.0,0.0,0.0,0.0,10.0,0.406531540401,1.11000554235,-1.94623812463,1.0,0.0,0.0,0.0,1.0,0.0,0.0,0.0,1.0,5.49177978516,-7.86763916016,12.5750500488,0.1,0.0,0.0,0.0,0.1,0.0,0.0,0.0,0.1
1446040290540807645,965,1446040290537631988,robocape,-30.942707504,24.2060835848,65.4292022661,0.0,10.0,0.0,0.0,0.0,10.0,0.0,0.0,0.0,10.0,0.948617980286,1.25727835063,-1.66500831352,1.0,0.0,0.0,0.0,1.0,0.0,0.0,0.0,1.0,-1.08374633789,-1.4980847168,10.5740112305,0.1,0.0,0.0,0.0,0.1,0.0,0.0,0.0,0.1
1446040290573800103,966,1446040290570635080,robocape,-30.4231716155,24.9685363132,61.9533059842,0.0,10.0,0.0,0.0,0.0,10.0,0.0,0.0,0.0,10.0,1.28577417429,1.15234980368,-1.65914935912,1.0,0.0,0.0,0.0,1.0,0.0,0.0,0.0,1.0,-0.290994873047,-1.13523925781,10.0459094238,0.1,0.0,0.0,0.0,0.1,0.0,0.0,0.0,0.1
1446040290607975811,967,1446040290604212045,robocape,-29.0555549388,25.6017471771,58.811599245,0.0,10.0,0.0,0.0,0.0,10.0,0.0,0.0,0.0,10.0,1.68897676333,0.973385378424,-1.58138505529,1.0,0.0,0.0,0.0,1.0,0.0,0.0,0.0,1.0,0.420325927734,-0.589174804688,10.939251709,0.1,0.0,0.0,0.0,0.1,0.0,0.0,0.0,0.1
1446040290640382061,968,1446040290636821985,robocape,-27.0233665902,26.2844666354,55.8590817953,0.0,10.0,0.0,0.0,0.0,10.0,0.0,0.0,0.0,10.0,2.00722451359,0.897751603466,-1.50841444142,1.0,0.0,0.0,0.0,1.0,0.0,0.0,0.0,1.0,1.68489624023,-0.164058837891,10.6781945801,0.1,0.0,0.0,0.0,0.1,0.0,0.0,0.0,0.1
1446040290675884353,969,1446040290672560930,robocape,-23.8809579548,26.1829613168,53.8043690431,0.0,10.0,0.0,0.0,0.0,10.0,0.0,0.0,0.0,10.0,2.37980075009,0.279365598349,-1.34210003135,1.0,0.0,0.0,0.0,1.0,0.0,0.0,0.0,1.0,8.8555847168,-1.41306152344,5.69535644531,0.1,0.0,0.0,0.0,0.1,0.0,0.0,0.0,0.1
1446040290705416270,970,1446040290702290058,robocape,-19.8707064768,26.1661767099,51.9647833483,0.0,10.0,0.0,0.0,0.0,10.0,0.0,0.0,0.0,10.0,2.7567712024,0.209990251953,-1.24076675187,1.0,0.0,0.0,0.0,1.0,0.0,0.0,0.0,1.0,5.68817138672,2.18904785156,10.8841662598,0.1,0.0,0.0,0.0,0.1,0.0,0.0,0.0,0.1
1446040290743401103,971,1446040290740309000,robocape,-15.2176068731,26.8027804046,50.2944263243,0.0,10.0,0.0,0.0,0.0,10.0,0.0,0.0,0.0,10.0,2.98939832361,0.450740014496,-0.9904296094,1.0,0.0,0.0,0.0,1.0,0.0,0.0,0.0,1.0,1.7244140625,0.299377441406,7.47725097656,0.1,0.0,0.0,0.0,0.1,0.0,0.0,0.0,0.1
1446040290782006895,972,1446040290778512954,robocape,-9.4287850642,27.9536350263,48.931027976,0.0,10.0,0.0,0.0,0.0,10.0,0.0,0.0,0.0,10.0,3.46929995205,0.620250217879,-0.767523026161,1.0,0.0,0.0,0.0,1.0,0.0,0.0,0.0,1.0,5.2846105957,1.00231567383,9.66629882813,0.1,0.0,0.0,0.0,0.1,0.0,0.0,0.0,0.1
1446040290821059020,973,1446040290817027091,robocape,-2.71763948363,28.8852020224,48.324986894,0.0,10.0,0.0,0.0,0.0,10.0,0.0,0.0,0.0,10.0,3.71737340759,0.437690525155,-0.393348893005,1.0,0.0,0.0,0.0,1.0,0.0,0.0,0.0,1.0,6.26537109375,0.111368408203,9.00407592773,0.1,0.0,0.0,0.0,0.1,0.0,0.0,0.0,0.1
1446040290850754770,974,1446040290847565889,robocape,4.78571724211,29.5421400291,48.3349914263,0.0,10.0,0.0,0.0,0.0,10.0,0.0,0.0,0.0,10.0,3.94041314888,0.315318273065,-0.0545948023466,1.0,0.0,0.0,0.0,1.0,0.0,0.0,0.0,1.0,1.82380737305,1.42503662109,6.22226074219,0.1,0.0,0.0,0.0,0.1,0.0,0.0,0.0,0.1
1446040290880899978,975,1446040290877758979,robocape,12.6953546813,30.4302551009,48.8159415527,0.0,10.0,0.0,0.0,0.0,10.0,0.0,0.0,0.0,10.0,4.01950903326,0.560728567516,0.246475558887,1.0,0.0,0.0,0.0,1.0,0.0,0.0,0.0,1.0,0.392783203125,1.93278076172,7.52275634766,0.1,0.0,0.0,0.0,0.1,0.0,0.0,0.0,0.1
1446040290914139103,976,1446040290910912990,robocape,20.9095258947,31.1290327485,49.848127978,0.0,10.0,0.0,0.0,0.0,10.0,0.0,0.0,0.0,10.0,4.06278540097,0.677108707153,0.588159126744,1.0,0.0,0.0,0.0,1.0,0.0,0.0,0.0,1.0,1.01309326172,6.35877685547,8.5035168457,0.1,0.0,0.0,0.0,0.1,0.0,0.0,0.0,0.1
1446040290947499270,977,1446040290944324016,robocape,25.3767497732,31.6234733783,53.3380676953,0.0,10.0,0.0,0.0,0.0,10.0,0.0,0.0,0.0,10.0,1.48657652048,1.3273194873,1.88112383598,1.0,0.0,0.0,0.0,1.0,0.0,0.0,0.0,1.0,-3.50511108398,19.6194012451,15.1736462402,0.1,0.0,0.0,0.0,0.1,0.0,0.0,0.0,0.1
1446040290982592853,978,1446040290979228973,robocape,23.0451453838,31.7702704139,57.9686112344,0.0,10.0,0.0,0.0,0.0,10.0,0.0,0.0,0.0,10.0,-2.44464872264,1.45368648102,2.46462243081,1.0,0.0,0.0,0.0,1.0,0.0,0.0,0.0,1.0,-2.29802124023,6.26776611328,11.0494226074,0.1,0.0,0.0,0.0,0.1,0.0,0.0,0.0,0.1
1446040291012409937,979,1446040291008922100,robocape,19.978984188,31.7933137207,61.0500098281,0.0,10.0,0.0,0.0,0.0,10.0,0.0,0.0,0.0,10.0,-2.4523718898,0.961001679355,1.84157589379,1.0,0.0,0.0,0.0,1.0,0.0,0.0,0.0,1.0,-1.04542602539,2.3028112793,7.60897705078,0.1,0.0,0.0,0.0,0.1,0.0,0.0,0.0,0.1
1446040291044097770,980,1446040291041069984,robocape,16.9816028506,31.7890671764,63.315744605,0.0,10.0,0.0,0.0,0.0,10.0,0.0,0.0,0.0,10.0,-2.22587003909,0.724646132611,1.53171710096,1.0,0.0,0.0,0.0,1.0,0.0,0.0,0.0,1.0,-2.13515991211,2.02858154297,5.74325683594,0.1,0.0,0.0,0.0,0.1,0.0,0.0,0.0,0.1
1446040291078932145,981,1446040291075532913,robocape,13.4837586493,31.6148093049,65.0526972611,0.0,10.0,0.0,0.0,0.0,10.0,0.0,0.0,0.0,10.0,-2.37553969235,0.489355850302,1.351021621,1.0,0.0,0.0,0.0,1.0,0.0,0.0,0.0,1.0,-2.07049438477,2.73032226563,6.52642822266,0.1,0.0,0.0,0.0,0.1,0.0,0.0,0.0,0.1
1446040291113888478,982,1446040291110665082,robocape,9.95753216714,31.700623644,66.0848293309,0.0,10.0,0.0,0.0,0.0,10.0,0.0,0.0,0.0,10.0,-2.22147582329,0.469115826017,1.00374541485,1.0,0.0,0.0,0.0,1.0,0.0,0.0,0.0,1.0,1.56873779297,1.64058837891,7.82572631836,0.1,0.0,0.0,0.0,0.1,0.0,0.0,0.0,0.1
1446040291148065187,983,1446040291144907951,robocape,6.49762332619,31.0967110029,66.5199810238,0.0,10.0,0.0,0.0,0.0,10.0,0.0,0.0,0.0,10.0,-2.02693190566,-0.0379500455336,0.701742947236,1.0,0.0,0.0,0.0,1.0,0.0,0.0,0.0,1.0,-4.03560791016,1.31366821289,10.4542602539,0.1,0.0,0.0,0.0,0.1,0.0,0.0,0.0,0.1
1446040291185180603,984,1446040291181489944,robocape,3.30335638577,30.4638152126,66.5690655449,0.0,10.0,0.0,0.0,0.0,10.0,0.0,0.0,0.0,10.0,-1.78671477533,-0.126100677615,0.468716351854,1.0,0.0,0.0,0.0,1.0,0.0,0.0,0.0,1.0,-2.74109985352,1.37354370117,9.15136962891,0.1,0.0,0.0,0.0,0.1,0.0,0.0,0.0,0.1
1446040291221008853,985,1446040291217885017,robocape,0.287756321786,30.0264949564,66.3038095771,0.0,10.0,0.0,0.0,0.0,10.0,0.0,0.0,0.0,10.0,-1.61573983335,-0.0581900698182,0.280031388622,1.0,0.0,0.0,0.0,1.0,0.0,0.0,0.0,1.0,-2.07408691406,1.10649902344,10.2111657715,0.1,0.0,0.0,0.0,0.1,0.0,0.0,0.0,0.1
1446040291258046812,986,1446040291254595041,robocape,-2.68615495426,29.5422324525,65.8499425337,0.0,10.0,0.0,0.0,0.0,10.0,0.0,0.0,0.0,10.0,-1.55182396719,-0.0973385378424,0.159523349296,1.0,0.0,0.0,0.0,1.0,0.0,0.0,0.0,1.0,-1.90164550781,1.05380859375,9.21843017578,0.1,0.0,0.0,0.0,0.1,0.0,0.0,0.0,0.1
1446040291292097270,987,1446040291288863897,robocape,-5.67239912464,29.0232779521,65.2348355126,0.0,10.0,0.0,0.0,0.0,10.0,0.0,0.0,0.0,10.0,-1.5254586724,-0.1167796138,0.0552605926191,1.0,0.0,0.0,0.0,1.0,0.0,0.0,0.0,1.0,-0.177231445313,1.3376184082,9.99082397461,0.1,0.0,0.0,0.0,0.1,0.0,0.0,0.0,0.1
1446040291328765437,988,1446040291324346065,robocape,-8.79250813934,28.5827834731,64.4690063061,0.0,10.0,0.0,0.0,0.0,10.0,0.0,0.0,0.0,10.0,-1.57419452035,-0.0595216503633,-0.0167779148675,1.0,0.0,0.0,0.0,1.0,0.0,0.0,0.0,1.0,0.857416992188,1.20828735352,9.4232043457,0.1,0.0,0.0,0.0,0.1,0.0,0.0,0.0,0.1
1446040291364287353,989,1446040291361107110,robocape,-11.9370875373,27.3128871562,63.8186589155,0.0,10.0,0.0,0.0,0.0,10.0,0.0,0.0,0.0,10.0,-1.61760404611,-0.502405339643,-0.0954743250793,1.0,0.0,0.0,0.0,1.0,0.0,0.0,0.0,1.0,-3.89909179688,1.0765612793,6.37314697266,0.1,0.0,0.0,0.0,0.1,0.0,0.0,0.0,0.1
1446040291403899437,990,1446040291400713920,robocape,-15.4145756687,26.4479530997,62.8103791528,0.0,10.0,0.0,0.0,0.0,10.0,0.0,0.0,0.0,10.0,-1.72919049579,-0.239018707835,-0.232227647055,1.0,0.0,0.0,0.0,1.0,0.0,0.0,0.0,1.0,1.21786743164,1.48491210938,7.53832397461,0.1,0.0,0.0,0.0,0.1,0.0,0.0,0.0,0.1
1446040291439388812,991,1446040291436176061,robocape,-19.4044671642,25.9865372856,61.4963963674,0.0,10.0,0.0,0.0,0.0,10.0,0.0,0.0,0.0,10.0,-1.97433447413,0.0470047932399,-0.274705066442,1.0,0.0,0.0,0.0,1.0,0.0,0.0,0.0,1.0,3.94938720703,1.58909545898,10.9560168457,0.1,0.0,0.0,0.0,0.1,0.0,0.0,0.0,0.1
1446040291478401312,992,1446040291473846912,robocape,-23.2900836572,24.6644713141,60.4854800566,0.0,10.0,0.0,0.0,0.0,10.0,0.0,0.0,0.0,10.0,-2.0133497841,-0.397210476585,-0.320245121082,1.0,0.0,0.0,0.0,1.0,0.0,0.0,0.0,1.0,8.73224121094,3.27279418945,11.1823461914,0.1,0.0,0.0,0.0,0.1,0.0,0.0,0.0,0.1
1446040291508039812,993,1446040291504972934,robocape,-27.9996277773,23.7975843067,58.7075458351,0.0,10.0,0.0,0.0,0.0,10.0,0.0,0.0,0.0,10.0,-2.32214331249,0.0214384467751,-0.56645436386,1.0,0.0,0.0,0.0,1.0,0.0,0.0,0.0,1.0,3.82364868164,1.81781982422,8.51549194336,0.1,0.0,0.0,0.0,0.1,0.0,0.0,0.0,0.1
1446040291541851728,994,1446040291538770914,robocape,-33.239563478,22.9963517991,56.4676204794,0.0,10.0,0.0,0.0,0.0,10.0,0.0,0.0,0.0,10.0,-2.57101571636,0.240483446434,-0.710398220779,1.0,0.0,0.0,0.0,1.0,0.0,0.0,0.0,1.0,3.83203125,1.04422851562,10.7692053223,0.1,0.0,0.0,0.0,0.1,0.0,0.0,0.0,0.1
1446040291572561562,995,1446040291569473028,robocape,-36.5111509305,22.0839186966,53.3504984177,0.0,10.0,0.0,0.0,0.0,10.0,0.0,0.0,0.0,10.0,-1.12997925052,0.475374254579,-1.45288753269,1.0,0.0,0.0,0.0,1.0,0.0,0.0,0.0,1.0,6.22106323242,-11.7535583496,11.0027197266,0.1,0.0,0.0,0.0,0.1,0.0,0.0,0.0,0.1
1446040291603446270,996,1446040291600254058,robocape,-38.1588107785,22.1465953258,49.1946823554,0.0,10.0,0.0,0.0,0.0,10.0,0.0,0.0,0.0,10.0,0.102531701968,1.23224463638,-1.76754001549,1.0,0.0,0.0,0.0,1.0,0.0,0.0,0.0,1.0,2.46926513672,-8.51668945313,13.6743640137,0.1,0.0,0.0,0.0,0.1,0.0,0.0,0.0,0.1
1446040291636970354,997,1446040291633832931,robocape,-41.8724663525,26.7728487726,41.0189983949,0.0,10.0,0.0,0.0,0.0,10.0,0.0,0.0,0.0,10.0,-0.156327555988,4.36318997193,-1.44622962997,1.0,0.0,0.0,0.0,1.0,0.0,0.0,0.0,1.0,-14.8910339355,-9.04359375,19.6194012451,0.1,0.0,0.0,0.0,0.1,0.0,0.0,0.0,0.1
1446040291666988104,998,1446040291663912057,robocape,-39.901790406,24.9627345263,39.9119152638,0.0,10.0,0.0,0.0,0.0,10.0,0.0,0.0,0.0,10.0,1.58671137747,-0.434627889901,-1.31533526239,1.0,0.0,0.0,0.0,1.0,0.0,0.0,0.0,1.0,3.79610595703,0.784368896484,-1.94116333008,0.1,0.0,0.0,0.0,0.1,0.0,0.0,0.0,0.1
1446040291702957479,999,1446040291699731111,robocape,-39.2429124863,24.217785239,36.7509401066,0.0,10.0,0.0,0.0,0.0,10.0,0.0,0.0,0.0,10.0,1.2933641834,0.597480190559,-1.66474199741,1.0,0.0,0.0,0.0,1.0,0.0,0.0,0.0,1.0,-7.33235229492,-1.25618774414,2.78900024414,0.1,0.0,0.0,0.0,0.1,0.0,0.0,0.0,0.1
1446040291740132395,1000,1446040291736732959,robocape,-38.0592552617,24.183695993,33.0340079353,0.0,10.0,0.0,0.0,0.0,10.0,0.0,0.0,0.0,10.0,1.69630045633,1.0170612203,-1.66354357492,1.0,0.0,0.0,0.0,1.0,0.0,0.0,0.0,1.0,9.57528808594,-2.13994995117,19.6194012451,0.1,0.0,0.0,0.0,0.1,0.0,0.0,0.0,0.1
1446040291775272562,1001,1446040291771764039,robocape,-36.6984850502,22.6200088359,32.1053967637,0.0,10.0,0.0,0.0,0.0,10.0,0.0,0.0,0.0,10.0,1.04995125976,-0.418515765306,-0.98244012613,1.0,0.0,0.0,0.0,1.0,0.0,0.0,0.0,1.0,3.97333740234,7.27846435547,15.4430859375,0.1,0.0,0.0,0.0,0.1,0.0,0.0,0.0,0.1
1446040291807919062,1002,1446040291804538011,robocape,-35.4309976444,21.207491161,30.7671111481,0.0,10.0,0.0,0.0,0.0,10.0,0.0,0.0,0.0,10.0,1.0688597035,-0.253932409939,-1.09096394055,1.0,0.0,0.0,0.0,1.0,0.0,0.0,0.0,1.0,0.604742431641,1.03225341797,0.790356445313,0.1,0.0,0.0,0.0,0.1,0.0,0.0,0.0,0.1
1446040291837998395,1003,1446040291834903955,robocape,-35.3692419769,22.4344762835,27.4538227881,0.0,10.0,0.0,0.0,0.0,10.0,0.0,0.0,0.0,10.0,0.713061381869,1.44476489137,-0.972719588151,1.0,0.0,0.0,0.0,1.0,0.0,0.0,0.0,1.0,11.475736084,3.69671264648,14.8179858398,0.1,0.0,0.0,0.0,0.1,0.0,0.0,0.0,0.1
1446040291871028395,1004,1446040291867903947,robocape,-34.7525524567,21.6646630578,26.0033541243,0.0,10.0,0.0,0.0,0.0,10.0,0.0,0.0,0.0,10.0,0.663260269484,0.0556600667827,-0.853276813261,1.0,0.0,0.0,0.0,1.0,0.0,0.0,0.0,1.0,-3.38655761719,1.25139770508,14.1689355469,0.1,0.0,0.0,0.0,0.1,0.0,0.0,0.0,0.1
1446040291908698062,1005,1446040291905409097,robocape,-34.4010468132,23.0859826279,23.0115149147,0.0,10.0,0.0,0.0,0.0,10.0,0.0,0.0,0.0,10.0,0.793089372626,1.42998434732,-0.780838831611,1.0,0.0,0.0,0.0,1.0,0.0,0.0,0.0,1.0,19.6194012451,-5.77079956055,8.66997070313,0.1,0.0,0.0,0.0,0.1,0.0,0.0,0.0,0.1
1446040291943428270,1006,1446040291940202951,robocape,-33.5287831042,22.4348767718,21.4413212508,0.0,10.0,0.0,0.0,0.0,10.0,0.0,0.0,0.0,10.0,0.838496269211,0.113850136601,-0.866992092875,1.0,0.0,0.0,0.0,1.0,0.0,0.0,0.0,1.0,-12.7355163574,0.0934057617188,5.49058227539,0.1,0.0,0.0,0.0,0.1,0.0,0.0,0.0,0.1
1446040291981218854,1007,1446040291977391004,robocape,-33.0054408748,22.4810849664,19.4957842897,0.0,10.0,0.0,0.0,0.0,10.0,0.0,0.0,0.0,10.0,0.686962403186,0.525841157236,-0.791092001808,1.0,0.0,0.0,0.0,1.0,0.0,0.0,0.0,1.0,-0.0275427246094,0.851429443359,11.7140405273,0.1,0.0,0.0,0.0,0.1,0.0,0.0,0.0,0.1
1446040292018858020,1008,1446040292014477014,robocape,-32.421622306,22.1191338391,18.0070435225,0.0,10.0,0.0,0.0,0.0,10.0,0.0,0.0,0.0,10.0,0.623978643406,0.219710789932,-0.724646132611,1.0,0.0,0.0,0.0,1.0,0.0,0.0,0.0,1.0,1.03225341797,-0.477806396484,9.10346923828,0.1,0.0,0.0,0.0,0.1,0.0,0.0,0.0,0.1
1446040292053700520,1009,1446040292050549983,robocape,-31.6360930779,21.4217790608,16.8085357687,0.0,10.0,0.0,0.0,0.0,10.0,0.0,0.0,0.0,10.0,0.677774497425,-0.016644756813,-0.709865588561,1.0,0.0,0.0,0.0,1.0,0.0,0.0,0.0,1.0,-3.25842407227,0.0431103515625,8.56458984375,0.1,0.0,0.0,0.0,0.1,0.0,0.0,0.0,0.1
1446040292087249229,1010,1446040292084142923,robocape,-30.7523881606,21.1633591798,15.3215407297,0.0,10.0,0.0,0.0,0.0,10.0,0.0,0.0,0.0,10.0,0.77458040305,0.245277136396,-0.709199798288,1.0,0.0,0.0,0.0,1.0,0.0,0.0,0.0,1.0,-0.738863525391,0.489781494141,9.43517944336,0.1,0.0,0.0,0.0,0.1,0.0,0.0,0.0,0.1
1446040292117885979,1011,1446040292114520072,robocape,-29.6804490842,20.9249705915,13.8759035281,0.0,10.0,0.0,0.0,0.0,10.0,0.0,0.0,0.0,10.0,0.86566051233,0.230230276237,-0.693220831748,1.0,0.0,0.0,0.0,1.0,0.0,0.0,0.0,1.0,0.359252929688,0.614322509766,11.3571826172,0.1,0.0,0.0,0.0,0.1,0.0,0.0,0.0,0.1
1446040292149413312,1012,1446040292145942926,robocape,-28.3728811732,20.7392091644,12.4892451574,0.0,10.0,0.0,0.0,0.0,10.0,0.0,0.0,0.0,10.0,0.978179068386,0.223971847676,-0.661396056721,1.0,0.0,0.0,0.0,1.0,0.0,0.0,0.0,1.0,0.635877685547,-0.281414794922,7.59700195313,0.1,0.0,0.0,0.0,0.1,0.0,0.0,0.0,0.1
1446040292180132895,1013,1446040292176325082,robocape,-26.0683390542,19.078892147,12.0045871058,0.0,10.0,0.0,0.0,0.0,10.0,0.0,0.0,0.0,10.0,1.38084902521,-0.714392962414,-0.660730266449,1.0,0.0,0.0,0.0,1.0,0.0,0.0,0.0,1.0,-8.25563232422,-0.0910107421875,6.80065795898,0.1,0.0,0.0,0.0,0.1,0.0,0.0,0.0,0.1
1446040292212589562,1014,1446040292209247112,robocape,-23.8963365442,18.9698346113,10.797224235,0.0,10.0,0.0,0.0,0.0,10.0,0.0,0.0,0.0,10.0,1.3896374568,0.170841783929,-0.59335229087,1.0,0.0,0.0,0.0,1.0,0.0,0.0,0.0,1.0,3.43326049805,1.97828613281,7.58023681641,0.1,0.0,0.0,0.0,0.1,0.0,0.0,0.0,0.1
1446040292251235187,1015,1446040292247653007,robocape,-21.0586521147,19.0182546566,9.69862499123,0.0,10.0,0.0,0.0,0.0,10.0,0.0,0.0,0.0,10.0,1.72106785446,0.195476024012,-0.52211273171,1.0,0.0,0.0,0.0,1.0,0.0,0.0,0.0,1.0,-1.64178588867,0.787961425781,10.6841821289,0.1,0.0,0.0,0.0,0.1,0.0,0.0,0.0,0.1
1446040292280888729,1016,1446040292277751922,robocape,-17.4737503394,19.1127626108,8.65508450492,0.0,10.0,0.0,0.0,0.0,10.0,0.0,0.0,0.0,10.0,2.10176673229,0.174703367509,-0.501073759098,1.0,0.0,0.0,0.0,1.0,0.0,0.0,0.0,1.0,-8.19455932617,-0.329315185547,13.5869458008,0.1,0.0,0.0,0.0,0.1,0.0,0.0,0.0,0.1
1446040292317315521,1017,1446040292313867092,robocape,-12.7575677046,18.6462531564,8.15098335878,0.0,10.0,0.0,0.0,0.0,10.0,0.0,0.0,0.0,10.0,2.59804680143,-0.222640267131,-0.337555668168,1.0,0.0,0.0,0.0,1.0,0.0,0.0,0.0,1.0,-3.03329223633,-0.302969970703,4.38288574219,0.1,0.0,0.0,0.0,0.1,0.0,0.0,0.0,0.1
1446040292352671521,1018,1446040292349453926,robocape,-7.0936972325,19.1538670214,7.58542628679,0.0,10.0,0.0,0.0,0.0,10.0,0.0,0.0,0.0,10.0,3.08007895873,0.275104540605,-0.249271878031,1.0,0.0,0.0,0.0,1.0,0.0,0.0,0.0,1.0,-1.45856689453,0.637075195313,9.00407592773,0.1,0.0,0.0,0.0,0.1,0.0,0.0,0.0,0.1
1446040292397774062,1019,1446040292394242048,robocape,0.157119528831,19.7723561364,7.35300105389,0.0,10.0,0.0,0.0,0.0,10.0,0.0,0.0,0.0,10.0,3.84334092715,0.311723005594,-0.103596966404,1.0,0.0,0.0,0.0,1.0,0.0,0.0,0.0,1.0,0.00239501953125,0.197589111328,4.74932373047,0.1,0.0,0.0,0.0,0.1,0.0,0.0,0.0,0.1
1446040292433027562,1020,1446040292429635047,robocape,5.81306574177,20.715155211,9.83559882831,0.0,10.0,0.0,0.0,0.0,10.0,0.0,0.0,0.0,10.0,2.52161407814,0.606002306048,1.21586619568,1.0,0.0,0.0,0.0,1.0,0.0,0.0,0.0,1.0,-9.01365600586,19.6194012451,16.6334106445,0.1,0.0,0.0,0.0,0.1,0.0,0.0,0.0,0.1
1446040292465087271,1021,1446040292461801052,robocape,5.82691028475,22.1840120415,14.0192309581,0.0,10.0,0.0,0.0,0.0,10.0,0.0,0.0,0.0,10.0,-0.784833573246,1.05953863969,1.998436082,1.0,0.0,0.0,0.0,1.0,0.0,0.0,0.0,1.0,5.29299316406,16.666940918,10.3704345703,0.1,0.0,0.0,0.0,0.1,0.0,0.0,0.0,0.1
1446040292500277687,1022,1446040292496726989,robocape,4.25968007532,24.4559130154,17.764052865,0.0,10.0,0.0,0.0,0.0,10.0,0.0,0.0,0.0,10.0,-1.59749717988,1.46966544756,1.7695373863,1.0,0.0,0.0,0.0,1.0,0.0,0.0,0.0,1.0,-1.48131958008,2.97700927734,9.92256591797,0.1,0.0,0.0,0.0,0.1,0.0,0.0,0.0,0.1
1446040292534379062,1023,1446040292531269073,robocape,3.82665124042,25.1341278047,20.7957923404,0.0,10.0,0.0,0.0,0.0,10.0,0.0,0.0,0.0,10.0,-0.898017919575,0.562459622225,1.49243547488,1.0,0.0,0.0,0.0,1.0,0.0,0.0,0.0,1.0,-0.147293701172,2.35669921875,16.3699584961,0.1,0.0,0.0,0.0,0.1,0.0,0.0,0.0,0.1
1446040292568106146,1024,1446040292564723014,robocape,4.30772723779,26.1156589321,23.3873874304,0.0,10.0,0.0,0.0,0.0,10.0,0.0,0.0,0.0,10.0,-0.341816725912,0.722648761793,1.28510838402,1.0,0.0,0.0,0.0,1.0,0.0,0.0,0.0,1.0,3.16022827148,1.23343505859,3.75419311523,0.1,0.0,0.0,0.0,0.1,0.0,0.0,0.0,0.1
1446040292601840187,1025,1446040292598602056,robocape,5.78188211363,27.5588220605,25.7647839428,0.0,10.0,0.0,0.0,0.0,10.0,0.0,0.0,0.0,10.0,0.205729194209,0.999750673216,1.16699718967,1.0,0.0,0.0,0.0,1.0,0.0,0.0,0.0,1.0,2.3411315918,1.32923583984,12.952265625,0.1,0.0,0.0,0.0,0.1,0.0,0.0,0.0,0.1
1446040292636169187,1026,1446040292632787942,robocape,8.20107808453,28.2942455642,27.9145818641,0.0,10.0,0.0,0.0,0.0,10.0,0.0,0.0,0.0,10.0,0.743021944132,0.641688664655,1.06153601051,1.0,0.0,0.0,0.0,1.0,0.0,0.0,0.0,1.0,0.898132324219,0.548459472656,8.87953491211,0.1,0.0,0.0,0.0,0.1,0.0,0.0,0.0,0.1
1446040292668847354,1027,1446040292665553092,robocape,11.7237329609,29.0933360301,30.3163576954,0.0,10.0,0.0,0.0,0.0,10.0,0.0,0.0,0.0,10.0,1.25900940533,0.774447244995,1.16593192524,1.0,0.0,0.0,0.0,1.0,0.0,0.0,0.0,1.0,1.85733764648,1.67172363281,9.61360839844,0.1,0.0,0.0,0.0,0.1,0.0,0.0,0.0,0.1
1446040292703760937,1028,1446040292700376033,robocape,14.5868391367,29.6366967146,33.6287448646,0.0,10.0,0.0,0.0,0.0,10.0,0.0,0.0,0.0,10.0,0.681369764897,0.847551016918,1.6112124595,1.0,0.0,0.0,0.0,1.0,0.0,0.0,0.0,1.0,3.64521972656,9.01964355469,9.96447875977,0.1,0.0,0.0,0.0,0.1,0.0,0.0,0.0,0.1
1446040292739203646,1029,1446040292735380887,robocape,15.7674722138,30.3452791244,37.0046539784,0.0,10.0,0.0,0.0,0.0,10.0,0.0,0.0,0.0,10.0,-0.229830802074,1.01839280085,1.62013404915,1.0,0.0,0.0,0.0,1.0,0.0,0.0,0.0,1.0,-0.771196289063,4.96846801758,9.23639282227,0.1,0.0,0.0,0.0,0.1,0.0,0.0,0.0,0.1
1446040292774102937,1030,1446040292770997047,robocape,16.895154705,31.3614294041,40.1980253295,0.0,10.0,0.0,0.0,0.0,10.0,0.0,0.0,0.0,10.0,-0.228632379583,1.21173829599,1.51214286695,1.0,0.0,0.0,0.0,1.0,0.0,0.0,0.0,1.0,3.93980712891,4.54574707031,10.3680395508,0.1,0.0,0.0,0.0,0.1,0.0,0.0,0.0,0.1
1446040292813383354,1031,1446040292810117959,robocape,18.4631314378,32.2096765712,43.2482969638,0.0,10.0,0.0,0.0,0.0,10.0,0.0,0.0,0.0,10.0,0.0215716048296,1.15834191613,1.47672282445,1.0,0.0,0.0,0.0,1.0,0.0,0.0,0.0,1.0,3.15184570313,4.00088012695,10.9691894531,0.1,0.0,0.0,0.0,0.1,0.0,0.0,0.0,0.1
