%time,field.header.seq,field.header.stamp,field.header.frame_id,field.orientation.x,field.orientation.y,field.orientation.z,field.orientation.w,field.orientation_covariance0,field.orientation_covariance1,field.orientation_covariance2,field.orientation_covariance3,field.orientation_covariance4,field.orientation_covariance5,field.orientation_covariance6,field.orientation_covariance7,field.orientation_covariance8,field.angular_velocity.x,field.angular_velocity.y,field.angular_velocity.z,field.angular_velocity_covariance0,field.angular_velocity_covariance1,field.angular_velocity_covariance2,field.angular_velocity_covariance3,field.angular_velocity_covariance4,field.angular_velocity_covariance5,field.angular_velocity_covariance6,field.angular_velocity_covariance7,field.angular_velocity_covariance8,field.linear_acceleration.x,field.linear_acceleration.y,field.linear_acceleration.z,field.linear_acceleration_covariance0,field.linear_acceleration_covariance1,field.linear_acceleration_covariance2,field.linear_acceleration_covariance3,field.linear_acceleration_covariance4,field.linear_acceleration_covariance5,field.linear_acceleration_covariance6,field.linear_acceleration_covariance7,field.linear_acceleration_covariance8
1446040145784409451,1,1446040145751595973,robocape,9.8622889778,20.3005387555,8.20528105079,0.0,10.0,0.0,0.0,0.0,10.0,0.0,0.0,0.0,10.0,0.00612527050718,0.0237021337017,0.00612527050718,1.0,0.0,0.0,0.0,1.0,0.0,0.0,0.0,1.0,-0.158071289063,1.59268798828,10.1680554199,0.1,0.0,0.0,0.0,0.1,0.0,0.0,0.0,0.1
1446040145805987201,2,1446040145791177034,robocape,9.8567365035,20.3013188879,8.20324199552,0.0,10.0,0.0,0.0,0.0,10.0,0.0,0.0,0.0,10.0,0.0066579027252,0.0234358175927,0.00599211245268,1.0,0.0,0.0,0.0,1.0,0.0,0.0,0.0,1.0,-0.252674560547,1.6058605957,10.1920056152,0.1,0.0,0.0,0.0,0.1,0.0,0.0,0.0,0.1
1446040145842187284,3,1446040145825299978,robocape,9.8509125369,20.3019950889,8.20036816315,0.0,10.0,0.0,0.0,0.0,10.0,0.0,0.0,0.0,10.0,0.0066579027252,0.0233026595382,0.00559263828917,1.0,0.0,0.0,0.0,1.0,0.0,0.0,0.0,1.0,-0.296982421875,1.60346557617,10.1860180664,0.1,0.0,0.0,0.0,0.1,0.0,0.0,0.0,0.1
1446040145894734784,4,1446040145885585069,robocape,9.84226134714,20.3046019985,8.19812164,0.0,10.0,0.0,0.0,0.0,10.0,0.0,0.0,0.0,10.0,0.00506000607115,0.0243679239742,0.00572579634367,1.0,0.0,0.0,0.0,1.0,0.0,0.0,0.0,1.0,-0.293389892578,1.61065063477,10.1465002441,0.1,0.0,0.0,0.0,0.1,0.0,0.0,0.0,0.1
1446040145925093201,5,1446040145921031951,robocape,9.83368563387,20.3038308399,8.19665845167,0.0,10.0,0.0,0.0,0.0,10.0,0.0,0.0,0.0,10.0,0.00492684801665,0.0226368692657,0.00639158661619,1.0,0.0,0.0,0.0,1.0,0.0,0.0,0.0,1.0,-0.326920166016,1.61663818359,10.1644628906,0.1,0.0,0.0,0.0,0.1,0.0,0.0,0.0,0.1
1446040145962659992,6,1446040145959491968,robocape,9.82593093541,20.3040269841,8.19536114726,0.0,10.0,0.0,0.0,0.0,10.0,0.0,0.0,0.0,10.0,0.00532632218016,0.0231695014837,0.00639158661619,1.0,0.0,0.0,0.0,1.0,0.0,0.0,0.0,1.0,-0.280217285156,1.59987304688,10.1764379883,0.1,0.0,0.0,0.0,0.1,0.0,0.0,0.0,0.1
1446040145995843992,7,1446040145992532968,robocape,9.82024309244,20.3049293997,8.19417830121,0.0,10.0,0.0,0.0,0.0,10.0,0.0,0.0,0.0,10.0,0.00639158661619,0.0235689756472,0.00639158661619,1.0,0.0,0.0,0.0,1.0,0.0,0.0,0.0,1.0,-0.3065625,1.57951538086,10.157277832,0.1,0.0,0.0,0.0,0.1,0.0,0.0,0.0,0.1
1446040146035738242,8,1446040146032753944,robocape,9.81467153606,20.3066475022,8.19259014144,0.0,10.0,0.0,0.0,0.0,10.0,0.0,0.0,0.0,10.0,0.00652474467069,0.0239684498107,0.00612527050718,1.0,0.0,0.0,0.0,1.0,0.0,0.0,0.0,1.0,-0.277822265625,1.62741577148,10.1704504395,0.1,0.0,0.0,0.0,0.1,0.0,0.0,0.0,0.1
1446040146071351659,9,1446040146068337917,robocape,9.80938879631,20.3074795879,8.19030167362,0.0,10.0,0.0,0.0,0.0,10.0,0.0,0.0,0.0,10.0,0.0067910607797,0.0234358175927,0.00585895439817,1.0,0.0,0.0,0.0,1.0,0.0,0.0,0.0,1.0,-0.292192382813,1.61663818359,10.1584753418,0.1,0.0,0.0,0.0,0.1,0.0,0.0,0.0,0.1
1446040146106364951,10,1446040146103283882,robocape,9.80424234022,20.3083753271,8.18912224144,0.0,10.0,0.0,0.0,0.0,10.0,0.0,0.0,0.0,10.0,0.0066579027252,0.0235689756472,0.00639158661619,1.0,0.0,0.0,0.0,1.0,0.0,0.0,0.0,1.0,-0.322130126953,1.61065063477,10.1429077148,0.1,0.0,0.0,0.0,0.1,0.0,0.0,0.0,0.1
1446040146145325367,11,1446040146141931056,robocape,9.79593803997,20.3087604165,8.18677487759,0.0,10.0,0.0,0.0,0.0,10.0,0.0,0.0,0.0,10.0,0.00519316412565,0.0231695014837,0.00585895439817,1.0,0.0,0.0,0.0,1.0,0.0,0.0,0.0,1.0,-0.271834716797,1.63699584961,10.2063757324,0.1,0.0,0.0,0.0,0.1,0.0,0.0,0.0,0.1
1446040146178299701,12,1446040146175232887,robocape,9.78750577291,20.3079831599,8.18395675709,0.0,10.0,0.0,0.0,0.0,10.0,0.0,0.0,0.0,10.0,0.00519316412565,0.0225037112112,0.00572579634367,1.0,0.0,0.0,0.0,1.0,0.0,0.0,0.0,1.0,-0.293389892578,1.58909545898,10.1812280273,0.1,0.0,0.0,0.0,0.1,0.0,0.0,0.0,0.1
1446040146216700326,13,1446040146213324069,robocape,9.77916046312,20.3080490439,8.18210975058,0.0,10.0,0.0,0.0,0.0,10.0,0.0,0.0,0.0,10.0,0.00506000607115,0.0230363434292,0.00612527050718,1.0,0.0,0.0,0.0,1.0,0.0,0.0,0.0,1.0,-0.2682421875,1.64657592773,10.1680554199,0.1,0.0,0.0,0.0,0.1,0.0,0.0,0.0,0.1
1446040146256992409,14,1446040146253582000,robocape,9.77231110917,20.3093583142,8.18019939305,0.0,10.0,0.0,0.0,0.0,10.0,0.0,0.0,0.0,10.0,0.00585895439817,0.0237021337017,0.00599211245268,1.0,0.0,0.0,0.0,1.0,0.0,0.0,0.0,1.0,-0.281414794922,1.62262573242,10.1632653809,0.1,0.0,0.0,0.0,0.1,0.0,0.0,0.0,0.1
1446040146292750493,15,1446040146289583921,robocape,9.76745802916,20.3092983776,8.17886744881,0.0,10.0,0.0,0.0,0.0,10.0,0.0,0.0,0.0,10.0,0.0067910607797,0.0230363434292,0.00639158661619,1.0,0.0,0.0,0.0,1.0,0.0,0.0,0.0,1.0,-0.271834716797,1.609453125,10.157277832,0.1,0.0,0.0,0.0,0.1,0.0,0.0,0.0,0.1
1446040146329011243,16,1446040146325254917,robocape,9.76397610472,20.3107893877,8.17861982974,0.0,10.0,0.0,0.0,0.0,10.0,0.0,0.0,0.0,10.0,0.00732369299772,0.0239684498107,0.0067910607797,1.0,0.0,0.0,0.0,1.0,0.0,0.0,0.0,1.0,-0.314945068359,1.64537841797,10.1704504395,0.1,0.0,0.0,0.0,0.1,0.0,0.0,0.0,0.1
1446040146365825284,17,1446040146362760066,robocape,9.75791314939,20.3128384259,8.17820538177,0.0,10.0,0.0,0.0,0.0,10.0,0.0,0.0,0.0,10.0,0.00599211245268,0.0242347659197,0.0066579027252,1.0,0.0,0.0,0.0,1.0,0.0,0.0,0.0,1.0,-0.274229736328,1.61184814453,10.1812280273,0.1,0.0,0.0,0.0,0.1,0.0,0.0,0.0,0.1
1446040146399859493,18,1446040146396704912,robocape,9.75097414016,20.3132213056,8.17586475767,0.0,10.0,0.0,0.0,0.0,10.0,0.0,0.0,0.0,10.0,0.00585895439817,0.0231695014837,0.00585895439817,1.0,0.0,0.0,0.0,1.0,0.0,0.0,0.0,1.0,-0.269439697266,1.64897094727,10.1944006348,0.1,0.0,0.0,0.0,0.1,0.0,0.0,0.0,0.1
1446040146436703659,19,1446040146432816982,robocape,9.74452885558,20.3132475158,8.1756534376,0.0,10.0,0.0,0.0,0.0,10.0,0.0,0.0,0.0,10.0,0.00572579634367,0.0231695014837,0.00692421883421,1.0,0.0,0.0,0.0,1.0,0.0,0.0,0.0,1.0,-0.275427246094,1.62502075195,10.1692529297,0.1,0.0,0.0,0.0,0.1,0.0,0.0,0.0,0.1
1446040146473651493,20,1446040146470560073,robocape,9.76791321679,20.3167614166,8.19561351729,0.0,10.0,0.0,0.0,0.0,10.0,0.0,0.0,0.0,10.0,0.0178431793035,0.0270310850643,0.0165115987585,1.0,0.0,0.0,0.0,1.0,0.0,0.0,0.0,1.0,-0.233514404297,1.06698120117,10.1848205566,0.1,0.0,0.0,0.0,0.1,0.0,0.0,0.0,0.1
1446040146510029034,21,1446040146506592988,robocape,10.0197597128,20.4908636976,7.73885368476,0.0,10.0,0.0,0.0,0.0,10.0,0.0,0.0,0.0,10.0,0.225702902384,0.0768321974488,-0.229298169856,1.0,0.0,0.0,0.0,1.0,0.0,0.0,0.0,1.0,-1.39749389648,2.04295166016,10.7081323242,0.1,0.0,0.0,0.0,0.1,0.0,0.0,0.0,0.1
1446040146552043743,22,1446040146548682928,robocape,10.2567702428,20.5651651896,7.30226815322,0.0,10.0,0.0,0.0,0.0,10.0,0.0,0.0,0.0,10.0,0.214517625806,0.0249005561922,-0.211321832498,1.0,0.0,0.0,0.0,1.0,0.0,0.0,0.0,1.0,-3.89789428711,3.22848632813,10.6542443848,0.1,0.0,0.0,0.0,0.1,0.0,0.0,0.0,0.1
1446040146586154743,23,1446040146582623958,robocape,9.90832857417,20.6711412513,7.32005199574,0.0,10.0,0.0,0.0,0.0,10.0,0.0,0.0,0.0,10.0,-0.176567580272,0.0790958843754,0.00466053190764,1.0,0.0,0.0,0.0,1.0,0.0,0.0,0.0,1.0,-6.62222900391,0.870589599609,11.5056738281,0.1,0.0,0.0,0.0,0.1,0.0,0.0,0.0,0.1
1446040146622202368,24,1446040146619107961,robocape,9.51643858486,20.4409180112,7.41715080582,0.0,10.0,0.0,0.0,0.0,10.0,0.0,0.0,0.0,10.0,-0.216514996623,-0.0937432703708,0.0717721913776,1.0,0.0,0.0,0.0,1.0,0.0,0.0,0.0,1.0,-10.4398901367,-0.307760009766,8.57776245117,0.1,0.0,0.0,0.0,0.1,0.0,0.0,0.0,0.1
1446040146654039159,25,1446040146650748014,robocape,9.2169693484,20.5223959091,7.99567101366,0.0,10.0,0.0,0.0,0.0,10.0,0.0,0.0,0.0,10.0,-0.25366609383,0.113716978546,0.280430862785,1.0,0.0,0.0,0.0,1.0,0.0,0.0,0.0,1.0,-8.49872680664,1.68130371094,12.701986084,0.1,0.0,0.0,0.0,0.1,0.0,0.0,0.0,0.1
1446040146693092618,26,1446040146689831018,robocape,8.42736414795,20.3320116651,8.93887579738,0.0,10.0,0.0,0.0,0.0,10.0,0.0,0.0,0.0,10.0,-0.579637011256,-0.00772316716123,0.479368996214,1.0,0.0,0.0,0.0,1.0,0.0,0.0,0.0,1.0,-9.60522583008,1.38072875977,8.81846191406,0.1,0.0,0.0,0.0,0.1,0.0,0.0,0.0,0.1
1446040146727590118,27,1446040146724505901,robocape,7.06863200318,20.2527933523,10.1463840467,0.0,10.0,0.0,0.0,0.0,10.0,0.0,0.0,0.0,10.0,-0.925714794912,0.0601874406358,0.601874406358,1.0,0.0,0.0,0.0,1.0,0.0,0.0,0.0,1.0,-10.7560327148,1.29331054688,11.9487524414,0.1,0.0,0.0,0.0,0.1,0.0,0.0,0.0,0.1
1446040146762757451,28,1446040146759510993,robocape,5.29682717512,20.0810599479,10.8680183564,0.0,10.0,0.0,0.0,0.0,10.0,0.0,0.0,0.0,10.0,-1.05541074,-0.033822145844,0.370312549576,1.0,0.0,0.0,0.0,1.0,0.0,0.0,0.0,1.0,-9.0016809082,0.156873779297,9.19447998047,0.1,0.0,0.0,0.0,0.1,0.0,0.0,0.0,0.1
1446040146808402784,29,1446040146804838895,robocape,2.79275930688,19.7780659571,11.562737648,0.0,10.0,0.0,0.0,0.0,10.0,0.0,0.0,0.0,10.0,-1.43491119533,-0.118377510454,0.360592011597,1.0,0.0,0.0,0.0,1.0,0.0,0.0,0.0,1.0,-6.16717529297,2.23694824219,12.2169946289,0.1,0.0,0.0,0.0,0.1,0.0,0.0,0.0,0.1
1446040146841737659,30,1446040146838435888,robocape,-0.390378331866,19.2745501705,12.0153523886,0.0,10.0,0.0,0.0,0.0,10.0,0.0,0.0,0.0,10.0,-1.74836525564,-0.243812397797,0.237820285344,1.0,0.0,0.0,0.0,1.0,0.0,0.0,0.0,1.0,-6.10969482422,1.22625,9.580078125,0.1,0.0,0.0,0.0,0.1,0.0,0.0,0.0,0.1
1446040146877475368,31,1446040146873878002,robocape,-4.33654086551,18.8041705115,12.1886328301,0.0,10.0,0.0,0.0,0.0,10.0,0.0,0.0,0.0,10.0,-2.10416357727,-0.227700273202,0.0898816867902,1.0,0.0,0.0,0.0,1.0,0.0,0.0,0.0,1.0,-2.86324584961,1.49568969727,11.1967163086,0.1,0.0,0.0,0.0,0.1,0.0,0.0,0.0,0.1
1446040146915595618,32,1446040146912288904,robocape,-9.45003710518,18.2742711653,12.7497721351,0.0,10.0,0.0,0.0,0.0,10.0,0.0,0.0,0.0,10.0,-2.79898230567,-0.268979270098,0.273639802006,1.0,0.0,0.0,0.0,1.0,0.0,0.0,0.0,1.0,-2.46926513672,3.29315185547,7.54071899414,0.1,0.0,0.0,0.0,0.1,0.0,0.0,0.0,0.1
1446040146954999410,33,1446040146951307058,robocape,-16.153121237,17.5332677655,12.696744467,0.0,10.0,0.0,0.0,0.0,10.0,0.0,0.0,0.0,10.0,-3.57143217985,-0.312521953921,-0.0605869147993,1.0,0.0,0.0,0.0,1.0,0.0,0.0,0.0,1.0,-3.23926391602,1.12326416016,7.96822998047,0.1,0.0,0.0,0.0,0.1,0.0,0.0,0.0,0.1
1446040146988468618,34,1446040146985193014,robocape,-23.7866991461,16.486893134,12.2838051516,0.0,10.0,0.0,0.0,0.0,10.0,0.0,0.0,0.0,10.0,-4.08928385382,-0.357795692452,-0.297608251816,1.0,0.0,0.0,0.0,1.0,0.0,0.0,0.0,1.0,-8.49633178711,1.6477734375,7.2425390625,0.1,0.0,0.0,0.0,0.1,0.0,0.0,0.0,0.1
1446040147023770118,35,1446040147020446062,robocape,-31.8653925716,15.574974192,11.1540384472,0.0,10.0,0.0,0.0,0.0,10.0,0.0,0.0,0.0,10.0,-4.36332312999,-0.0390153099697,-0.602806512739,1.0,0.0,0.0,0.0,1.0,0.0,0.0,0.0,1.0,-2.53512817383,-1.36635864258,8.43286376953,0.1,0.0,0.0,0.0,0.1,0.0,0.0,0.0,0.1
1446040147059490618,36,1446040147056413888,robocape,-40.2373040433,16.6022282554,6.11130844227,0.0,10.0,0.0,0.0,0.0,10.0,0.0,0.0,0.0,10.0,-4.12257336744,2.11534885385,-1.59909507654,1.0,0.0,0.0,0.0,1.0,0.0,0.0,0.0,1.0,16.6621508789,-3.43924804688,14.2647363281,0.1,0.0,0.0,0.0,0.1,0.0,0.0,0.0,0.1
1446040147098088993,37,1446040147094981908,robocape,-48.3278992782,17.1310170485,0.809129924108,0.0,10.0,0.0,0.0,0.0,10.0,0.0,0.0,0.0,10.0,-4.14627550114,2.32294226082,-1.58324926805,1.0,0.0,0.0,0.0,1.0,0.0,0.0,0.0,1.0,7.09404785156,1.31845825195,9.2699230957,0.1,0.0,0.0,0.0,0.1,0.0,0.0,0.0,0.1
1446040147133665118,38,1446040147130163908,robocape,-56.774458268,16.6281176051,-6.48204874482,0.0,10.0,0.0,0.0,0.0,10.0,0.0,0.0,0.0,10.0,-4.36332312999,3.14852219875,-2.36608547048,1.0,0.0,0.0,0.0,1.0,0.0,0.0,0.0,1.0,16.4382165527,-12.1415515137,9.67707641602,0.1,0.0,0.0,0.0,0.1,0.0,0.0,0.0,0.1
1446040147169117118,39,1446040147165610074,robocape,-61.8535489146,17.2839100049,-15.2022904251,0.0,10.0,0.0,0.0,0.0,10.0,0.0,0.0,0.0,10.0,-2.29591117576,4.36318997193,-1.95555918845,1.0,0.0,0.0,0.0,1.0,0.0,0.0,0.0,1.0,6.54798339844,-19.4691137695,-1.32324829102,0.1,0.0,0.0,0.0,0.1,0.0,0.0,0.0,0.1
1446040147203258826,40,1446040147200125932,robocape,-63.419216094,17.7405561171,-24.0390608922,0.0,10.0,0.0,0.0,0.0,10.0,0.0,0.0,0.0,10.0,-0.0464721610219,4.36318997193,-1.89923333139,1.0,0.0,0.0,0.0,1.0,0.0,0.0,0.0,1.0,3.51588867188,-9.273515625,-2.95305908203,0.1,0.0,0.0,0.0,0.1,0.0,0.0,0.0,0.1
1446040147243662660,41,1446040147240025043,robocape,-62.9889823251,17.2928282397,-33.3455004298,0.0,10.0,0.0,0.0,0.0,10.0,0.0,0.0,0.0,10.0,1.20987408322,4.36318997193,-2.4450481968,1.0,0.0,0.0,0.0,1.0,0.0,0.0,0.0,1.0,1.9124230957,-17.2165979004,-0.633482666016,0.1,0.0,0.0,0.0,0.1,0.0,0.0,0.0,0.1
1446040147273985910,42,1446040147270951032,robocape,-64.5724936826,17.2228205844,-41.5141551721,0.0,10.0,0.0,0.0,0.0,10.0,0.0,0.0,0.0,10.0,-0.555535403391,4.36318997193,-2.26408640073,1.0,0.0,0.0,0.0,1.0,0.0,0.0,0.0,1.0,-0.590372314453,0.138911132813,-7.127578125,0.1,0.0,0.0,0.0,0.1,0.0,0.0,0.0,0.1
1446040147312330035,43,1446040147308614969,robocape,-66.6493681557,15.0231472847,-49.6734713281,0.0,10.0,0.0,0.0,0.0,10.0,0.0,0.0,0.0,10.0,-1.30015524418,4.36318997193,-3.55571952942,1.0,0.0,0.0,0.0,1.0,0.0,0.0,0.0,1.0,5.44866943359,-1.01908081055,3.22489379883,0.1,0.0,0.0,0.0,0.1,0.0,0.0,0.0,0.1
1446040147347990576,44,1446040147344645023,robocape,-69.1060594119,12.8761136262,-56.8041273962,0.0,10.0,0.0,0.0,0.0,10.0,0.0,0.0,0.0,10.0,-2.14970363191,4.36318997193,-3.63055435605,1.0,0.0,0.0,0.0,1.0,0.0,0.0,0.0,1.0,6.34680175781,-19.62,6.01748657227,0.1,0.0,0.0,0.0,0.1,0.0,0.0,0.0,0.1
1446040147382825535,45,1446040147379662036,robocape,-70.6517856196,10.5648420454,-63.3487527313,0.0,10.0,0.0,0.0,0.0,10.0,0.0,0.0,0.0,10.0,-2.03279086006,4.36318997193,-3.82589722201,1.0,0.0,0.0,0.0,1.0,0.0,0.0,0.0,1.0,7.47725097656,-5.19958740234,-7.81015869141,0.1,0.0,0.0,0.0,0.1,0.0,0.0,0.0,0.1
1446040147422040368,46,1446040147418554067,robocape,-70.292197397,7.62910918018,-69.7804918654,0.0,10.0,0.0,0.0,0.0,10.0,0.0,0.0,0.0,10.0,-1.21040671544,4.36318997193,-4.36332312999,1.0,0.0,0.0,0.0,1.0,0.0,0.0,0.0,1.0,1.06099365234,-19.62,-0.865799560547,0.1,0.0,0.0,0.0,0.1,0.0,0.0,0.0,0.1
1446040147458286701,47,1446040147454900979,robocape,-70.1566369198,5.60504539056,-75.4892161246,0.0,10.0,0.0,0.0,0.0,10.0,0.0,0.0,0.0,10.0,-1.67219884846,4.36318997193,-4.20180240987,1.0,0.0,0.0,0.0,1.0,0.0,0.0,0.0,1.0,-0.201181640625,-19.62,-6.52283569336,0.1,0.0,0.0,0.0,0.1,0.0,0.0,0.0,0.1
1446040147493984410,48,1446040147490767955,robocape,-70.0457068878,5.57728004942,-80.638054121,0.0,10.0,0.0,0.0,0.0,10.0,0.0,0.0,0.0,10.0,-1.58977401272,4.36318997193,-3.11882795259,1.0,0.0,0.0,0.0,1.0,0.0,0.0,0.0,1.0,-4.60801757813,-9.63157104492,-5.87258789063,0.1,0.0,0.0,0.0,0.1,0.0,0.0,0.0,0.1
1446040147528995785,49,1446040147525842905,robocape,-69.2138016574,6.053546267,-85.6038318525,0.0,10.0,0.0,0.0,0.0,10.0,0.0,0.0,0.0,10.0,-1.04529072786,4.36318997193,-2.89259241799,1.0,0.0,0.0,0.0,1.0,0.0,0.0,0.0,1.0,-6.38033203125,-9.43398193359,-1.47652954102,0.1,0.0,0.0,0.0,0.1,0.0,0.0,0.0,0.1
1446040147564044243,50,1446040147560522079,robocape,-69.4899745435,8.11466221484,-89.9949747512,0.0,10.0,0.0,0.0,0.0,10.0,0.0,0.0,0.0,10.0,-1.46447228343,4.36318997193,-2.01987452877,1.0,0.0,0.0,0.0,1.0,0.0,0.0,0.0,1.0,-6.55756347656,-12.4936193848,0.0155676269531,0.1,0.0,0.0,0.0,0.1,0.0,0.0,0.0,0.1
1446040147598524285,51,1446040147595451116,robocape,-68.8436834539,10.6133871076,-94.3886032097,0.0,10.0,0.0,0.0,0.0,10.0,0.0,0.0,0.0,10.0,-0.624378117569,4.36318997193,-1.65262461445,1.0,0.0,0.0,0.0,1.0,0.0,0.0,0.0,1.0,-6.64378417969,-12.6504931641,1.88727539063,0.1,0.0,0.0,0.0,0.1,0.0,0.0,0.0,0.1
1446040147633138327,52,1446040147629853010,robocape,-69.2088326473,12.9895972208,-97.4788449677,0.0,10.0,0.0,0.0,0.0,10.0,0.0,0.0,0.0,10.0,-1.00774015649,3.63321751714,-1.38617534739,1.0,0.0,0.0,0.0,1.0,0.0,0.0,0.0,1.0,-8.78732666016,-13.3654064941,1.61184814453,0.1,0.0,0.0,0.0,0.1,0.0,0.0,0.0,0.1
1446040147668451160,53,1446040147665025949,robocape,-68.9592729034,15.0586766151,-99.086004563,0.0,10.0,0.0,0.0,0.0,10.0,0.0,0.0,0.0,10.0,-0.342482516184,2.27527167731,-0.560329093353,1.0,0.0,0.0,0.0,1.0,0.0,0.0,0.0,1.0,-7.94667480469,-12.5259521484,1.77830200195,0.1,0.0,0.0,0.0,0.1,0.0,0.0,0.0,0.1
1446040147703895702,54,1446040147700711965,robocape,-68.6876840849,16.1733900219,-99.4189098938,0.0,10.0,0.0,0.0,0.0,10.0,0.0,0.0,0.0,10.0,-0.288686662165,1.22145883396,-0.486825847266,1.0,0.0,0.0,0.0,1.0,0.0,0.0,0.0,1.0,-6.76952270508,-2.36987182617,1.08853637695,0.1,0.0,0.0,0.0,0.1,0.0,0.0,0.0,0.1
1446040147737378077,55,1446040147734257936,robocape,-68.5756883546,16.8039249367,-98.7861328614,0.0,10.0,0.0,0.0,0.0,10.0,0.0,0.0,0.0,10.0,-0.35832832467,0.415319971998,-0.248872403868,1.0,0.0,0.0,0.0,1.0,0.0,0.0,0.0,1.0,-5.45824951172,-12.5151745605,2.4525,0.1,0.0,0.0,0.0,0.1,0.0,0.0,0.0,0.1
1446040147775016535,56,1446040147771769046,robocape,-68.1563929988,17.0803322987,-97.336837083,0.0,10.0,0.0,0.0,0.0,10.0,0.0,0.0,0.0,10.0,-0.144609647191,-0.360059379379,0.105194863058,1.0,0.0,0.0,0.0,1.0,0.0,0.0,0.0,1.0,-4.42120605469,-9.25794799805,3.55899902344,0.1,0.0,0.0,0.0,0.1,0.0,0.0,0.0,0.1
1446040147823927743,57,1446040147820491075,robocape,-67.6178962634,17.3830217429,-95.9730293217,0.0,10.0,0.0,0.0,0.0,10.0,0.0,0.0,0.0,10.0,-0.068443240015,-0.322109333845,0.120641197381,1.0,0.0,0.0,0.0,1.0,0.0,0.0,0.0,1.0,-6.30249389648,-12.6085803223,3.45721069336,0.1,0.0,0.0,0.0,0.1,0.0,0.0,0.0,0.1
1446040147858184243,58,1446040147855108022,robocape,-65.5580494167,17.0453857495,-95.2749515497,0.0,10.0,0.0,0.0,0.0,10.0,0.0,0.0,0.0,10.0,0.788162524609,-0.0544616442921,-0.404800485692,1.0,0.0,0.0,0.0,1.0,0.0,0.0,0.0,1.0,1.53161499023,-8.10953613281,3.31111450195,0.1,0.0,0.0,0.0,0.1,0.0,0.0,0.0,0.1
1446040147892427993,59,1446040147889131069,robocape,-64.4792957452,17.5327236918,-94.5759363739,0.0,10.0,0.0,0.0,0.0,10.0,0.0,0.0,0.0,10.0,0.277235069477,0.114382768819,0.00199737081756,1.0,0.0,0.0,0.0,1.0,0.0,0.0,0.0,1.0,2.16749267578,-4.21283935547,5.24150024414,0.1,0.0,0.0,0.0,0.1,0.0,0.0,0.0,0.1
1446040147926770285,60,1446040147923342943,robocape,-64.1551635612,17.834033733,-93.642303012,0.0,10.0,0.0,0.0,0.0,10.0,0.0,0.0,0.0,10.0,-0.193611811249,0.0339553038985,-0.110254869129,1.0,0.0,0.0,0.0,1.0,0.0,0.0,0.0,1.0,1.09452392578,-7.9742175293,3.34823730469,0.1,0.0,0.0,0.0,0.1,0.0,0.0,0.0,0.1
1446040147962704618,61,1446040147959561109,robocape,-63.0926715946,18.1551887845,-92.854611052,0.0,10.0,0.0,0.0,0.0,10.0,0.0,0.0,0.0,10.0,0.264185580136,0.0222373951022,-0.0256995045193,1.0,0.0,0.0,0.0,1.0,0.0,0.0,0.0,1.0,0.857416992188,-8.41370361328,3.31231201172,0.1,0.0,0.0,0.0,0.1,0.0,0.0,0.0,0.1
1446040148000499035,62,1446040147997349977,robocape,-62.4519661141,18.480329239,-91.9020922841,0.0,10.0,0.0,0.0,0.0,10.0,0.0,0.0,0.0,10.0,0.0157126504315,-0.0490021640575,0.0195742340121,1.0,0.0,0.0,0.0,1.0,0.0,0.0,0.0,1.0,0.368833007813,-6.0965222168,4.49664916992,0.1,0.0,0.0,0.0,0.1,0.0,0.0,0.0,0.1
1446040148040057160,63,1446040148036942958,robocape,-61.9756385221,18.8993464988,-91.0211534692,0.0,10.0,0.0,0.0,0.0,10.0,0.0,0.0,0.0,10.0,-0.0728374558137,0.0292947719909,0.0267647689553,1.0,0.0,0.0,0.0,1.0,0.0,0.0,0.0,1.0,0.902922363281,-8.77774658203,3.55061645508,0.1,0.0,0.0,0.0,0.1,0.0,0.0,0.0,0.1
1446040148079510035,64,1446040148075350046,robocape,-61.3734049029,19.3287885156,-90.1721308965,0.0,10.0,0.0,0.0,0.0,10.0,0.0,0.0,0.0,10.0,0.00772316716123,0.0295610880999,0.0524642734746,1.0,0.0,0.0,0.0,1.0,0.0,0.0,0.0,1.0,1.07057373047,-7.14194824219,4.34696044922,0.1,0.0,0.0,0.0,0.1,0.0,0.0,0.0,0.1
1446040148113968868,65,1446040148110896110,robocape,-61.1680849317,19.8370252881,-89.1998766439,0.0,10.0,0.0,0.0,0.0,10.0,0.0,0.0,0.0,10.0,-0.224371321839,-0.0034621094171,0.123970148743,1.0,0.0,0.0,0.0,1.0,0.0,0.0,0.0,1.0,0.525706787109,-7.9358972168,3.60809692383,0.1,0.0,0.0,0.0,0.1,0.0,0.0,0.0,0.1
1446040148145834452,66,1446040148142332077,robocape,-60.5602517153,20.1560505018,-88.3897627315,0.0,10.0,0.0,0.0,0.0,10.0,0.0,0.0,0.0,10.0,0.00905474770627,0.0306263525359,-0.00639158661619,1.0,0.0,0.0,0.0,1.0,0.0,0.0,0.0,1.0,0.989143066406,-8.78732666016,3.50271606445,0.1,0.0,0.0,0.0,0.1,0.0,0.0,0.0,0.1
1446040148182508827,67,1446040148179224967,robocape,-60.074829246,20.5612380534,-87.4788641603,0.0,10.0,0.0,0.0,0.0,10.0,0.0,0.0,0.0,10.0,-0.0577905956547,-0.0194410759576,0.0986701183874,1.0,0.0,0.0,0.0,1.0,0.0,0.0,0.0,1.0,0.429906005859,-7.10003540039,4.22122192383,0.1,0.0,0.0,0.0,0.1,0.0,0.0,0.0,0.1
1446040148221883493,68,1446040148218810081,robocape,-59.6162133077,20.8290874177,-86.6899168163,0.0,10.0,0.0,0.0,0.0,10.0,0.0,0.0,0.0,10.0,-0.0751011427402,0.0428768935503,-0.0400805744057,1.0,0.0,0.0,0.0,1.0,0.0,0.0,0.0,1.0,0.884959716797,-8.64721801758,3.59013427734,0.1,0.0,0.0,0.0,0.1,0.0,0.0,0.0,0.1
1446040148258825369,69,1446040148255151033,robocape,-58.9820800264,21.1861141714,-85.8603527892,0.0,10.0,0.0,0.0,0.0,10.0,0.0,0.0,0.0,10.0,0.0362189908251,0.00133158054504,0.0736364041407,1.0,0.0,0.0,0.0,1.0,0.0,0.0,0.0,1.0,1.05500610352,-7.68921020508,3.84759887695,0.1,0.0,0.0,0.0,0.1,0.0,0.0,0.0,0.1
1446040148293392160,70,1446040148289875984,robocape,-58.3289306584,21.351037776,-85.1692619775,0.0,10.0,0.0,0.0,0.0,10.0,0.0,0.0,0.0,10.0,0.0479368996214,0.0544616442921,-0.0950748509158,1.0,0.0,0.0,0.0,1.0,0.0,0.0,0.0,1.0,0.875379638672,-7.740703125,3.92304199219,0.1,0.0,0.0,0.0,0.1,0.0,0.0,0.0,0.1
1446040148329027160,71,1446040148325200080,robocape,-57.5836535058,21.4835679644,-84.4966559449,0.0,10.0,0.0,0.0,0.0,10.0,0.0,0.0,0.0,10.0,0.106792759712,0.0428768935503,-0.0970722217334,1.0,0.0,0.0,0.0,1.0,0.0,0.0,0.0,1.0,0.340092773437,-8.2352746582,3.6440222168,0.1,0.0,0.0,0.0,0.1,0.0,0.0,0.0,0.1
1446040148364777077,72,1446040148361608028,robocape,-56.6958896378,21.6700469452,-83.8100254626,0.0,10.0,0.0,0.0,0.0,10.0,0.0,0.0,0.0,10.0,0.197473394829,0.0214384467751,-0.0275637172823,1.0,0.0,0.0,0.0,1.0,0.0,0.0,0.0,1.0,1.06578369141,-7.83770141602,4.07512573242,0.1,0.0,0.0,0.0,0.1,0.0,0.0,0.0,0.1
1446040148398743577,73,1446040148395319938,robocape,-56.1836858923,21.945374203,-83.0316807221,0.0,10.0,0.0,0.0,0.0,10.0,0.0,0.0,0.0,10.0,-0.0201068662301,0.0157126504315,0.0342216200075,1.0,0.0,0.0,0.0,1.0,0.0,0.0,0.0,1.0,0.720900878906,-6.54558837891,4.56490722656,0.1,0.0,0.0,0.0,0.1,0.0,0.0,0.0,0.1
1446040148432359327,74,1446040148429172039,robocape,-56.0431196617,22.3819959061,-82.1141555221,0.0,10.0,0.0,0.0,0.0,10.0,0.0,0.0,0.0,10.0,-0.238486075617,-0.00399474163512,0.159789665405,1.0,0.0,0.0,0.0,1.0,0.0,0.0,0.0,1.0,1.09572143555,-8.58135498047,3.70749023438,0.1,0.0,0.0,0.0,0.1,0.0,0.0,0.0,0.1
1446040148468743452,75,1446040148465135097,robocape,-55.742281251,22.6904168902,-81.2808321023,0.0,10.0,0.0,0.0,0.0,10.0,0.0,0.0,0.0,10.0,-0.143544382755,0.00106526443603,0.0774979877213,1.0,0.0,0.0,0.0,1.0,0.0,0.0,0.0,1.0,0.453856201172,-8.04487060547,3.6368371582,0.1,0.0,0.0,0.0,0.1,0.0,0.0,0.0,0.1
1446040148505907327,76,1446040148502350091,robocape,-55.0826077743,22.8270596454,-80.6394305706,0.0,10.0,0.0,0.0,0.0,10.0,0.0,0.0,0.0,10.0,0.0774979877213,0.0402137324602,-0.0579237537092,1.0,0.0,0.0,0.0,1.0,0.0,0.0,0.0,1.0,0.484991455078,-9.07592651367,3.57576416016,0.1,0.0,0.0,0.0,0.1,0.0,0.0,0.0,0.1
1446040148540158619,77,1446040148536695003,robocape,-54.2803581717,22.8700443246,-80.1114766565,0.0,10.0,0.0,0.0,0.0,10.0,0.0,0.0,0.0,10.0,0.17177389031,0.067377975579,-0.137285954194,1.0,0.0,0.0,0.0,1.0,0.0,0.0,0.0,1.0,0.288599853516,-7.54670654297,4.08590332031,0.1,0.0,0.0,0.0,0.1,0.0,0.0,0.0,0.1
1446040148576292952,78,1446040148573153972,robocape,-53.481304709,22.9545661219,-79.4744960561,0.0,10.0,0.0,0.0,0.0,10.0,0.0,0.0,0.0,10.0,0.165914935912,0.0066579027252,-0.04966795433,1.0,0.0,0.0,0.0,1.0,0.0,0.0,0.0,1.0,1.34360595703,-8.57656494141,3.80688354492,0.1,0.0,0.0,0.0,0.1,0.0,0.0,0.0,0.1
1446040148611041910,79,1446040148607456922,robocape,-52.7560447821,23.0934561638,-78.8067631208,0.0,10.0,0.0,0.0,0.0,10.0,0.0,0.0,0.0,10.0,0.126366993724,0.00426105774413,-0.00426105774413,1.0,0.0,0.0,0.0,1.0,0.0,0.0,0.0,1.0,0.719703369141,-6.91681640625,4.39725585937,0.1,0.0,0.0,0.0,0.1,0.0,0.0,0.0,0.1
1446040148646772535,80,1446040148643512010,robocape,-52.3701537033,23.2797595372,-78.11585581,0.0,10.0,0.0,0.0,0.0,10.0,0.0,0.0,0.0,10.0,-0.066046395034,0.0288952978274,0.00479368996214,1.0,0.0,0.0,0.0,1.0,0.0,0.0,0.0,1.0,0.839454345703,-7.75028320313,4.1038659668,0.1,0.0,0.0,0.0,0.1,0.0,0.0,0.0,0.1
1446040148682040994,81,1446040148678916931,robocape,-51.9041629369,23.5017274234,-77.4231444379,0.0,10.0,0.0,0.0,0.0,10.0,0.0,0.0,0.0,10.0,-0.017177389031,0.0268979270098,0.0402137324602,1.0,0.0,0.0,0.0,1.0,0.0,0.0,0.0,1.0,0.750838623047,-8.15025146484,3.97573242188,0.1,0.0,0.0,0.0,0.1,0.0,0.0,0.0,0.1
1446040148715803410,82,1446040148712682008,robocape,-51.451596834,23.6723026899,-76.75114229,0.0,10.0,0.0,0.0,0.0,10.0,0.0,0.0,0.0,10.0,-0.0214384467751,0.0221042370477,0.0130494893414,1.0,0.0,0.0,0.0,1.0,0.0,0.0,0.0,1.0,0.489781494141,-7.63412475586,4.17212402344,0.1,0.0,0.0,0.0,0.1,0.0,0.0,0.0,0.1
1446040148751459869,83,1446040148747865915,robocape,-51.1987562942,23.9559833039,-75.9280685691,0.0,10.0,0.0,0.0,0.0,10.0,0.0,0.0,0.0,10.0,-0.148204914663,-0.0173105470855,0.131959632013,1.0,0.0,0.0,0.0,1.0,0.0,0.0,0.0,1.0,0.258662109375,-8.03409301758,3.82125366211,0.1,0.0,0.0,0.0,0.1,0.0,0.0,0.0,0.1
1446040148791821785,84,1446040148788712024,robocape,-50.8924171726,24.1496311998,-75.2122031444,0.0,10.0,0.0,0.0,0.0,10.0,0.0,0.0,0.0,10.0,-0.10612696944,0.00892158965177,0.04966795433,1.0,0.0,0.0,0.0,1.0,0.0,0.0,0.0,1.0,0.282612304688,-8.01134033203,3.73503295898,0.1,0.0,0.0,0.0,0.1,0.0,0.0,0.0,0.1
1446040148836260119,85,1446040148832395076,robocape,-50.485710829,24.3738348674,-74.5204029587,0.0,10.0,0.0,0.0,0.0,10.0,0.0,0.0,0.0,10.0,-0.0439421579863,0.0201068662301,0.0688427141785,1.0,0.0,0.0,0.0,1.0,0.0,0.0,0.0,1.0,0.528101806641,-7.58622436523,3.82963623047,0.1,0.0,0.0,0.0,0.1,0.0,0.0,0.0,0.1
1446040148871131494,86,1446040148867871046,robocape,-50.1713393754,24.5200968636,-73.8585946678,0.0,10.0,0.0,0.0,0.0,10.0,0.0,0.0,0.0,10.0,-0.0922785317712,0.0173105470855,0.0183758115215,1.0,0.0,0.0,0.0,1.0,0.0,0.0,0.0,1.0,0.595162353516,-8.07480834961,3.69312011719,0.1,0.0,0.0,0.0,0.1,0.0,0.0,0.0,0.1
1446040148904454327,87,1446040148901271104,robocape,-49.4819147775,24.5792959094,-73.3728969883,0.0,10.0,0.0,0.0,0.0,10.0,0.0,0.0,0.0,10.0,0.144343331082,0.0525974315291,-0.0661795530885,1.0,0.0,0.0,0.0,1.0,0.0,0.0,0.0,1.0,0.833466796875,-8.89151000977,3.5673815918,0.1,0.0,0.0,0.0,0.1,0.0,0.0,0.0,0.1
1446040148937962035,88,1446040148934329032,robocape,-48.8146352066,24.6274806149,-72.9496809179,0.0,10.0,0.0,0.0,0.0,10.0,0.0,0.0,0.0,10.0,0.143544382755,0.0800279907569,-0.0972053797879,1.0,0.0,0.0,0.0,1.0,0.0,0.0,0.0,1.0,0.650247802734,-6.91801391602,4.38647827148,0.1,0.0,0.0,0.0,0.1,0.0,0.0,0.0,0.1
1446040148975252327,89,1446040148972160100,robocape,-48.4111137181,24.7376733159,-72.3497075204,0.0,10.0,0.0,0.0,0.0,10.0,0.0,0.0,0.0,10.0,-0.0253000303558,0.0234358175927,0.00159789665405,1.0,0.0,0.0,0.0,1.0,0.0,0.0,0.0,1.0,0.686173095703,-8.18378173828,3.6440222168,0.1,0.0,0.0,0.0,0.1,0.0,0.0,0.0,0.1
1446040149009483536,90,1446040149006315946,robocape,-47.7961247901,24.7332808378,-71.8730446578,0.0,10.0,0.0,0.0,0.0,10.0,0.0,0.0,0.0,10.0,0.111985923838,0.0314253008629,-0.083490100174,1.0,0.0,0.0,0.0,1.0,0.0,0.0,0.0,1.0,0.615520019531,-7.98379760742,3.7901184082,0.1,0.0,0.0,0.0,0.1,0.0,0.0,0.0,0.1
1446040149045117702,91,1446040149041744947,robocape,-47.1894660813,24.8632671296,-71.3291363893,0.0,10.0,0.0,0.0,0.0,10.0,0.0,0.0,0.0,10.0,0.102531701968,0.0387489938607,0.0122505410144,1.0,0.0,0.0,0.0,1.0,0.0,0.0,0.0,1.0,1.39988891602,-7.64849487305,4.32301025391,0.1,0.0,0.0,0.0,0.1,0.0,0.0,0.0,0.1
1446040149081072577,92,1446040149077928066,robocape,-47.025053889,25.0447892025,-70.5849520049,0.0,10.0,0.0,0.0,0.0,10.0,0.0,0.0,0.0,10.0,-0.171640732256,-0.0173105470855,0.104795388895,1.0,0.0,0.0,0.0,1.0,0.0,0.0,0.0,1.0,0.86220703125,-7.61137207031,4.0583605957,0.1,0.0,0.0,0.0,0.1,0.0,0.0,0.0,0.1
1446040149118139244,93,1446040149114870071,robocape,-46.6321934977,25.1334734621,-70.0457489816,0.0,10.0,0.0,0.0,0.0,10.0,0.0,0.0,0.0,10.0,-0.0137152796139,0.0355532005526,-0.0103863282513,1.0,0.0,0.0,0.0,1.0,0.0,0.0,0.0,1.0,0.300574951172,-8.80289428711,3.56139404297,0.1,0.0,0.0,0.0,0.1,0.0,0.0,0.0,0.1
1446040149154902036,94,1446040149151835918,robocape,-46.1876938056,25.2421593001,-69.4510130432,0.0,10.0,0.0,0.0,0.0,10.0,0.0,0.0,0.0,10.0,0.00918790576077,0.00918790576077,0.0352868844435,1.0,0.0,0.0,0.0,1.0,0.0,0.0,0.0,1.0,0.768801269531,-7.12877563477,4.04399047852,0.1,0.0,0.0,0.0,0.1,0.0,0.0,0.0,0.1
1446040149191223869,95,1446040149188086986,robocape,-46.0042536658,25.4058431008,-68.796027673,0.0,10.0,0.0,0.0,0.0,10.0,0.0,0.0,0.0,10.0,-0.143943856919,0.0131826473959,0.0735032460862,1.0,0.0,0.0,0.0,1.0,0.0,0.0,0.0,1.0,1.01668579102,-7.72633300781,3.92663452148,0.1,0.0,0.0,0.0,0.1,0.0,0.0,0.0,0.1
1446040149230038994,96,1446040149226466894,robocape,-45.7529155205,25.557498674,-68.1925528838,0.0,10.0,0.0,0.0,0.0,10.0,0.0,0.0,0.0,10.0,-0.0974716958969,0.0274305592278,0.0541953281831,1.0,0.0,0.0,0.0,1.0,0.0,0.0,0.0,1.0,0.584384765625,-8.24844726562,3.70150268555,0.1,0.0,0.0,0.0,0.1,0.0,0.0,0.0,0.1
1446040149265157494,97,1446040149261549949,robocape,-45.462487458,25.6471548119,-67.6371400763,0.0,10.0,0.0,0.0,0.0,10.0,0.0,0.0,0.0,10.0,-0.067377975579,0.0238352917562,0.0149137021044,1.0,0.0,0.0,0.0,1.0,0.0,0.0,0.0,1.0,0.546064453125,-8.11791870117,3.63084960938,0.1,0.0,0.0,0.0,0.1,0.0,0.0,0.0,0.1
1446040149299673286,98,1446040149296525955,robocape,-44.9121560812,25.6863438139,-67.1980145885,0.0,10.0,0.0,0.0,0.0,10.0,0.0,0.0,0.0,10.0,0.0976048539514,0.0423442613323,-0.0370179391521,1.0,0.0,0.0,0.0,1.0,0.0,0.0,0.0,1.0,0.579594726562,-8.42567871094,3.72665039063,0.1,0.0,0.0,0.0,0.1,0.0,0.0,0.0,0.1
1446040149334468952,99,1446040149330872058,robocape,-44.5356885895,25.775087969,-66.6170141263,0.0,10.0,0.0,0.0,0.0,10.0,0.0,0.0,0.0,10.0,-0.0194410759576,0.00213052887206,0.0439421579863,1.0,0.0,0.0,0.0,1.0,0.0,0.0,0.0,1.0,0.486188964844,-7.04854248047,4.16853149414,0.1,0.0,0.0,0.0,0.1,0.0,0.0,0.0,0.1
1446040149369648827,100,1446040149366534948,robocape,-44.2299311753,25.8537385307,-66.0625849281,0.0,10.0,0.0,0.0,0.0,10.0,0.0,0.0,0.0,10.0,-0.0529969056926,0.0126500151779,0.0279631914458,1.0,0.0,0.0,0.0,1.0,0.0,0.0,0.0,1.0,0.764011230469,-8.78612915039,3.48475341797,0.1,0.0,0.0,0.0,0.1,0.0,0.0,0.0,0.1
1446040149404029494,101,1446040149400871038,robocape,-43.8097320192,25.9169093308,-65.5575955619,0.0,10.0,0.0,0.0,0.0,10.0,0.0,0.0,0.0,10.0,0.0202400242846,0.0207726565026,0.0111852765783,1.0,0.0,0.0,0.0,1.0,0.0,0.0,0.0,1.0,0.571212158203,-7.49641113281,3.92064697266,0.1,0.0,0.0,0.0,0.1,0.0,0.0,0.0,0.1
1446040149438444286,102,1446040149435116052,robocape,-43.4448532466,25.9681665067,-65.11327663,0.0,10.0,0.0,0.0,0.0,10.0,0.0,0.0,0.0,10.0,0.00133158054504,0.0447411063133,-0.0211721306661,1.0,0.0,0.0,0.0,1.0,0.0,0.0,0.0,1.0,0.768801269531,-8.50950439453,3.51109863281,0.1,0.0,0.0,0.0,0.1,0.0,0.0,0.0,0.1
1446040149474192536,103,1446040149470797061,robocape,-42.8964899623,25.980444483,-64.7342919981,0.0,10.0,0.0,0.0,0.0,10.0,0.0,0.0,0.0,10.0,0.115980665473,0.0468716351854,-0.0506000607115,1.0,0.0,0.0,0.0,1.0,0.0,0.0,0.0,1.0,0.799936523438,-7.38025268555,4.02962036133,0.1,0.0,0.0,0.0,0.1,0.0,0.0,0.0,0.1
1446040149504252744,104,1446040149501180887,robocape,-42.6024928491,26.0271791809,-64.2195055101,0.0,10.0,0.0,0.0,0.0,10.0,0.0,0.0,0.0,10.0,-0.0456732126949,0.0114515926873,0.015845808486,1.0,0.0,0.0,0.0,1.0,0.0,0.0,0.0,1.0,0.675395507813,-7.94667480469,3.72904541016,0.1,0.0,0.0,0.0,0.1,0.0,0.0,0.0,0.1
1446040149534451161,105,1446040149531023025,robocape,-42.0575306635,26.029186137,-63.8804739921,0.0,10.0,0.0,0.0,0.0,10.0,0.0,0.0,0.0,10.0,0.12476909707,0.0557932248372,-0.0648479725434,1.0,0.0,0.0,0.0,1.0,0.0,0.0,0.0,1.0,0.716110839844,-8.75259887695,3.57576416016,0.1,0.0,0.0,0.0,0.1,0.0,0.0,0.0,0.1
1446040149569111702,106,1446040149565855026,robocape,-41.3885345196,26.0364887353,-63.7411758415,0.0,10.0,0.0,0.0,0.0,10.0,0.0,0.0,0.0,10.0,0.230097118183,0.135821215594,-0.14900386299,1.0,0.0,0.0,0.0,1.0,0.0,0.0,0.0,1.0,0.779578857422,-7.70477783203,3.58773925781,0.1,0.0,0.0,0.0,0.1,0.0,0.0,0.0,0.1
1446040149603086786,107,1446040149599817991,robocape,-40.6596657455,25.9005282149,-63.35259155,0.0,10.0,0.0,0.0,0.0,10.0,0.0,0.0,0.0,10.0,0.22290658324,-0.0328900394625,-0.0708400849961,1.0,0.0,0.0,0.0,1.0,0.0,0.0,0.0,1.0,0.737666015625,-8.34544555664,3.60929443359,0.1,0.0,0.0,0.0,0.1,0.0,0.0,0.0,0.1
1446040149637652661,108,1446040149634248971,robocape,-40.1371265133,25.8971958259,-62.8966308791,0.0,10.0,0.0,0.0,0.0,10.0,0.0,0.0,0.0,10.0,0.100268015041,-0.000932106381528,0.000532632218016,1.0,0.0,0.0,0.0,1.0,0.0,0.0,0.0,1.0,0.808319091797,-6.4725402832,4.58526489258,0.1,0.0,0.0,0.0,0.1,0.0,0.0,0.0,0.1
1446040149675048911,109,1446040149671643972,robocape,-40.0480811302,25.9620077643,-62.4129108356,0.0,10.0,0.0,0.0,0.0,10.0,0.0,0.0,0.0,10.0,-0.141280695829,0.0334226716805,0.0170442309765,1.0,0.0,0.0,0.0,1.0,0.0,0.0,0.0,1.0,0.930465087891,-8.26640991211,3.85478393555,0.1,0.0,0.0,0.0,0.1,0.0,0.0,0.0,0.1
1446040149709497286,110,1446040149706316947,robocape,-39.6548460224,26.03802629,-61.9160112532,0.0,10.0,0.0,0.0,0.0,10.0,0.0,0.0,0.0,10.0,0.0242347659197,0.0167779148675,0.0480700576759,1.0,0.0,0.0,0.0,1.0,0.0,0.0,0.0,1.0,0.937650146484,-8.30473022461,3.90268432617,0.1,0.0,0.0,0.0,0.1,0.0,0.0,0.0,0.1
1446040149745014161,111,1446040149741769075,robocape,-39.5694285845,26.123878381,-61.2236603969,0.0,10.0,0.0,0.0,0.0,10.0,0.0,0.0,0.0,10.0,-0.178165476926,-0.0468716351854,0.134356476994,1.0,0.0,0.0,0.0,1.0,0.0,0.0,0.0,1.0,0.370030517578,-6.89765625,3.9050793457,0.1,0.0,0.0,0.0,0.1,0.0,0.0,0.0,0.1
1446040149779415078,112,1446040149776202917,robocape,-39.3089518891,26.1125047943,-60.8544617639,0.0,10.0,0.0,0.0,0.0,10.0,0.0,0.0,0.0,10.0,-0.0238352917562,0.0352868844435,-0.0412789968962,1.0,0.0,0.0,0.0,1.0,0.0,0.0,0.0,1.0,0.821491699219,-9.07712402344,3.39015014648,0.1,0.0,0.0,0.0,0.1,0.0,0.0,0.0,0.1
1446040149822539494,113,1446040149819036006,robocape,-38.9360730819,26.0837281286,-60.4406255466,0.0,10.0,0.0,0.0,0.0,10.0,0.0,0.0,0.0,10.0,0.0312921428084,0.00306263525359,-0.0157126504315,1.0,0.0,0.0,0.0,1.0,0.0,0.0,0.0,1.0,0.706530761719,-7.71435791016,4.23199951172,0.1,0.0,0.0,0.0,0.1,0.0,0.0,0.0,0.1
1446040149857313328,114,1446040149854100942,robocape,-38.6529270617,26.1249405969,-59.9721745603,0.0,10.0,0.0,0.0,0.0,10.0,0.0,0.0,0.0,10.0,-0.0264984528463,0.0123836990689,0.0326237233535,1.0,0.0,0.0,0.0,1.0,0.0,0.0,0.0,1.0,0.601149902344,-7.99697021484,3.73503295898,0.1,0.0,0.0,0.0,0.1,0.0,0.0,0.0,0.1
1446040149891474578,115,1446040149888266086,robocape,-38.3023473659,26.1144577067,-59.6184707723,0.0,10.0,0.0,0.0,0.0,10.0,0.0,0.0,0.0,10.0,0.0326237233535,0.0318247750264,-0.032490565299,1.0,0.0,0.0,0.0,1.0,0.0,0.0,0.0,1.0,0.610729980469,-8.200546875,3.7901184082,0.1,0.0,0.0,0.0,0.1,0.0,0.0,0.0,0.1
1446040149926381828,116,1446040149923051118,robocape,-37.7845145778,26.1072311247,-59.2818988859,0.0,10.0,0.0,0.0,0.0,10.0,0.0,0.0,0.0,10.0,0.12889699676,0.0310258266994,-0.0279631914458,1.0,0.0,0.0,0.0,1.0,0.0,0.0,0.0,1.0,0.864602050781,-8.01134033203,3.92304199219,0.1,0.0,0.0,0.0,0.1,0.0,0.0,0.0,0.1
1446040149964103994,117,1446040149960886955,robocape,-37.5630756086,26.1830035334,-58.8066380434,0.0,10.0,0.0,0.0,0.0,10.0,0.0,0.0,0.0,10.0,-0.0572579634367,0.0233026595382,0.0540621701286,1.0,0.0,0.0,0.0,1.0,0.0,0.0,0.0,1.0,0.859812011719,-6.79586791992,4.42000854492,0.1,0.0,0.0,0.0,0.1,0.0,0.0,0.0,0.1
1446040149998919744,118,1446040149995568990,robocape,-37.4915425528,26.3161106583,-58.2106980465,0.0,10.0,0.0,0.0,0.0,10.0,0.0,0.0,0.0,10.0,-0.16112124595,0.00612527050718,0.126500151779,1.0,0.0,0.0,0.0,1.0,0.0,0.0,0.0,1.0,0.8813671875,-8.74780883789,3.46080322266,0.1,0.0,0.0,0.0,0.1,0.0,0.0,0.0,0.1
1446040150036403494,119,1446040150032789945,robocape,-37.0529411237,26.3004291401,-57.9589689559,0.0,10.0,0.0,0.0,0.0,10.0,0.0,0.0,0.0,10.0,0.104529072786,0.0581900698182,-0.0648479725434,1.0,0.0,0.0,0.0,1.0,0.0,0.0,0.0,1.0,0.484991455078,-8.2807800293,3.71467529297,0.1,0.0,0.0,0.0,0.1,0.0,0.0,0.0,0.1
1446040150072769536,120,1446040150069643020,robocape,-36.6418450815,26.2130033556,-57.6515525861,0.0,10.0,0.0,0.0,0.0,10.0,0.0,0.0,0.0,10.0,0.0812264132474,0.00572579634367,-0.0584563859272,1.0,0.0,0.0,0.0,1.0,0.0,0.0,0.0,1.0,0.735270996094,-8.48914672852,3.68114501953,0.1,0.0,0.0,0.0,0.1,0.0,0.0,0.0,0.1
1446040150106896494,121,1446040150103660106,robocape,-36.0972717285,26.2398314745,-57.2891478389,0.0,10.0,0.0,0.0,0.0,10.0,0.0,0.0,0.0,10.0,0.144742805246,0.0275637172823,0.0119842249054,1.0,0.0,0.0,0.0,1.0,0.0,0.0,0.0,1.0,1.0310559082,-7.25331665039,4.2535546875,0.1,0.0,0.0,0.0,0.1,0.0,0.0,0.0,0.1
1446040150141813786,122,1446040150138027906,robocape,-35.9701175011,26.3112523465,-56.8114706002,0.0,10.0,0.0,0.0,0.0,10.0,0.0,0.0,0.0,10.0,-0.103064334186,0.0193079179031,0.0653806047614,1.0,0.0,0.0,0.0,1.0,0.0,0.0,0.0,1.0,0.936452636719,-6.67611694336,4.42000854492,0.1,0.0,0.0,0.0,0.1,0.0,0.0,0.0,0.1
1446040150177085036,123,1446040150174010992,robocape,-35.8155336629,26.3851362811,-56.3395178071,0.0,10.0,0.0,0.0,0.0,10.0,0.0,0.0,0.0,10.0,-0.0866858934821,0.0203731823391,0.0675111336335,1.0,0.0,0.0,0.0,1.0,0.0,0.0,0.0,1.0,0.690963134766,-9.00048339844,3.26680664063,0.1,0.0,0.0,0.0,0.1,0.0,0.0,0.0,0.1
1446040150210790411,124,1446040150207614898,robocape,-35.4329423665,26.4375541918,-55.8719710979,0.0,10.0,0.0,0.0,0.0,10.0,0.0,0.0,0.0,10.0,0.0390153099697,0.00306263525359,0.0721716655411,1.0,0.0,0.0,0.0,1.0,0.0,0.0,0.0,1.0,1.17236206055,-7.30480957031,4.21643188477,0.1,0.0,0.0,0.0,0.1,0.0,0.0,0.0,0.1
1446040150246864994,125,1446040150243618965,robocape,-35.3443696454,26.4633204973,-55.3654583785,0.0,10.0,0.0,0.0,0.0,10.0,0.0,0.0,0.0,10.0,-0.127165942051,-0.0129163312869,0.0737695621952,1.0,0.0,0.0,0.0,1.0,0.0,0.0,0.0,1.0,0.758023681641,-7.57424926758,3.96136230469,0.1,0.0,0.0,0.0,0.1,0.0,0.0,0.0,0.1
1446040150280985369,126,1446040150277393102,robocape,-35.2650568125,26.5415392186,-54.8762053659,0.0,10.0,0.0,0.0,0.0,10.0,0.0,0.0,0.0,10.0,-0.129030154814,0.015579492377,0.0830906260105,1.0,0.0,0.0,0.0,1.0,0.0,0.0,0.0,1.0,0.532891845703,-7.86284912109,3.76736572266,0.1,0.0,0.0,0.0,0.1,0.0,0.0,0.0,0.1
1446040150315386244,127,1446040150311952114,robocape,-35.1416915769,26.6098210119,-54.4698302709,0.0,10.0,0.0,0.0,0.0,10.0,0.0,0.0,0.0,10.0,-0.0888164223541,0.0382163616426,0.0450074224223,1.0,0.0,0.0,0.0,1.0,0.0,0.0,0.0,1.0,0.674197998047,-7.86763916016,3.74581054688,0.1,0.0,0.0,0.0,0.1,0.0,0.0,0.0,0.1
1446040150352282786,128,1446040150348881959,robocape,-34.9918936702,26.6217022915,-54.1042145545,0.0,10.0,0.0,0.0,0.0,10.0,0.0,0.0,0.0,10.0,-0.0656469208705,0.0256995045193,0.0129163312869,1.0,0.0,0.0,0.0,1.0,0.0,0.0,0.0,1.0,0.458646240234,-7.95385986328,3.63923217773,0.1,0.0,0.0,0.0,0.1,0.0,0.0,0.0,0.1
1446040150385384745,129,1446040150382320880,robocape,-34.6541245189,26.6421989699,-53.8071866125,0.0,10.0,0.0,0.0,0.0,10.0,0.0,0.0,0.0,10.0,0.0506000607115,0.0458063707494,-0.00719053494321,1.0,0.0,0.0,0.0,1.0,0.0,0.0,0.0,1.0,0.883762207031,-8.38735839844,3.60450439453,0.1,0.0,0.0,0.0,0.1,0.0,0.0,0.0,0.1
1446040150418833286,130,1446040150415760040,robocape,-34.2426537895,26.6283755762,-53.5706750623,0.0,10.0,0.0,0.0,0.0,10.0,0.0,0.0,0.0,10.0,0.103996440568,0.0479368996214,-0.0406132066237,1.0,0.0,0.0,0.0,1.0,0.0,0.0,0.0,1.0,0.778381347656,-7.86284912109,3.95297973633,0.1,0.0,0.0,0.0,0.1,0.0,0.0,0.0,0.1
1446040150455958578,131,1446040150452761888,robocape,-34.0895059221,26.6516193737,-53.1478706208,0.0,10.0,0.0,0.0,0.0,10.0,0.0,0.0,0.0,10.0,-0.0719053494321,0.00812264132474,0.0506000607115,1.0,0.0,0.0,0.0,1.0,0.0,0.0,0.0,1.0,0.596359863281,-7.45809082031,3.90388183594,0.1,0.0,0.0,0.0,0.1,0.0,0.0,0.0,0.1
1446040150495118161,132,1446040150491774082,robocape,-33.9456011652,26.660314919,-52.766829077,0.0,10.0,0.0,0.0,0.0,10.0,0.0,0.0,0.0,10.0,-0.0680437658515,0.0151800182135,0.0287621397729,1.0,0.0,0.0,0.0,1.0,0.0,0.0,0.0,1.0,0.729283447266,-8.37658081055,3.57696166992,0.1,0.0,0.0,0.0,0.1,0.0,0.0,0.0,0.1
1446040150527699328,133,1446040150524317026,robocape,-33.6687849342,26.6638309175,-52.4527294715,0.0,10.0,0.0,0.0,0.0,10.0,0.0,0.0,0.0,10.0,0.017976337358,0.0300937203179,0.00292947719909,1.0,0.0,0.0,0.0,1.0,0.0,0.0,0.0,1.0,0.692160644531,-7.98260009766,3.70150268555,0.1,0.0,0.0,0.0,0.1,0.0,0.0,0.0,0.1
1446040150560342745,134,1446040150557142019,robocape,-33.2845843051,26.6295250889,-52.248400929,0.0,10.0,0.0,0.0,0.0,10.0,0.0,0.0,0.0,10.0,0.09933590866,0.0454068965859,-0.0535295379106,1.0,0.0,0.0,0.0,1.0,0.0,0.0,0.0,1.0,0.849034423828,-8.21611450195,3.74820556641,0.1,0.0,0.0,0.0,0.1,0.0,0.0,0.0,0.1
1446040150598191911,135,1446040150595052957,robocape,-33.121229765,26.6424802715,-51.8543757062,0.0,10.0,0.0,0.0,0.0,10.0,0.0,0.0,0.0,10.0,-0.0572579634367,0.00958737992429,0.0434095257683,1.0,0.0,0.0,0.0,1.0,0.0,0.0,0.0,1.0,0.815504150391,-7.42575805664,3.9469921875,0.1,0.0,0.0,0.0,0.1,0.0,0.0,0.0,0.1
1446040150637433578,136,1446040150634351968,robocape,-32.8929861641,26.6166259916,-51.6127856756,0.0,10.0,0.0,0.0,0.0,10.0,0.0,0.0,0.0,10.0,0.00918790576077,0.0395479421877,-0.035153726389,1.0,0.0,0.0,0.0,1.0,0.0,0.0,0.0,1.0,0.846639404297,-9.10706176758,3.35901489258,0.1,0.0,0.0,0.0,0.1,0.0,0.0,0.0,0.1
1446040150676438870,137,1446040150672981023,robocape,-32.3396340116,26.5703527014,-51.5926080113,0.0,10.0,0.0,0.0,0.0,10.0,0.0,0.0,0.0,10.0,0.230629750401,0.0916127414987,-0.133024896449,1.0,0.0,0.0,0.0,1.0,0.0,0.0,0.0,1.0,0.725690917969,-7.7371105957,3.62845458984,0.1,0.0,0.0,0.0,0.1,0.0,0.0,0.0,0.1
1446040150711808495,138,1446040150708662033,robocape,-31.7605915123,26.3646325513,-51.4452078892,0.0,10.0,0.0,0.0,0.0,10.0,0.0,0.0,0.0,10.0,0.222107634913,-0.0259658206283,-0.111719607729,1.0,0.0,0.0,0.0,1.0,0.0,0.0,0.0,1.0,0.601149902344,-8.36340820313,3.72425537109,0.1,0.0,0.0,0.0,0.1,0.0,0.0,0.0,0.1
1446040150746644036,139,1446040150743474960,robocape,-31.3728781444,26.4057046615,-51.1181130298,0.0,10.0,0.0,0.0,0.0,10.0,0.0,0.0,0.0,10.0,0.082424835738,0.035153726389,0.0336889877895,1.0,0.0,0.0,0.0,1.0,0.0,0.0,0.0,1.0,0.777183837891,-6.29890136719,4.40803344727,0.1,0.0,0.0,0.0,0.1,0.0,0.0,0.0,0.1
1446040150785970578,140,1446040150777194023,robocape,-31.3428637288,26.4087307232,-50.8003388403,0.0,10.0,0.0,0.0,0.0,10.0,0.0,0.0,0.0,10.0,-0.107458549985,0.0303600364269,0.00918790576077,1.0,0.0,0.0,0.0,1.0,0.0,0.0,0.0,1.0,1.16158447266,-8.4268762207,3.75778564453,0.1,0.0,0.0,0.0,0.1,0.0,0.0,0.0,0.1
1446040150824672953,141,1446040150821214914,robocape,-31.1317474035,26.4315795239,-50.4390260142,0.0,10.0,0.0,0.0,0.0,10.0,0.0,0.0,0.0,10.0,-0.0183758115215,0.0195742340121,0.0432763677138,1.0,0.0,0.0,0.0,1.0,0.0,0.0,0.0,1.0,0.567619628906,-7.45210327148,3.92663452148,0.1,0.0,0.0,0.0,0.1,0.0,0.0,0.0,0.1
1446040150861360203,142,1446040150857969045,robocape,-30.9520995845,26.4477951922,-50.0208484781,0.0,10.0,0.0,0.0,0.0,10.0,0.0,0.0,0.0,10.0,-0.0460726868584,-0.00133158054504,0.0701742947236,1.0,0.0,0.0,0.0,1.0,0.0,0.0,0.0,1.0,0.928070068359,-8.43046875,3.73144042969,0.1,0.0,0.0,0.0,0.1,0.0,0.0,0.0,0.1
1446040150899071453,143,1446040150895163059,robocape,-30.7009253506,26.4352160242,-49.7336536207,0.0,10.0,0.0,0.0,0.0,10.0,0.0,0.0,0.0,10.0,0.0197073920666,0.0233026595382,0.00439421579863,1.0,0.0,0.0,0.0,1.0,0.0,0.0,0.0,1.0,0.661025390625,-7.46647338867,4.01884277344,0.1,0.0,0.0,0.0,0.1,0.0,0.0,0.0,0.1
1446040150939137745,144,1446040150934906959,robocape,-30.4446824695,26.368663509,-49.5299498546,0.0,10.0,0.0,0.0,0.0,10.0,0.0,0.0,0.0,10.0,0.0406132066237,0.0227700273202,-0.0472711093489,1.0,0.0,0.0,0.0,1.0,0.0,0.0,0.0,1.0,0.828676757813,-8.91665771484,3.59731933594,0.1,0.0,0.0,0.0,0.1,0.0,0.0,0.0,0.1
1446040150977299911,145,1446040150974224090,robocape,-30.1720161546,26.3842988558,-49.2001227314,0.0,10.0,0.0,0.0,0.0,10.0,0.0,0.0,0.0,10.0,0.0241016078652,0.0213052887206,0.0359526747161,1.0,0.0,0.0,0.0,1.0,0.0,0.0,0.0,1.0,0.767603759766,-6.75395507813,4.36252807617,0.1,0.0,0.0,0.0,0.1,0.0,0.0,0.0,0.1
1446040151011640495,146,1446040151008421897,robocape,-30.0930982227,26.3749623311,-48.9141231511,0.0,10.0,0.0,0.0,0.0,10.0,0.0,0.0,0.0,10.0,-0.0704406108326,0.0275637172823,0.00439421579863,1.0,0.0,0.0,0.0,1.0,0.0,0.0,0.0,1.0,0.916094970703,-8.66637817383,3.76257568359,0.1,0.0,0.0,0.0,0.1,0.0,0.0,0.0,0.1
1446040151041253161,147,1446040151038038015,robocape,-29.8156123168,26.4157250281,-48.4780304095,0.0,10.0,0.0,0.0,0.0,10.0,0.0,0.0,0.0,10.0,0.00599211245268,-0.000532632218016,0.0969390636789,1.0,0.0,0.0,0.0,1.0,0.0,0.0,0.0,1.0,0.942440185547,-7.9742175293,3.84041381836,0.1,0.0,0.0,0.0,0.1,0.0,0.0,0.0,0.1
1446040151072985495,148,1446040151069797039,robocape,-29.6464383008,26.3849238821,-48.2966244006,0.0,10.0,0.0,0.0,0.0,10.0,0.0,0.0,0.0,10.0,0.000798948327024,0.0446079482588,-0.0443416321498,1.0,0.0,0.0,0.0,1.0,0.0,0.0,0.0,1.0,0.603544921875,-7.60658203125,3.95297973633,0.1,0.0,0.0,0.0,0.1,0.0,0.0,0.0,0.1
1446040151103074620,149,1446040151099631071,robocape,-29.3568967314,26.3200905043,-48.1049103839,0.0,10.0,0.0,0.0,0.0,10.0,0.0,0.0,0.0,10.0,0.0644484983799,0.0211721306661,-0.0424774193868,1.0,0.0,0.0,0.0,1.0,0.0,0.0,0.0,1.0,0.731678466797,-9.06874145508,3.52786376953,0.1,0.0,0.0,0.0,0.1,0.0,0.0,0.0,0.1
1446040151139376787,150,1446040151136244058,robocape,-28.8424578785,26.2529841843,-47.9068082159,0.0,10.0,0.0,0.0,0.0,10.0,0.0,0.0,0.0,10.0,0.185089695761,0.0111852765783,-0.0315584589174,1.0,0.0,0.0,0.0,1.0,0.0,0.0,0.0,1.0,0.640667724609,-7.34791992188,4.14937133789,0.1,0.0,0.0,0.0,0.1,0.0,0.0,0.0,0.1
1446040151178368912,151,1446040151175304889,robocape,-28.6712496859,26.2280583316,-47.6664001269,0.0,10.0,0.0,0.0,0.0,10.0,0.0,0.0,0.0,10.0,-0.00705737688871,0.0271642431188,-0.0099868540878,1.0,0.0,0.0,0.0,1.0,0.0,0.0,0.0,1.0,0.849034423828,-7.65208740234,4.07752075195,0.1,0.0,0.0,0.0,0.1,0.0,0.0,0.0,0.1
1446040151216554787,152,1446040151213359117,robocape,-28.4443482486,26.2171066992,-47.4024872349,0.0,10.0,0.0,0.0,0.0,10.0,0.0,0.0,0.0,10.0,0.0185089695761,0.0249005561922,0.00772316716123,1.0,0.0,0.0,0.0,1.0,0.0,0.0,0.0,1.0,0.762813720703,-8.24365722656,3.88112915039,0.1,0.0,0.0,0.0,0.1,0.0,0.0,0.0,0.1
1446040151253794162,153,1446040151250550985,robocape,-28.2142343399,26.2092563506,-47.138730111,0.0,10.0,0.0,0.0,0.0,10.0,0.0,0.0,0.0,10.0,0.0209058145571,0.0256995045193,0.0099868540878,1.0,0.0,0.0,0.0,1.0,0.0,0.0,0.0,1.0,0.825084228516,-7.63053222656,4.0966809082,0.1,0.0,0.0,0.0,0.1,0.0,0.0,0.0,0.1
1446040151288010495,154,1446040151284918069,robocape,-28.0684851818,26.1997126057,-46.8770066087,0.0,10.0,0.0,0.0,0.0,10.0,0.0,0.0,0.0,10.0,-0.0233026595382,0.0268979270098,0.00772316716123,1.0,0.0,0.0,0.0,1.0,0.0,0.0,0.0,1.0,0.923280029297,-7.88799682617,3.99728759766,0.1,0.0,0.0,0.0,0.1,0.0,0.0,0.0,0.1
1446040151322231703,155,1446040151318841934,robocape,-28.0119674788,26.2656891609,-46.4754668115,0.0,10.0,0.0,0.0,0.0,10.0,0.0,0.0,0.0,10.0,-0.100134856987,0.0251668723012,0.0914795834442,1.0,0.0,0.0,0.0,1.0,0.0,0.0,0.0,1.0,0.783171386719,-7.17667602539,4.21643188477,0.1,0.0,0.0,0.0,0.1,0.0,0.0,0.0,0.1
1446040151358275245,156,1446040151355022907,robocape,-28.1018835721,26.2812091465,-46.0865353868,0.0,10.0,0.0,0.0,0.0,10.0,0.0,0.0,0.0,10.0,-0.175635473891,0.00719053494321,0.0716390333231,1.0,0.0,0.0,0.0,1.0,0.0,0.0,0.0,1.0,0.370030517578,-8.41490112305,3.43924804688,0.1,0.0,0.0,0.0,0.1,0.0,0.0,0.0,0.1
1446040151391933620,157,1446040151388657093,robocape,-27.7975881788,26.256971226,-45.9321230069,0.0,10.0,0.0,0.0,0.0,10.0,0.0,0.0,0.0,10.0,0.0844222065555,0.0439421579863,-0.0380832035881,1.0,0.0,0.0,0.0,1.0,0.0,0.0,0.0,1.0,0.570014648438,-7.8592565918,4.05357055664,0.1,0.0,0.0,0.0,0.1,0.0,0.0,0.0,0.1
1446040151422880828,158,1446040151419784069,robocape,-27.5485539494,26.1707183493,-45.7865898648,0.0,10.0,0.0,0.0,0.0,10.0,0.0,0.0,0.0,10.0,0.0580569117637,0.016911072922,-0.0565921731642,1.0,0.0,0.0,0.0,1.0,0.0,0.0,0.0,1.0,0.684975585938,-8.48675170898,3.7134777832,0.1,0.0,0.0,0.0,0.1,0.0,0.0,0.0,0.1
1446040151459482037,159,1446040151456305027,robocape,-27.1224947484,26.1384775425,-45.5867581059,0.0,10.0,0.0,0.0,0.0,10.0,0.0,0.0,0.0,10.0,0.142079644156,0.0230363434292,-0.0125168571234,1.0,0.0,0.0,0.0,1.0,0.0,0.0,0.0,1.0,0.813109130859,-7.53832397461,4.01046020508,0.1,0.0,0.0,0.0,0.1,0.0,0.0,0.0,0.1
1446040151496260912,160,1446040151492597103,robocape,-27.0751410613,26.1360081126,-45.30453972,0.0,10.0,0.0,0.0,0.0,10.0,0.0,0.0,0.0,10.0,-0.0770985135578,0.0231695014837,0.0251668723012,1.0,0.0,0.0,0.0,1.0,0.0,0.0,0.0,1.0,0.797541503906,-6.79467041016,4.3301953125,0.1,0.0,0.0,0.0,0.1,0.0,0.0,0.0,0.1
1446040151530690370,161,1446040151526634931,robocape,-27.0759065092,26.1519272113,-44.9718221712,0.0,10.0,0.0,0.0,0.0,10.0,0.0,0.0,0.0,10.0,-0.113317504383,0.0187752856851,0.0536626959651,1.0,0.0,0.0,0.0,1.0,0.0,0.0,0.0,1.0,0.781973876953,-8.56578735352,3.5290612793,0.1,0.0,0.0,0.0,0.1,0.0,0.0,0.0,0.1
1446040151566124453,162,1446040151562902927,robocape,-26.8066098202,26.1319005996,-44.7533526185,0.0,10.0,0.0,0.0,0.0,10.0,0.0,0.0,0.0,10.0,0.0553937506736,0.0255663464648,-0.000932106381528,1.0,0.0,0.0,0.0,1.0,0.0,0.0,0.0,1.0,0.735270996094,-7.84728149414,3.87514160156,0.1,0.0,0.0,0.0,0.1,0.0,0.0,0.0,0.1
1446040151600614412,163,1446040151597517967,robocape,-26.5615284413,26.0919678945,-44.5661595513,0.0,10.0,0.0,0.0,0.0,10.0,0.0,0.0,0.0,10.0,0.0498011123845,0.0242347659197,-0.0197073920666,1.0,0.0,0.0,0.0,1.0,0.0,0.0,0.0,1.0,1.04063598633,-7.96463745117,4.11224853516,0.1,0.0,0.0,0.0,0.1,0.0,0.0,0.0,0.1
1446040151635035953,164,1446040151631901025,robocape,-26.4781786696,26.1450476042,-44.1697262513,0.0,10.0,0.0,0.0,0.0,10.0,0.0,0.0,0.0,10.0,-0.0802943068659,0.0167779148675,0.0984038022784,1.0,0.0,0.0,0.0,1.0,0.0,0.0,0.0,1.0,0.775986328125,-7.15751586914,4.31343017578,0.1,0.0,0.0,0.0,0.1,0.0,0.0,0.0,0.1
1446040151670116662,165,1446040151666953086,robocape,-26.5141029259,26.1623735869,-43.697986296,0.0,10.0,0.0,0.0,0.0,10.0,0.0,0.0,0.0,10.0,-0.159257033187,-0.0189084437396,0.125834361506,1.0,0.0,0.0,0.0,1.0,0.0,0.0,0.0,1.0,0.473016357422,-8.63404541016,3.79490844727,0.1,0.0,0.0,0.0,0.1,0.0,0.0,0.0,0.1
1446040151705547662,166,1446040151702254056,robocape,-26.5551453917,26.1437715581,-43.2104269393,0.0,10.0,0.0,0.0,0.0,10.0,0.0,0.0,0.0,10.0,-0.16498282953,-0.0415453130052,0.127299100106,1.0,0.0,0.0,0.0,1.0,0.0,0.0,0.0,1.0,0.366437988281,-7.54071899414,3.90388183594,0.1,0.0,0.0,0.0,0.1,0.0,0.0,0.0,0.1
1446040151740167537,167,1446040151736991882,robocape,-26.6454285104,26.121060155,-42.9693391226,0.0,10.0,0.0,0.0,0.0,10.0,0.0,0.0,0.0,10.0,-0.140481747502,0.0223705531567,0.00838895743375,1.0,0.0,0.0,0.0,1.0,0.0,0.0,0.0,1.0,0.688568115234,-8.79930175781,3.39853271484,0.1,0.0,0.0,0.0,0.1,0.0,0.0,0.0,0.1
1446040151775269745,168,1446040151772138118,robocape,-26.2977110929,26.1230953096,-42.7927620223,0.0,10.0,0.0,0.0,0.0,10.0,0.0,0.0,0.0,10.0,0.10732539193,0.0411458388417,-0.00545948023466,1.0,0.0,0.0,0.0,1.0,0.0,0.0,0.0,1.0,0.753233642578,-8.12630126953,3.8667590332,0.1,0.0,0.0,0.0,0.1,0.0,0.0,0.0,0.1
1446040151824856204,169,1446040151821629047,robocape,-25.6088374817,26.1414857021,-43.0938412042,0.0,10.0,0.0,0.0,0.0,10.0,0.0,0.0,0.0,10.0,0.390286257751,0.166181252021,-0.223039741294,1.0,0.0,0.0,0.0,1.0,0.0,0.0,0.0,1.0,0.792751464844,-9.05796386719,3.75658813477,0.1,0.0,0.0,0.0,0.1,0.0,0.0,0.0,0.1
1446040151859660954,170,1446040151855567932,robocape,-24.9749368122,26.5336915633,-42.9744016908,0.0,10.0,0.0,0.0,0.0,10.0,0.0,0.0,0.0,10.0,0.270710324807,0.245010820287,0.051265850984,1.0,0.0,0.0,0.0,1.0,0.0,0.0,0.0,1.0,1.34360595703,-11.4014904785,3.80808105469,0.1,0.0,0.0,0.0,0.1,0.0,0.0,0.0,0.1
1446040151893830579,171,1446040151890219926,robocape,-23.3578790516,26.8090068679,-43.3878778701,0.0,10.0,0.0,0.0,0.0,10.0,0.0,0.0,0.0,10.0,0.91266530557,0.301469835397,-0.212919729152,1.0,0.0,0.0,0.0,1.0,0.0,0.0,0.0,1.0,0.613125,-11.245814209,4.16134643555,0.1,0.0,0.0,0.0,0.1,0.0,0.0,0.0,0.1
1446040151927232287,172,1446040151923954010,robocape,-21.3411010438,26.8214552261,-43.7052509731,0.0,10.0,0.0,0.0,0.0,10.0,0.0,0.0,0.0,10.0,1.10947291013,0.137419112248,-0.216514996623,1.0,0.0,0.0,0.0,1.0,0.0,0.0,0.0,1.0,-0.125738525391,-10.2806213379,4.62478271484,0.1,0.0,0.0,0.0,0.1,0.0,0.0,0.0,0.1
1446040151964582704,173,1446040151961417913,robocape,-19.0404758247,26.4011007047,-44.214304626,0.0,10.0,0.0,0.0,0.0,10.0,0.0,0.0,0.0,10.0,1.30761209523,-0.050733218766,-0.384959935571,1.0,0.0,0.0,0.0,1.0,0.0,0.0,0.0,1.0,-0.799936523438,-10.0854272461,5.49177978516,0.1,0.0,0.0,0.0,0.1,0.0,0.0,0.0,0.1
1446040152000021662,174,1446040151996433019,robocape,-16.8141631898,25.1508127989,-45.4420712061,0.0,10.0,0.0,0.0,0.0,10.0,0.0,0.0,0.0,10.0,1.42998434732,-0.349007260855,-0.875780524473,1.0,0.0,0.0,0.0,1.0,0.0,0.0,0.0,1.0,-1.01309326172,-9.01365600586,6.33243164063,0.1,0.0,0.0,0.0,0.1,0.0,0.0,0.0,0.1
1446040152034676370,175,1446040152031193017,robocape,-15.4389545397,22.8316543659,-47.5198007,0.0,10.0,0.0,0.0,0.0,10.0,0.0,0.0,0.0,10.0,1.14635769122,-0.763927758689,-1.48404651745,1.0,0.0,0.0,0.0,1.0,0.0,0.0,0.0,1.0,-0.639470214844,-7.8137512207,6.94076660156,0.1,0.0,0.0,0.0,0.1,0.0,0.0,0.0,0.1
1446040152071033995,176,1446040152067946910,robocape,-14.5528505285,19.8343561885,-50.6486349709,0.0,10.0,0.0,0.0,0.0,10.0,0.0,0.0,0.0,10.0,1.03943177346,-0.944623238651,-2.20496422453,1.0,0.0,0.0,0.0,1.0,0.0,0.0,0.0,1.0,1.93757080078,-9.54415283203,6.61384643555,0.1,0.0,0.0,0.0,0.1,0.0,0.0,0.0,0.1
1446040152105525120,177,1446040152102154016,robocape,-13.1597672573,16.6104550758,-54.6500212076,0.0,10.0,0.0,0.0,0.0,10.0,0.0,0.0,0.0,10.0,1.3630058459,-0.939962706743,-2.84465551837,1.0,0.0,0.0,0.0,1.0,0.0,0.0,0.0,1.0,2.62015136719,-10.5811962891,6.61264892578,0.1,0.0,0.0,0.0,0.1,0.0,0.0,0.0,0.1
1446040152138718662,178,1446040152135271072,robocape,-11.6634101572,13.3873418993,-59.0200413492,0.0,10.0,0.0,0.0,0.0,10.0,0.0,0.0,0.0,10.0,1.35435057236,-0.929176904329,-3.23640651472,1.0,0.0,0.0,0.0,1.0,0.0,0.0,0.0,1.0,3.80089599609,-8.18138671875,6.1695703125,0.1,0.0,0.0,0.0,0.1,0.0,0.0,0.0,0.1
1446040152174010495,179,1446040152170777082,robocape,-11.1647509875,11.5906254284,-62.4295607183,0.0,10.0,0.0,0.0,0.0,10.0,0.0,0.0,0.0,10.0,0.61465757959,-0.359526747161,-2.66595740922,1.0,0.0,0.0,0.0,1.0,0.0,0.0,0.0,1.0,8.200546875,-6.33961669922,6.60187133789,0.1,0.0,0.0,0.0,0.1,0.0,0.0,0.0,0.1
1446040152208672162,180,1446040152205343008,robocape,-9.68260229996,11.4160802325,-64.6215739419,0.0,10.0,0.0,0.0,0.0,10.0,0.0,0.0,0.0,10.0,0.984304338893,0.287754555783,-1.7812552951,1.0,0.0,0.0,0.0,1.0,0.0,0.0,0.0,1.0,7.45330078125,-8.94539794922,7.59819946289,0.1,0.0,0.0,0.0,0.1,0.0,0.0,0.0,0.1
1446040152243622704,181,1446040152240454912,robocape,-7.10265884403,12.2937838817,-65.3830707422,0.0,10.0,0.0,0.0,0.0,10.0,0.0,0.0,0.0,10.0,1.43477803728,0.623046537024,-0.751144585457,1.0,0.0,0.0,0.0,1.0,0.0,0.0,0.0,1.0,6.04981933594,-7.36827758789,7.09045532227,0.1,0.0,0.0,0.0,0.1,0.0,0.0,0.0,0.1
1446040152278963620,182,1446040152275810956,robocape,-4.57901248966,12.7440962444,-65.4262493314,0.0,10.0,0.0,0.0,0.0,10.0,0.0,0.0,0.0,10.0,1.34090160885,0.311456689485,-0.310657741158,1.0,0.0,0.0,0.0,1.0,0.0,0.0,0.0,1.0,3.34943481445,-6.67372192383,6.83059570313,0.1,0.0,0.0,0.0,0.1,0.0,0.0,0.0,0.1
1446040152314959995,183,1446040152311536073,robocape,-2.66771129521,12.8105382448,-64.8187346766,0.0,10.0,0.0,0.0,0.0,10.0,0.0,0.0,0.0,10.0,0.943957448379,0.0543284862376,0.13156015785,1.0,0.0,0.0,0.0,1.0,0.0,0.0,0.0,1.0,4.52299438477,-5.42591674805,7.98499511719,0.1,0.0,0.0,0.0,0.1,0.0,0.0,0.0,0.1
1446040152350029870,184,1446040152346606016,robocape,-1.59064082849,13.3671194233,-63.9282015607,0.0,10.0,0.0,0.0,0.0,10.0,0.0,0.0,0.0,10.0,0.470047932399,0.302002467615,0.333560926532,1.0,0.0,0.0,0.0,1.0,0.0,0.0,0.0,1.0,5.65823364258,-5.51692749023,7.95864990234,0.1,0.0,0.0,0.0,0.1,0.0,0.0,0.0,0.1
1446040152387216954,185,1446040152383985996,robocape,-1.01721557868,14.6364564643,-62.7840813768,0.0,10.0,0.0,0.0,0.0,10.0,0.0,0.0,0.0,10.0,0.165115987585,0.672980807463,0.498943230226,1.0,0.0,0.0,0.0,1.0,0.0,0.0,0.0,1.0,5.3684362793,-6.23663085938,7.72034545898,0.1,0.0,0.0,0.0,0.1,0.0,0.0,0.0,0.1
1446040152421364954,186,1446040152417983055,robocape,-0.541594998728,16.347033664,-61.3218776744,0.0,10.0,0.0,0.0,0.0,10.0,0.0,0.0,0.0,10.0,0.0511326929295,0.899615816229,0.693753463966,1.0,0.0,0.0,0.0,1.0,0.0,0.0,0.0,1.0,5.40076904297,-7.4688684082,6.85813842773,0.1,0.0,0.0,0.0,0.1,0.0,0.0,0.0,0.1
1446040152460477204,187,1446040152456801891,robocape,0.847156858865,18.4933980595,-59.4057595617,0.0,10.0,0.0,0.0,0.0,10.0,0.0,0.0,0.0,10.0,0.431298938538,1.13517241465,0.924383214367,1.0,0.0,0.0,0.0,1.0,0.0,0.0,0.0,1.0,5.09181152344,-6.20070556641,6.99585205078,0.1,0.0,0.0,0.0,0.1,0.0,0.0,0.0,0.1
1446040152494547787,188,1446040152491338968,robocape,2.78030804934,21.3922987038,-57.0225685628,0.0,10.0,0.0,0.0,0.0,10.0,0.0,0.0,0.0,10.0,0.593884923088,1.56713714346,1.08736867308,1.0,0.0,0.0,0.0,1.0,0.0,0.0,0.0,1.0,5.04151611328,-4.63795532227,6.97309936523,0.1,0.0,0.0,0.0,0.1,0.0,0.0,0.0,0.1
1446040152529160412,189,1446040152526016950,robocape,4.59112077056,24.8215565395,-54.3641847004,0.0,10.0,0.0,0.0,0.0,10.0,0.0,0.0,0.0,10.0,0.419980503905,1.90322807303,1.09003183417,1.0,0.0,0.0,0.0,1.0,0.0,0.0,0.0,1.0,4.47150146484,-3.90268432617,6.19232299805,0.1,0.0,0.0,0.0,0.1,0.0,0.0,0.0,0.1
1446040152564397871,190,1446040152560985088,robocape,5.98709606834,28.4508737832,-51.6163658437,0.0,10.0,0.0,0.0,0.0,10.0,0.0,0.0,0.0,10.0,0.120108565163,2.06355037065,0.993225928545,1.0,0.0,0.0,0.0,1.0,0.0,0.0,0.0,1.0,2.68122436523,-2.53752319336,6.60785888672,0.1,0.0,0.0,0.0,0.1,0.0,0.0,0.0,0.1
1446040152602223371,191,1446040152599168062,robocape,7.04219449166,31.9295246276,-49.0452156722,0.0,10.0,0.0,0.0,0.0,10.0,0.0,0.0,0.0,10.0,-0.06711165947,2.02932875064,0.78909463099,1.0,0.0,0.0,0.0,1.0,0.0,0.0,0.0,1.0,1.69926635742,-2.79259277344,6.54079833984,0.1,0.0,0.0,0.0,0.1,0.0,0.0,0.0,0.1
1446040152638554329,192,1446040152635375022,robocape,8.05253819622,34.9064036954,-47.0565813925,0.0,10.0,0.0,0.0,0.0,10.0,0.0,0.0,0.0,10.0,0.050466902657,1.80162847744,0.42690472274,1.0,0.0,0.0,0.0,1.0,0.0,0.0,0.0,1.0,0.0131726074219,-3.16142578125,6.02586914063,0.1,0.0,0.0,0.0,0.1,0.0,0.0,0.0,0.1
1446040152672719037,193,1446040152669346094,robocape,8.28659280128,37.5139171521,-45.840288939,0.0,10.0,0.0,0.0,0.0,10.0,0.0,0.0,0.0,10.0,-0.130761209523,1.61081298533,0.0407463646782,1.0,0.0,0.0,0.0,1.0,0.0,0.0,0.0,1.0,-0.724493408203,-1.14481933594,5.91330322266,0.1,0.0,0.0,0.0,0.1,0.0,0.0,0.0,0.1
1446040152707487329,194,1446040152704381942,robocape,7.72845686318,39.8066998857,-45.1107105539,0.0,10.0,0.0,0.0,0.0,10.0,0.0,0.0,0.0,10.0,-0.403468905147,1.43304698257,-0.145674911627,1.0,0.0,0.0,0.0,1.0,0.0,0.0,0.0,1.0,-1.13404174805,-1.54359008789,6.60666137695,0.1,0.0,0.0,0.0,0.1,0.0,0.0,0.0,0.1
1446040152742611496,195,1446040152739413976,robocape,7.06628788445,41.8743680825,-44.3667720981,0.0,10.0,0.0,0.0,0.0,10.0,0.0,0.0,0.0,10.0,-0.479502154269,1.31839789764,-0.103596966404,1.0,0.0,0.0,0.0,1.0,0.0,0.0,0.0,1.0,-0.390388183594,-0.382005615234,6.79227539063,0.1,0.0,0.0,0.0,0.1,0.0,0.0,0.0,0.1
1446040152777418079,196,1446040152774303913,robocape,5.9839307849,44.0048972599,-43.3644439225,0.0,10.0,0.0,0.0,0.0,10.0,0.0,0.0,0.0,10.0,-0.819454667417,1.34729319547,0.0336889877895,1.0,0.0,0.0,0.0,1.0,0.0,0.0,0.0,1.0,-0.522114257812,0.0179626464844,6.9012487793,0.1,0.0,0.0,0.0,0.1,0.0,0.0,0.0,0.1
1446040152825523454,197,1446040152821975946,robocape,4.94112885531,46.0601721339,-42.0168000263,0.0,10.0,0.0,0.0,0.0,10.0,0.0,0.0,0.0,10.0,-0.955275883011,1.30414998581,0.204131297555,1.0,0.0,0.0,0.0,1.0,0.0,0.0,0.0,1.0,-2.51117797852,-2.05732177734,6.14562011719,0.1,0.0,0.0,0.0,0.1,0.0,0.0,0.0,0.1
1446040152862042662,198,1446040152857841014,robocape,4.19185494199,47.7227916079,-40.4171102966,0.0,10.0,0.0,0.0,0.0,10.0,0.0,0.0,0.0,10.0,-0.931174275146,1.07605023845,0.350205683345,1.0,0.0,0.0,0.0,1.0,0.0,0.0,0.0,1.0,-3.4907409668,-1.42862915039,5.56961791992,0.1,0.0,0.0,0.0,0.1,0.0,0.0,0.0,0.1
1446040152896551329,199,1446040152892950057,robocape,3.83547481191,48.7821023304,-38.8323790042,0.0,10.0,0.0,0.0,0.0,10.0,0.0,0.0,0.0,10.0,-0.747416159931,0.729572980627,0.394547315495,1.0,0.0,0.0,0.0,1.0,0.0,0.0,0.0,1.0,-3.41290283203,-2.59021362305,5.67140625,0.1,0.0,0.0,0.0,0.1,0.0,0.0,0.0,0.1
1446040152930997454,200,1446040152927889108,robocape,3.25369184816,49.3332565262,-38.1202070179,0.0,10.0,0.0,0.0,0.0,10.0,0.0,0.0,0.0,10.0,-0.521713257547,0.46032739442,0.0980043281149,1.0,0.0,0.0,0.0,1.0,0.0,0.0,0.0,1.0,-3.28357177734,-1.66932861328,6.06538696289,0.1,0.0,0.0,0.0,0.1,0.0,0.0,0.0,0.1
1446040152966835787,201,1446040152963637113,robocape,2.01781167629,49.6200949163,-38.3985584727,0.0,10.0,0.0,0.0,0.0,10.0,0.0,0.0,0.0,10.0,-0.462457923292,0.333028294314,-0.250869774685,1.0,0.0,0.0,0.0,1.0,0.0,0.0,0.0,1.0,-2.39501953125,-0.961600341797,6.36835693359,0.1,0.0,0.0,0.0,0.1,0.0,0.0,0.0,0.1
1446040153003786662,202,1446040153000273942,robocape,0.076774556785,49.7494263035,-39.659979174,0.0,10.0,0.0,0.0,0.0,10.0,0.0,0.0,0.0,10.0,-0.427304196903,0.289485610492,-0.611062312119,1.0,0.0,0.0,0.0,1.0,0.0,0.0,0.0,1.0,-2.69918701172,-1.8741027832,5.86181030273,0.1,0.0,0.0,0.0,0.1,0.0,0.0,0.0,0.1
1446040153038848454,203,1446040153034871101,robocape,-2.37235196022,49.8778562763,-41.5128264806,0.0,10.0,0.0,0.0,0.0,10.0,0.0,0.0,0.0,10.0,-0.447810537297,0.35300200249,-0.84289048501,1.0,0.0,0.0,0.0,1.0,0.0,0.0,0.0,1.0,-1.71603149414,-1.65256347656,6.06299194336,0.1,0.0,0.0,0.0,0.1,0.0,0.0,0.0,0.1
1446040153075412662,204,1446040153070022106,robocape,-5.33090223323,50.0497909147,-43.6937017353,0.0,10.0,0.0,0.0,0.0,10.0,0.0,0.0,0.0,10.0,-0.581101749855,0.447810537297,-0.974716958969,1.0,0.0,0.0,0.0,1.0,0.0,0.0,0.0,1.0,-1.61903320313,-3.11831542969,6.24381591797,0.1,0.0,0.0,0.0,0.1,0.0,0.0,0.0,0.1
1446040153111386704,205,1446040153107614040,robocape,-8.21631871469,50.2119833734,-45.9468545904,0.0,10.0,0.0,0.0,0.0,10.0,0.0,0.0,0.0,10.0,-0.513457458167,0.517452199802,-1.01679490419,1.0,0.0,0.0,0.0,1.0,0.0,0.0,0.0,1.0,-1.14721435547,-4.26912231445,6.46296020508,0.1,0.0,0.0,0.0,0.1,0.0,0.0,0.0,0.1
1446040153147999246,206,1446040153144454002,robocape,-10.9144670199,50.2981023433,-48.2887562825,0.0,10.0,0.0,0.0,0.0,10.0,0.0,0.0,0.0,10.0,-0.380166245609,0.553538032573,-1.06992496794,1.0,0.0,0.0,0.0,1.0,0.0,0.0,0.0,1.0,-0.643062744141,-4.03800292969,6.90723632813,0.1,0.0,0.0,0.0,0.1,0.0,0.0,0.0,0.1
1446040153187683454,207,1446040153183795928,robocape,-13.6013403816,50.2274782896,-50.7244645996,0.0,10.0,0.0,0.0,0.0,10.0,0.0,0.0,0.0,10.0,-0.342216200075,0.537825382142,-1.1294466183,1.0,0.0,0.0,0.0,1.0,0.0,0.0,0.0,1.0,-0.619112548828,-3.67875,7.33115478516,0.1,0.0,0.0,0.0,0.1,0.0,0.0,0.0,0.1
1446040153224171204,208,1446040153220266103,robocape,-16.0763918505,50.0228047545,-53.182510561,0.0,10.0,0.0,0.0,0.0,10.0,0.0,0.0,0.0,10.0,-0.229298169856,0.533298008288,-1.17405456656,1.0,0.0,0.0,0.0,1.0,0.0,0.0,0.0,1.0,-1.2298425293,-4.65112792969,7.79578857422,0.1,0.0,0.0,0.0,0.1,0.0,0.0,0.0,0.1
1446040153259912038,209,1446040153256408929,robocape,-18.0505290107,49.7548908462,-55.6271308166,0.0,10.0,0.0,0.0,0.0,10.0,0.0,0.0,0.0,10.0,0.0234358175927,0.568584892732,-1.21320303459,1.0,0.0,0.0,0.0,1.0,0.0,0.0,0.0,1.0,-1.02866088867,-4.5948449707,8.41370361328,0.1,0.0,0.0,0.0,0.1,0.0,0.0,0.0,0.1
1446040153294026038,210,1446040153290806055,robocape,-19.4505391572,49.4102100488,-58.0597266111,0.0,10.0,0.0,0.0,0.0,10.0,0.0,0.0,0.0,10.0,0.317581959992,0.588425442853,-1.26127309226,1.0,0.0,0.0,0.0,1.0,0.0,0.0,0.0,1.0,-1.75794433594,-6.44739257813,8.84121459961,0.1,0.0,0.0,0.0,0.1,0.0,0.0,0.0,0.1
1446040153329068371,211,1446040153325679063,robocape,-19.7773735883,48.8194776092,-60.3956629898,0.0,10.0,0.0,0.0,0.0,10.0,0.0,0.0,0.0,10.0,0.842357852792,0.484429002285,-1.3068131469,1.0,0.0,0.0,0.0,1.0,0.0,0.0,0.0,1.0,-2.08965454102,-4.8666796875,9.39326660156,0.1,0.0,0.0,0.0,0.1,0.0,0.0,0.0,0.1
1446040153364729413,212,1446040153361272096,robocape,-19.9167049138,48.0717301356,-62.4315153602,0.0,10.0,0.0,0.0,0.0,10.0,0.0,0.0,0.0,10.0,0.813595713019,0.351137789727,-1.24595991599,1.0,0.0,0.0,0.0,1.0,0.0,0.0,0.0,1.0,-1.94475585938,-4.9469128418,9.48068481445,0.1,0.0,0.0,0.0,0.1,0.0,0.0,0.0,0.1
1446040153398760204,213,1446040153395548105,robocape,-19.32706783,47.3255103734,-64.0816182078,0.0,10.0,0.0,0.0,0.0,10.0,0.0,0.0,0.0,10.0,1.04116282817,0.288020871892,-1.13157714717,1.0,0.0,0.0,0.0,1.0,0.0,0.0,0.0,1.0,-1.20948486328,-5.2534753418,9.10107421875,0.1,0.0,0.0,0.0,0.1,0.0,0.0,0.0,0.1
1446040153433825621,214,1446040153430727958,robocape,-18.3522005239,46.8141313707,-65.2533713094,0.0,10.0,0.0,0.0,0.0,10.0,0.0,0.0,0.0,10.0,1.05674232054,0.317581959992,-0.931706907364,1.0,0.0,0.0,0.0,1.0,0.0,0.0,0.0,1.0,-0.850231933594,-3.70270019531,8.40053100586,0.1,0.0,0.0,0.0,0.1,0.0,0.0,0.0,0.1
1446040153471021246,215,1446040153467406034,robocape,-17.339098975,46.6321357992,-66.2081708307,0.0,10.0,0.0,0.0,0.0,10.0,0.0,0.0,0.0,10.0,1.00307962458,0.458463181657,-0.832637314813,1.0,0.0,0.0,0.0,1.0,0.0,0.0,0.0,1.0,-0.534089355469,-2.62015136719,8.16701660156,0.1,0.0,0.0,0.0,0.1,0.0,0.0,0.0,0.1
1446040153508537454,216,1446040153505470991,robocape,-17.0212129605,46.4583783289,-67.7154639797,0.0,10.0,0.0,0.0,0.0,10.0,0.0,0.0,0.0,10.0,0.876845788909,0.590289655616,-1.12465292834,1.0,0.0,0.0,0.0,1.0,0.0,0.0,0.0,1.0,-0.886157226563,-3.38895263672,8.92743530273,0.1,0.0,0.0,0.0,0.1,0.0,0.0,0.0,0.1
1446040153544803329,217,1446040153541631937,robocape,-17.1580512337,46.1040630617,-70.0837166962,0.0,10.0,0.0,0.0,0.0,10.0,0.0,0.0,0.0,10.0,1.00853910481,0.71399348825,-1.62279721024,1.0,0.0,0.0,0.0,1.0,0.0,0.0,0.0,1.0,-0.598754882812,-3.76736572266,8.4687890625,0.1,0.0,0.0,0.0,0.1,0.0,0.0,0.0,0.1
1446040153583860621,218,1446040153580607891,robocape,-17.3905012462,45.727788696,-72.9038780955,0.0,10.0,0.0,0.0,0.0,10.0,0.0,0.0,0.0,10.0,1.167796138,0.860866822368,-1.95342865957,1.0,0.0,0.0,0.0,1.0,0.0,0.0,0.0,1.0,-1.2681628418,-1.48610961914,7.29163696289,0.1,0.0,0.0,0.0,0.1,0.0,0.0,0.0,0.1
1446040153617633079,219,1446040153614173889,robocape,-17.6148664659,45.534468413,-75.5355031252,0.0,10.0,0.0,0.0,0.0,10.0,0.0,0.0,0.0,10.0,1.11706291923,0.965795369317,-1.94131127661,1.0,0.0,0.0,0.0,1.0,0.0,0.0,0.0,1.0,-1.58550292969,-0.556842041016,6.63899414063,0.1,0.0,0.0,0.0,0.1,0.0,0.0,0.0,0.1
1446040153652548329,220,1446040153648731946,robocape,-17.5586458056,45.420964796,-77.7898393711,0.0,10.0,0.0,0.0,0.0,10.0,0.0,0.0,0.0,10.0,1.13224293745,0.958072202156,-1.82612955947,1.0,0.0,0.0,0.0,1.0,0.0,0.0,0.0,1.0,-1.90284301758,-0.688568115234,6.32883911133,0.1,0.0,0.0,0.0,0.1,0.0,0.0,0.0,0.1
1446040153687366038,221,1446040153683412075,robocape,-17.2319111624,45.0572177961,-79.9627468741,0.0,10.0,0.0,0.0,0.0,10.0,0.0,0.0,0.0,10.0,1.26513467584,0.834634685631,-1.90163017637,1.0,0.0,0.0,0.0,1.0,0.0,0.0,0.0,1.0,-2.48004272461,-0.179626464844,6.24501342773,0.1,0.0,0.0,0.0,0.1,0.0,0.0,0.0,0.1
1446040153723164579,222,1446040153719957113,robocape,-17.0836171153,44.5061332564,-82.1065038843,0.0,10.0,0.0,0.0,0.0,10.0,0.0,0.0,0.0,10.0,1.17312246018,0.738760886388,-1.98512027655,1.0,0.0,0.0,0.0,1.0,0.0,0.0,0.0,1.0,-2.1076171875,1.30887817383,7.48683105469,0.1,0.0,0.0,0.0,0.1,0.0,0.0,0.0,0.1
1446040153757850746,223,1446040153754270076,robocape,-17.0456953041,43.5847761814,-84.1358301343,0.0,10.0,0.0,0.0,0.0,10.0,0.0,0.0,0.0,10.0,1.0659302263,0.513057984004,-2.02639927344,1.0,0.0,0.0,0.0,1.0,0.0,0.0,0.0,1.0,-1.89446044922,0.829874267578,8.80169677734,0.1,0.0,0.0,0.0,0.1,0.0,0.0,0.0,0.1
1446040153800994913,224,1446040153792311906,robocape,-17.1764460247,42.3326267616,-86.0074868646,0.0,10.0,0.0,0.0,0.0,10.0,0.0,0.0,0.0,10.0,0.896420022921,0.291882455473,-2.02866296037,1.0,0.0,0.0,0.0,1.0,0.0,0.0,0.0,1.0,-1.16637451172,1.60466308594,9.88065307617,0.1,0.0,0.0,0.0,0.1,0.0,0.0,0.0,0.1
1446040153834658579,225,1446040153831567049,robocape,-17.0229203104,41.006753347,-87.2102002271,0.0,10.0,0.0,0.0,0.0,10.0,0.0,0.0,0.0,10.0,0.747416159931,0.0633832339439,-1.6586167269,1.0,0.0,0.0,0.0,1.0,0.0,0.0,0.0,1.0,-0.947230224609,0.734073486328,12.0924536133,0.1,0.0,0.0,0.0,0.1,0.0,0.0,0.0,0.1
1446040153870663413,226,1446040153867471933,robocape,-15.713244992,39.4590621148,-87.7054504915,0.0,10.0,0.0,0.0,0.0,10.0,0.0,0.0,0.0,10.0,1.06300074911,-0.244877662233,-1.27405626549,1.0,0.0,0.0,0.0,1.0,0.0,0.0,0.0,1.0,-0.540076904297,-0.597557373047,12.2660925293,0.1,0.0,0.0,0.0,0.1,0.0,0.0,0.0,0.1
1446040153906696455,227,1446040153903546094,robocape,-14.1856682446,37.9137239325,-87.7674007178,0.0,10.0,0.0,0.0,0.0,10.0,0.0,0.0,0.0,10.0,0.995755931581,-0.395612579931,-0.960868521301,1.0,0.0,0.0,0.0,1.0,0.0,0.0,0.0,1.0,-0.531694335938,2.14114746094,12.4433239746,0.1,0.0,0.0,0.0,0.1,0.0,0.0,0.0,0.1
1446040153945426038,228,1446040153941241979,robocape,-12.9824163025,36.4886904553,-87.354340902,0.0,10.0,0.0,0.0,0.0,10.0,0.0,0.0,0.0,10.0,0.621848114534,-0.50879692626,-0.532898534125,1.0,0.0,0.0,0.0,1.0,0.0,0.0,0.0,1.0,-0.354462890625,1.8357824707,13.0540539551,0.1,0.0,0.0,0.0,0.1,0.0,0.0,0.0,0.1
1446040153983234496,229,1446040153979823112,robocape,-11.6268763624,35.1212103565,-86.4843043867,0.0,10.0,0.0,0.0,0.0,10.0,0.0,0.0,0.0,10.0,0.522379047819,-0.617187582626,-0.138218060575,1.0,0.0,0.0,0.0,1.0,0.0,0.0,0.0,1.0,0.560434570312,1.33163085938,14.198873291,0.1,0.0,0.0,0.0,0.1,0.0,0.0,0.0,0.1
1446040154017189330,230,1446040154013689994,robocape,-10.3361489408,33.9277159589,-85.5262729522,0.0,10.0,0.0,0.0,0.0,10.0,0.0,0.0,0.0,10.0,0.46032739442,-0.556201193663,-0.0202400242846,1.0,0.0,0.0,0.0,1.0,0.0,0.0,0.0,1.0,1.25139770508,1.26696533203,13.7150793457,0.1,0.0,0.0,0.0,0.1,0.0,0.0,0.0,0.1
1446040154052479913,231,1446040154049209117,robocape,-9.3318332651,32.9996210774,-84.96742135,0.0,10.0,0.0,0.0,0.0,10.0,0.0,0.0,0.0,10.0,0.465254242437,-0.327169339916,-0.297874567925,1.0,0.0,0.0,0.0,1.0,0.0,0.0,0.0,1.0,2.20341796875,0.456251220703,13.6492163086,0.1,0.0,0.0,0.0,0.1,0.0,0.0,0.0,0.1
1446040154088304163,232,1446040154085212945,robocape,-8.7048027403,32.6305960035,-84.7790230648,0.0,10.0,0.0,0.0,0.0,10.0,0.0,0.0,0.0,10.0,0.410393123981,0.0524642734746,-0.569650157168,1.0,0.0,0.0,0.0,1.0,0.0,0.0,0.0,1.0,0.777183837891,0.729283447266,12.7211462402,0.1,0.0,0.0,0.0,0.1,0.0,0.0,0.0,0.1
1446040154122967205,233,1446040154119827032,robocape,-8.46577059554,32.6715232956,-84.6473261083,0.0,10.0,0.0,0.0,0.0,10.0,0.0,0.0,0.0,10.0,0.228898695692,0.277767701695,-0.590422813671,1.0,0.0,0.0,0.0,1.0,0.0,0.0,0.0,1.0,0.743653564453,1.05021606445,12.5091870117,0.1,0.0,0.0,0.0,0.1,0.0,0.0,0.0,0.1
1446040154161773455,234,1446040154157830953,robocape,-8.69299798074,33.2005918718,-84.4198258131,0.0,10.0,0.0,0.0,0.0,10.0,0.0,0.0,0.0,10.0,-0.051265850984,0.513723774276,-0.478703205942,1.0,0.0,0.0,0.0,1.0,0.0,0.0,0.0,1.0,0.0850231933594,1.03225341797,12.165501709,0.1,0.0,0.0,0.0,0.1,0.0,0.0,0.0,0.1
1446040154200942163,235,1446040154197474956,robocape,-9.29198853398,33.8204552954,-84.2977797657,0.0,10.0,0.0,0.0,0.0,10.0,0.0,0.0,0.0,10.0,-0.213851835533,0.579104379038,-0.529170108599,1.0,0.0,0.0,0.0,1.0,0.0,0.0,0.0,1.0,0.201181640625,0.147293701172,11.358380127,0.1,0.0,0.0,0.0,0.1,0.0,0.0,0.0,0.1
1446040154235156913,236,1446040154231662988,robocape,-9.98584907488,34.4438389315,-84.2569274354,0.0,10.0,0.0,0.0,0.0,10.0,0.0,0.0,0.0,10.0,-0.23622238869,0.602939670794,-0.580036485419,1.0,0.0,0.0,0.0,1.0,0.0,0.0,0.0,1.0,-0.229921875,0.989143066406,10.463840332,0.1,0.0,0.0,0.0,0.1,0.0,0.0,0.0,0.1
1446040154273464705,237,1446040154269004106,robocape,-10.961087007,34.9762414714,-84.254665471,0.0,10.0,0.0,0.0,0.0,10.0,0.0,0.0,0.0,10.0,-0.378834665064,0.55700014199,-0.57857174682,1.0,0.0,0.0,0.0,1.0,0.0,0.0,0.0,1.0,0.131726074219,1.19032470703,10.0063916016,0.1,0.0,0.0,0.0,0.1,0.0,0.0,0.0,0.1
1446040154309073538,238,1446040154305916070,robocape,-11.9669824815,35.3932730659,-84.2394093679,0.0,10.0,0.0,0.0,0.0,10.0,0.0,0.0,0.0,10.0,-0.406132066237,0.494815330537,-0.557799090317,1.0,0.0,0.0,0.0,1.0,0.0,0.0,0.0,1.0,-0.0335302734375,-0.136516113281,10.5392834473,0.1,0.0,0.0,0.0,0.1,0.0,0.0,0.0,0.1
1446040154341702080,239,1446040154338253974,robocape,-12.6757772158,35.594841756,-84.219925482,0.0,10.0,0.0,0.0,0.0,10.0,0.0,0.0,0.0,10.0,-0.25366609383,0.390685731915,-0.575242795457,1.0,0.0,0.0,0.0,1.0,0.0,0.0,0.0,1.0,0.0167651367188,-0.147293701172,10.3524719238,0.1,0.0,0.0,0.0,0.1,0.0,0.0,0.0,0.1
1446040154381267538,240,1446040154377701997,robocape,-13.0612920362,35.6452466674,-84.0122644333,0.0,10.0,0.0,0.0,0.0,10.0,0.0,0.0,0.0,10.0,-0.155928081824,0.26991137648,-0.450473698387,1.0,0.0,0.0,0.0,1.0,0.0,0.0,0.0,1.0,-0.471818847656,-0.126936035156,10.0075891113,0.1,0.0,0.0,0.0,0.1,0.0,0.0,0.0,0.1
1446040154419033330,241,1446040154415916919,robocape,-12.9769849995,35.4648707583,-83.5905080909,0.0,10.0,0.0,0.0,0.0,10.0,0.0,0.0,0.0,10.0,0.0106526443603,0.0984038022784,-0.317049327774,1.0,0.0,0.0,0.0,1.0,0.0,0.0,0.0,1.0,-0.851429443359,0.350870361328,10.080637207,0.1,0.0,0.0,0.0,0.1,0.0,0.0,0.0,0.1
1446040154455997830,242,1446040154452202081,robocape,-12.5586765482,35.1162157497,-82.9677499533,0.0,10.0,0.0,0.0,0.0,10.0,0.0,0.0,0.0,10.0,0.111053817456,-0.0424774193868,-0.178431793035,1.0,0.0,0.0,0.0,1.0,0.0,0.0,0.0,1.0,-0.0742456054688,0.009580078125,9.81,0.1,0.0,0.0,0.0,0.1,0.0,0.0,0.0,0.1
1446040154493090871,243,1446040154490010023,robocape,-11.9310441517,34.7757085243,-82.2171430309,0.0,10.0,0.0,0.0,0.0,10.0,0.0,0.0,0.0,10.0,0.176034948054,-0.0693753463966,-0.0801611488114,1.0,0.0,0.0,0.0,1.0,0.0,0.0,0.0,1.0,-0.649050292969,0.323327636719,10.1872155762,0.1,0.0,0.0,0.0,0.1,0.0,0.0,0.0,0.1
1446040154526632163,244,1446040154523550987,robocape,-11.1861525429,34.2360827958,-81.5024455552,0.0,10.0,0.0,0.0,0.0,10.0,0.0,0.0,0.0,10.0,0.249671352195,-0.172439680583,-0.102931176132,1.0,0.0,0.0,0.0,1.0,0.0,0.0,0.0,1.0,-0.990340576172,0.122145996094,10.4937780762,0.1,0.0,0.0,0.0,0.1,0.0,0.0,0.0,0.1
1446040154560699705,245,1446040154557495117,robocape,-9.96674992905,33.3676863711,-80.5784174071,0.0,10.0,0.0,0.0,0.0,10.0,0.0,0.0,0.0,10.0,0.425306826086,-0.397210476585,0.0455400546404,1.0,0.0,0.0,0.0,1.0,0.0,0.0,0.0,1.0,-0.789158935547,0.0742456054688,9.97765136719,0.1,0.0,0.0,0.0,0.1,0.0,0.0,0.0,0.1
1446040154591657038,246,1446040154588567972,robocape,-8.87832120018,32.8312680188,-79.4383577848,0.0,10.0,0.0,0.0,0.0,10.0,0.0,0.0,0.0,10.0,0.286955607456,-0.266449267062,0.242480817252,1.0,0.0,0.0,0.0,1.0,0.0,0.0,0.0,1.0,0.274229736328,0.486188964844,10.560838623,0.1,0.0,0.0,0.0,0.1,0.0,0.0,0.0,0.1
1446040154626496330,247,1446040154623051881,robocape,-7.87304784161,32.4451741788,-78.1128759991,0.0,10.0,0.0,0.0,0.0,10.0,0.0,0.0,0.0,10.0,0.182293376616,-0.221974476858,0.406398382346,1.0,0.0,0.0,0.0,1.0,0.0,0.0,0.0,1.0,0.161663818359,0.620310058594,10.7716003418,0.1,0.0,0.0,0.0,0.1,0.0,0.0,0.0,0.1
1446040154660413205,248,1446040154657267093,robocape,-6.98089703252,32.4703941464,-76.5142339042,0.0,10.0,0.0,0.0,0.0,10.0,0.0,0.0,0.0,10.0,0.0350205683345,-0.0428768935503,0.622380746752,1.0,0.0,0.0,0.0,1.0,0.0,0.0,0.0,1.0,0.828676757813,1.06099365234,10.6302941895,0.1,0.0,0.0,0.0,0.1,0.0,0.0,0.0,0.1
1446040154696307830,249,1446040154692994117,robocape,-6.3069965281,32.9339501775,-74.8038032949,0.0,10.0,0.0,0.0,0.0,10.0,0.0,0.0,0.0,10.0,-0.115714349364,0.18535601187,0.706936111362,1.0,0.0,0.0,0.0,1.0,0.0,0.0,0.0,1.0,1.12805419922,0.869392089844,10.5620361328,0.1,0.0,0.0,0.0,0.1,0.0,0.0,0.0,0.1
1446040154731066163,250,1446040154727993965,robocape,-5.1650353895,33.063160765,-73.0463453323,0.0,10.0,0.0,0.0,0.0,10.0,0.0,0.0,0.0,10.0,0.109455920802,0.0150468601589,0.720518232921,1.0,0.0,0.0,0.0,1.0,0.0,0.0,0.0,1.0,-1.48131958008,0.0634680175781,10.4853955078,0.1,0.0,0.0,0.0,0.1,0.0,0.0,0.0,0.1
1446040154769264747,251,1446040154765434026,robocape,-3.90229980256,32.8315942621,-71.6580062703,0.0,10.0,0.0,0.0,0.0,10.0,0.0,0.0,0.0,10.0,0.29654298738,-0.112918030219,0.475507412634,1.0,0.0,0.0,0.0,1.0,0.0,0.0,0.0,1.0,-0.681383056641,1.94834838867,9.61600341797,0.1,0.0,0.0,0.0,0.1,0.0,0.0,0.0,0.1
1446040154811445872,252,1446040154808305025,robocape,-2.79326269761,32.739355399,-70.9543128886,0.0,10.0,0.0,0.0,0.0,10.0,0.0,0.0,0.0,10.0,0.459794762202,0.0688427141785,0.00612527050718,1.0,0.0,0.0,0.0,1.0,0.0,0.0,0.0,1.0,-0.257464599609,1.96271850586,11.0134973145,0.1,0.0,0.0,0.0,0.1,0.0,0.0,0.0,0.1
1446040154850545580,253,1446040154847160100,robocape,-1.84531958706,32.5724476434,-70.4835597137,0.0,10.0,0.0,0.0,0.0,10.0,0.0,0.0,0.0,10.0,0.455800020567,0.0540621701286,-0.135954373649,1.0,0.0,0.0,0.0,1.0,0.0,0.0,0.0,1.0,-0.164058837891,2.30400878906,9.7297668457,0.1,0.0,0.0,0.0,0.1,0.0,0.0,0.0,0.1
1446040154890780913,254,1446040154887563943,robocape,-1.28659634311,32.3225727468,-69.920761451,0.0,10.0,0.0,0.0,0.0,10.0,0.0,0.0,0.0,10.0,0.211321832498,-0.0173105470855,-0.033555829735,1.0,0.0,0.0,0.0,1.0,0.0,0.0,0.0,1.0,-0.580792236328,2.46687011719,10.1093774414,0.1,0.0,0.0,0.0,0.1,0.0,0.0,0.0,0.1
1446040154924871288,255,1446040154921771049,robocape,-0.951836211136,32.2047205949,-69.3589836067,0.0,10.0,0.0,0.0,0.0,10.0,0.0,0.0,0.0,10.0,0.0934769542618,0.0498011123845,-0.0239684498107,1.0,0.0,0.0,0.0,1.0,0.0,0.0,0.0,1.0,-2.70637207031,1.39270385742,10.9691894531,0.1,0.0,0.0,0.0,0.1,0.0,0.0,0.0,0.1
1446040154965538163,256,1446040154960005044,robocape,-0.707394181568,32.1809348083,-68.6732379849,0.0,10.0,0.0,0.0,0.0,10.0,0.0,0.0,0.0,10.0,0.00292947719909,0.0854874709915,0.0655137628159,1.0,0.0,0.0,0.0,1.0,0.0,0.0,0.0,1.0,0.285007324219,1.41665405273,10.1177600098,0.1,0.0,0.0,0.0,0.1,0.0,0.0,0.0,0.1
1446040154999542122,257,1446040154995856046,robocape,-0.459175060864,32.2402623008,-68.1815046076,0.0,10.0,0.0,0.0,0.0,10.0,0.0,0.0,0.0,10.0,0.0737695621952,0.153398078789,-0.0697748205601,1.0,0.0,0.0,0.0,1.0,0.0,0.0,0.0,1.0,-0.170046386719,2.40220458984,10.4470751953,0.1,0.0,0.0,0.0,0.1,0.0,0.0,0.0,0.1
1446040155033773622,258,1446040155030369043,robocape,-0.343627763796,32.3566735375,-67.57956479,0.0,10.0,0.0,0.0,0.0,10.0,0.0,0.0,0.0,10.0,-0.0362189908251,0.169643361438,0.0133158054504,1.0,0.0,0.0,0.0,1.0,0.0,0.0,0.0,1.0,-0.601149902344,1.43341918945,10.2003881836,0.1,0.0,0.0,0.0,0.1,0.0,0.0,0.0,0.1
1446040155068735830,259,1446040155065402984,robocape,-0.159827416684,32.3570032282,-67.1530217428,0.0,10.0,0.0,0.0,0.0,10.0,0.0,0.0,0.0,10.0,0.0576574376002,0.123304358471,-0.0936101123163,1.0,0.0,0.0,0.0,1.0,0.0,0.0,0.0,1.0,-0.0586779785156,1.42623413086,10.4303100586,0.1,0.0,0.0,0.0,0.1,0.0,0.0,0.0,0.1
1446040155103285663,260,1446040155099950075,robocape,0.174253447745,32.3111529856,-66.8155130989,0.0,10.0,0.0,0.0,0.0,10.0,0.0,0.0,0.0,10.0,0.168977571166,0.109722236911,-0.154729659334,1.0,0.0,0.0,0.0,1.0,0.0,0.0,0.0,1.0,-0.319735107422,1.33881591797,10.208770752,0.1,0.0,0.0,0.0,0.1,0.0,0.0,0.0,0.1
1446040155138829747,261,1446040155135698080,robocape,0.489057807949,32.242462744,-66.5979439051,0.0,10.0,0.0,0.0,0.0,10.0,0.0,0.0,0.0,10.0,0.200003397865,0.106925917767,-0.228765537638,1.0,0.0,0.0,0.0,1.0,0.0,0.0,0.0,1.0,-0.108973388672,1.93996582031,10.1309326172,0.1,0.0,0.0,0.0,0.1,0.0,0.0,0.0,0.1
1446040155173070747,262,1446040155169519901,robocape,0.638553936427,32.1578077576,-65.9984475434,0.0,10.0,0.0,0.0,0.0,10.0,0.0,0.0,0.0,10.0,-0.0233026595382,0.0556600667827,0.0431432096593,1.0,0.0,0.0,0.0,1.0,0.0,0.0,0.0,1.0,-0.171243896484,2.57823852539,10.3021765137,0.1,0.0,0.0,0.0,0.1,0.0,0.0,0.0,0.1
1446040155207657205,263,1446040155204540967,robocape,0.717620502677,32.0389221427,-65.5060385127,0.0,10.0,0.0,0.0,0.0,10.0,0.0,0.0,0.0,10.0,-0.0267647689553,0.0424774193868,-0.0139815957229,1.0,0.0,0.0,0.0,1.0,0.0,0.0,0.0,1.0,-0.610729980469,1.88967041016,10.2423010254,0.1,0.0,0.0,0.0,0.1,0.0,0.0,0.0,0.1
1446040155242822122,264,1446040155239515066,robocape,0.755126636022,31.8922273947,-65.0839762446,0.0,10.0,0.0,0.0,0.0,10.0,0.0,0.0,0.0,10.0,-0.0271642431188,0.0300937203179,-0.0495347962755,1.0,0.0,0.0,0.0,1.0,0.0,0.0,0.0,1.0,-0.1916015625,1.9962487793,10.2099682617,0.1,0.0,0.0,0.0,0.1,0.0,0.0,0.0,0.1
1446040155278193455,265,1446040155274938106,robocape,0.803328894111,31.722368532,-64.7292294657,0.0,10.0,0.0,0.0,0.0,10.0,0.0,0.0,0.0,10.0,-0.000133158054504,0.0214384467751,-0.0872185257001,1.0,0.0,0.0,0.0,1.0,0.0,0.0,0.0,1.0,-0.383203125,1.69088378906,10.1740429688,0.1,0.0,0.0,0.0,0.1,0.0,0.0,0.0,0.1
1446040155314689830,266,1446040155311521053,robocape,0.752116607751,31.5865068625,-64.1668289881,0.0,10.0,0.0,0.0,0.0,10.0,0.0,0.0,0.0,10.0,-0.124635939016,0.0181094954125,0.0569916473277,1.0,0.0,0.0,0.0,1.0,0.0,0.0,0.0,1.0,-0.178428955078,1.9124230957,10.157277832,0.1,0.0,0.0,0.0,0.1,0.0,0.0,0.0,0.1
1446040155351256872,267,1446040155348067998,robocape,0.723302200705,31.4549769033,-63.6377368496,0.0,10.0,0.0,0.0,0.0,10.0,0.0,0.0,0.0,10.0,-0.102531701968,0.0221042370477,0.0391484680242,1.0,0.0,0.0,0.0,1.0,0.0,0.0,0.0,1.0,-0.0910107421875,0.932860107422,10.2003881836,0.1,0.0,0.0,0.0,0.1,0.0,0.0,0.0,0.1
1446040155389516455,268,1446040155385481119,robocape,0.852149792558,31.2878465777,-63.2807437595,0.0,10.0,0.0,0.0,0.0,10.0,0.0,0.0,0.0,10.0,0.0383495196971,0.0190416017941,-0.0732369299772,1.0,0.0,0.0,0.0,1.0,0.0,0.0,0.0,1.0,-0.356857910156,1.86212768555,10.1812280273,0.1,0.0,0.0,0.0,0.1,0.0,0.0,0.0,0.1
1446040155423932955,269,1446040155419729948,robocape,0.79877170036,31.1557714708,-62.8182997717,0.0,10.0,0.0,0.0,0.0,10.0,0.0,0.0,0.0,10.0,-0.0953411670248,0.0237021337017,0.0066579027252,1.0,0.0,0.0,0.0,1.0,0.0,0.0,0.0,1.0,-0.329315185547,1.88368286133,10.157277832,0.1,0.0,0.0,0.0,0.1,0.0,0.0,0.0,0.1
1446040155458276455,270,1446040155454854011,robocape,0.783960512461,30.9957876705,-62.4731358437,0.0,10.0,0.0,0.0,0.0,10.0,0.0,0.0,0.0,10.0,-0.0378168874791,0.0167779148675,-0.0637827081074,1.0,0.0,0.0,0.0,1.0,0.0,0.0,0.0,1.0,-0.202379150391,1.53401000977,10.1536853027,0.1,0.0,0.0,0.0,0.1,0.0,0.0,0.0,0.1
1446040155495577747,271,1446040155492153882,robocape,0.603550089408,30.8555611216,-61.9302933897,0.0,10.0,0.0,0.0,0.0,10.0,0.0,0.0,0.0,10.0,-0.192546546813,0.00585895439817,0.0751011427402,1.0,0.0,0.0,0.0,1.0,0.0,0.0,0.0,1.0,-0.500559082031,1.56873779297,10.1632653809,0.1,0.0,0.0,0.0,0.1,0.0,0.0,0.0,0.1
1446040155529376747,272,1446040155526211023,robocape,0.604442130252,30.7207937517,-61.5090107559,0.0,10.0,0.0,0.0,0.0,10.0,0.0,0.0,0.0,10.0,-0.0564590151097,0.0214384467751,-0.00798948327024,1.0,0.0,0.0,0.0,1.0,0.0,0.0,0.0,1.0,-0.257464599609,0.944835205078,10.2051782227,0.1,0.0,0.0,0.0,0.1,0.0,0.0,0.0,0.1
1446040155565347539,273,1446040155561279058,robocape,0.614767056372,30.6023356152,-60.8937632124,0.0,10.0,0.0,0.0,0.0,10.0,0.0,0.0,0.0,10.0,-0.11411645271,0.0138484376684,0.1182443524,1.0,0.0,0.0,0.0,1.0,0.0,0.0,0.0,1.0,-0.0167651367188,1.21906494141,10.1668579102,0.1,0.0,0.0,0.0,0.1,0.0,0.0,0.0,0.1
1446040155600300122,274,1446040155596970081,robocape,0.869647308273,30.472227124,-60.5095295692,0.0,10.0,0.0,0.0,0.0,10.0,0.0,0.0,0.0,10.0,0.0905474770627,0.0299605622634,-0.0344879361165,1.0,0.0,0.0,0.0,1.0,0.0,0.0,0.0,1.0,-0.111368408203,0.793948974609,10.1848205566,0.1,0.0,0.0,0.0,0.1,0.0,0.0,0.0,0.1
1446040155634892164,275,1446040155631757020,robocape,1.10893583399,30.3641028988,-59.9815490355,0.0,10.0,0.0,0.0,0.0,10.0,0.0,0.0,0.0,10.0,0.0368847810976,0.0303600364269,0.0589890181453,1.0,0.0,0.0,0.0,1.0,0.0,0.0,0.0,1.0,-0.0239501953125,0.810714111328,10.1692529297,0.1,0.0,0.0,0.0,0.1,0.0,0.0,0.0,0.1
1446040155672705455,276,1446040155669204950,robocape,1.56560056213,30.2427783509,-59.5350609133,0.0,10.0,0.0,0.0,0.0,10.0,0.0,0.0,0.0,10.0,0.17976337358,0.0334226716805,0.00253000303558,1.0,0.0,0.0,0.0,1.0,0.0,0.0,0.0,1.0,-0.322130126953,1.8357824707,10.1716479492,0.1,0.0,0.0,0.0,0.1,0.0,0.0,0.0,0.1
1446040155710812789,277,1446040155707546949,robocape,1.8530149802,30.1396466753,-58.8659068707,0.0,10.0,0.0,0.0,0.0,10.0,0.0,0.0,0.0,10.0,0.0189084437396,0.0246342400832,0.152599130462,1.0,0.0,0.0,0.0,1.0,0.0,0.0,0.0,1.0,-0.3065625,1.63100830078,10.1752404785,0.1,0.0,0.0,0.0,0.1,0.0,0.0,0.0,0.1
1446040155750095622,278,1446040155746455907,robocape,2.25155403879,30.0252718868,-58.4080798264,0.0,10.0,0.0,0.0,0.0,10.0,0.0,0.0,0.0,10.0,0.145009121355,0.0339553038985,0.0211721306661,1.0,0.0,0.0,0.0,1.0,0.0,0.0,0.0,1.0,-0.217946777344,0.998723144531,10.2782263184,0.1,0.0,0.0,0.0,0.1,0.0,0.0,0.0,0.1
1446040155787077330,279,1446040155778058052,robocape,2.92038975513,29.9017688032,-58.1548784476,0.0,10.0,0.0,0.0,0.0,10.0,0.0,0.0,0.0,10.0,0.356197795798,0.0467384771309,-0.1153148752,1.0,0.0,0.0,0.0,1.0,0.0,0.0,0.0,1.0,-0.516126708984,1.55676269531,10.1716479492,0.1,0.0,0.0,0.0,0.1,0.0,0.0,0.0,0.1
1446040155828322539,280,1446040155825139999,robocape,3.28138064921,29.7675732475,-57.9202103278,0.0,10.0,0.0,0.0,0.0,10.0,0.0,0.0,0.0,10.0,0.196674446502,0.0339553038985,-0.108923288584,1.0,0.0,0.0,0.0,1.0,0.0,0.0,0.0,1.0,-0.102985839844,3.17579589844,10.1620678711,0.1,0.0,0.0,0.0,0.1,0.0,0.0,0.0,0.1
1446040155864371580,281,1446040155860811948,robocape,3.09906828606,29.6316195141,-57.7038859888,0.0,10.0,0.0,0.0,0.0,10.0,0.0,0.0,0.0,10.0,-0.0920122156622,0.0199737081756,-0.0901480028992,1.0,0.0,0.0,0.0,1.0,0.0,0.0,0.0,1.0,-0.3065625,3.40452026367,10.172845459,0.1,0.0,0.0,0.0,0.1,0.0,0.0,0.0,0.1
1446040155902866164,282,1446040155899576902,robocape,2.51177329922,29.4776323227,-57.5304561812,0.0,10.0,0.0,0.0,0.0,10.0,0.0,0.0,0.0,10.0,-0.299871938743,0.00133158054504,-0.0920122156622,1.0,0.0,0.0,0.0,1.0,0.0,0.0,0.0,1.0,-0.317340087891,1.97948364258,10.1872155762,0.1,0.0,0.0,0.0,0.1,0.0,0.0,0.0,0.1
1446040155936975955,283,1446040155933557033,robocape,1.90283152055,29.3104633707,-57.4189118955,0.0,10.0,0.0,0.0,0.0,10.0,0.0,0.0,0.0,10.0,-0.295078248781,-0.00399474163512,-0.126633309833,1.0,0.0,0.0,0.0,1.0,0.0,0.0,0.0,1.0,-0.160466308594,1.78309204102,10.1944006348,0.1,0.0,0.0,0.0,0.1,0.0,0.0,0.0,0.1
1446040155975786664,284,1446040155972357034,robocape,1.244600362,29.1422822033,-57.1949477734,0.0,10.0,0.0,0.0,0.0,10.0,0.0,0.0,0.0,10.0,-0.357795692452,-0.0129163312869,-0.0537958540196,1.0,0.0,0.0,0.0,1.0,0.0,0.0,0.0,1.0,-0.608334960938,1.52682495117,10.1920056152,0.1,0.0,0.0,0.0,0.1,0.0,0.0,0.0,0.1
1446040156010722414,285,1446040156007586956,robocape,0.538963190048,28.9809103894,-56.9360066871,0.0,10.0,0.0,0.0,0.0,10.0,0.0,0.0,0.0,10.0,-0.395612579931,-0.0135821215594,-0.0294279300454,1.0,0.0,0.0,0.0,1.0,0.0,0.0,0.0,1.0,-0.275427246094,1.36156860352,10.1453027344,0.1,0.0,0.0,0.0,0.1,0.0,0.0,0.0,0.1
1446040156043150372,286,1446040156040093898,robocape,-0.201662382062,28.8247543438,-56.5105591045,0.0,10.0,0.0,0.0,0.0,10.0,0.0,0.0,0.0,10.0,-0.465121084382,-0.0246342400832,0.0752343007947,1.0,0.0,0.0,0.0,1.0,0.0,0.0,0.0,1.0,-0.17244140625,1.33163085938,10.1668579102,0.1,0.0,0.0,0.0,0.1,0.0,0.0,0.0,0.1
1446040156078736331,287,1446040156075114011,robocape,-0.767080955939,28.6783795549,-56.0354276448,0.0,10.0,0.0,0.0,0.0,10.0,0.0,0.0,0.0,10.0,-0.387223622498,-0.0219710789932,0.100001698932,1.0,0.0,0.0,0.0,1.0,0.0,0.0,0.0,1.0,-0.512534179688,-0.328117675781,10.172845459,0.1,0.0,0.0,0.0,0.1,0.0,0.0,0.0,0.1
1446040156113532622,288,1446040156110340118,robocape,-0.824730247265,28.5663580334,-55.5382222662,0.0,10.0,0.0,0.0,0.0,10.0,0.0,0.0,0.0,10.0,-0.123171200416,0.00279631914458,0.0958737992429,1.0,0.0,0.0,0.0,1.0,0.0,0.0,0.0,1.0,0.165256347656,-1.20110229492,10.0423168945,0.1,0.0,0.0,0.0,0.1,0.0,0.0,0.0,0.1
1446040156151129414,289,1446040156148072957,robocape,-0.167941825942,28.5187098353,-55.1405785636,0.0,10.0,0.0,0.0,0.0,10.0,0.0,0.0,0.0,10.0,0.287621397729,0.0585895439817,0.0105194863058,1.0,0.0,0.0,0.0,1.0,0.0,0.0,0.0,1.0,0.0323327636719,-0.05748046875,10.1021923828,0.1,0.0,0.0,0.0,0.1,0.0,0.0,0.0,0.1
1446040156189384372,290,1446040156185695886,robocape,0.719507976762,28.4636061362,-54.8501889897,0.0,10.0,0.0,0.0,0.0,10.0,0.0,0.0,0.0,10.0,0.443682637607,0.0669785014155,-0.0605869147993,1.0,0.0,0.0,0.0,1.0,0.0,0.0,0.0,1.0,-0.450263671875,0.605939941406,10.2650537109,0.1,0.0,0.0,0.0,0.1,0.0,0.0,0.0,0.1
1446040156225353456,291,1446040156222165107,robocape,1.79303033573,28.3962633989,-54.764219934,0.0,10.0,0.0,0.0,0.0,10.0,0.0,0.0,0.0,10.0,0.606002306048,0.0766990393943,-0.190815492104,1.0,0.0,0.0,0.0,1.0,0.0,0.0,0.0,1.0,-0.426313476563,1.37234619141,10.1824255371,0.1,0.0,0.0,0.0,0.1,0.0,0.0,0.0,0.1
1446040156260351331,292,1446040156257285118,robocape,2.65274644399,28.304992133,-54.5604637951,0.0,10.0,0.0,0.0,0.0,10.0,0.0,0.0,0.0,10.0,0.460726868584,0.0533963798561,-0.112119081892,1.0,0.0,0.0,0.0,1.0,0.0,0.0,0.0,1.0,-0.411943359375,2.36268676758,10.1057849121,0.1,0.0,0.0,0.0,0.1,0.0,0.0,0.0,0.1
1446040156295439914,293,1446040156292146921,robocape,3.06360130502,28.2235411828,-54.2029389612,0.0,10.0,0.0,0.0,0.0,10.0,0.0,0.0,0.0,10.0,0.176967054436,0.0435426838228,-0.00186421276306,1.0,0.0,0.0,0.0,1.0,0.0,0.0,0.0,1.0,-0.341290283203,3.13747558594,10.1093774414,0.1,0.0,0.0,0.0,0.1,0.0,0.0,0.0,0.1
1446040156329781914,294,1446040156325963020,robocape,3.09828666941,28.1232429075,-53.8726945061,0.0,10.0,0.0,0.0,0.0,10.0,0.0,0.0,0.0,10.0,-0.0175768631945,0.0262321367373,0.00159789665405,1.0,0.0,0.0,0.0,1.0,0.0,0.0,0.0,1.0,-0.213156738281,2.91234375,10.1704504395,0.1,0.0,0.0,0.0,0.1,0.0,0.0,0.0,0.1
1446040156366697789,295,1446040156363403081,robocape,2.83256741617,28.0042128574,-53.5545944903,0.0,10.0,0.0,0.0,0.0,10.0,0.0,0.0,0.0,10.0,-0.176700738327,0.00918790576077,0.0113184346328,1.0,0.0,0.0,0.0,1.0,0.0,0.0,0.0,1.0,-0.137713623047,2.65368164063,10.1536853027,0.1,0.0,0.0,0.0,0.1,0.0,0.0,0.0,0.1
1446040156401891247,296,1446040156398689985,robocape,2.17618485843,27.8788977237,-53.0509655414,0.0,10.0,0.0,0.0,0.0,10.0,0.0,0.0,0.0,10.0,-0.440753160408,-0.0115847507418,0.141547011938,1.0,0.0,0.0,0.0,1.0,0.0,0.0,0.0,1.0,-0.342487792969,2.2608984375,10.2351159668,0.1,0.0,0.0,0.0,0.1,0.0,0.0,0.0,0.1
1446040156437430789,297,1446040156434016942,robocape,1.49162122411,27.7658478617,-52.4392682052,0.0,10.0,0.0,0.0,0.0,10.0,0.0,0.0,0.0,10.0,-0.48722532143,-0.0134489635049,0.20812603919,1.0,0.0,0.0,0.0,1.0,0.0,0.0,0.0,1.0,-0.465831298828,0.621507568359,10.096204834,0.1,0.0,0.0,0.0,0.1,0.0,0.0,0.0,0.1
1446040156473005122,298,1446040156469513893,robocape,1.03503850821,27.6364477032,-52.1732650677,0.0,10.0,0.0,0.0,0.0,10.0,0.0,0.0,0.0,10.0,-0.270577166752,-0.00359526747161,-0.00173105470855,1.0,0.0,0.0,0.0,1.0,0.0,0.0,0.0,1.0,-0.223934326172,0.952020263672,10.177635498,0.1,0.0,0.0,0.0,0.1,0.0,0.0,0.0,0.1
1446040156508305039,299,1446040156504683017,robocape,0.654653829183,27.5131997933,-51.8211273033,0.0,10.0,0.0,0.0,0.0,10.0,0.0,0.0,0.0,10.0,-0.254864516321,-0.00492684801665,0.0480700576759,1.0,0.0,0.0,0.0,1.0,0.0,0.0,0.0,1.0,-0.217946777344,0.0694555664063,10.1189575195,0.1,0.0,0.0,0.0,0.1,0.0,0.0,0.0,0.1
1446040156539561914,300,1446040156536295890,robocape,0.582407682193,27.4263348003,-51.5041557374,0.0,10.0,0.0,0.0,0.0,10.0,0.0,0.0,0.0,10.0,-0.0813595713019,0.0210389726116,0.0173105470855,1.0,0.0,0.0,0.0,1.0,0.0,0.0,0.0,1.0,0.116158447266,-0.299377441406,10.1644628906,0.1,0.0,0.0,0.0,0.1,0.0,0.0,0.0,0.1
1446040156577348997,301,1446040156573826074,robocape,0.983628023955,27.3581560914,-51.2283170681,0.0,10.0,0.0,0.0,0.0,10.0,0.0,0.0,0.0,10.0,0.18242653467,0.0407463646782,-0.0205063403936,1.0,0.0,0.0,0.0,1.0,0.0,0.0,0.0,1.0,-0.119750976563,0.0347277832031,10.2195483398,0.1,0.0,0.0,0.0,0.1,0.0,0.0,0.0,0.1
1446040156615154247,302,1446040156610954999,robocape,1.58275467815,27.2896031993,-51.1910431365,0.0,10.0,0.0,0.0,0.0,10.0,0.0,0.0,0.0,10.0,0.354599899144,0.0557932248372,-0.165914935912,1.0,0.0,0.0,0.0,1.0,0.0,0.0,0.0,1.0,-0.380808105469,0.831071777344,10.1644628906,0.1,0.0,0.0,0.0,0.1,0.0,0.0,0.0,0.1
1446040156650357331,303,1446040156647193908,robocape,2.18414727983,27.2139560234,-51.2065539807,0.0,10.0,0.0,0.0,0.0,10.0,0.0,0.0,0.0,10.0,0.372443078448,0.0537958540196,-0.197739710938,1.0,0.0,0.0,0.0,1.0,0.0,0.0,0.0,1.0,-0.220341796875,1.42503662109,10.2099682617,0.1,0.0,0.0,0.0,0.1,0.0,0.0,0.0,0.1
1446040156687319998,304,1446040156684144973,robocape,2.56512283404,27.1229469367,-51.0700380481,0.0,10.0,0.0,0.0,0.0,10.0,0.0,0.0,0.0,10.0,0.214251309697,0.03488741028,-0.10053433115,1.0,0.0,0.0,0.0,1.0,0.0,0.0,0.0,1.0,-0.276624755859,2.36388427734,10.1584753418,0.1,0.0,0.0,0.0,0.1,0.0,0.0,0.0,0.1
1446040156722393331,305,1446040156718858003,robocape,2.56178473468,27.038266055,-50.7230949921,0.0,10.0,0.0,0.0,0.0,10.0,0.0,0.0,0.0,10.0,-0.0486026898939,0.0234358175927,0.0371510972066,1.0,0.0,0.0,0.0,1.0,0.0,0.0,0.0,1.0,-0.453856201172,2.37825439453,10.1836230469,0.1,0.0,0.0,0.0,0.1,0.0,0.0,0.0,0.1
1446040156751451664,306,1446040156748034954,robocape,2.21558731211,26.9463942205,-50.0795592093,0.0,10.0,0.0,0.0,0.0,10.0,0.0,0.0,0.0,10.0,-0.313320902248,0.00106526443603,0.226235534602,1.0,0.0,0.0,0.0,1.0,0.0,0.0,0.0,1.0,-0.378413085938,2.07528442383,10.2219433594,0.1,0.0,0.0,0.0,0.1,0.0,0.0,0.0,0.1
1446040156790147123,307,1446040156786689043,robocape,1.6935367606,26.8580045809,-49.2954699597,0.0,10.0,0.0,0.0,0.0,10.0,0.0,0.0,0.0,10.0,-0.44554685037,-0.00852211548825,0.316383537501,1.0,0.0,0.0,0.0,1.0,0.0,0.0,0.0,1.0,-0.156873779297,1.09691894531,10.1967956543,0.1,0.0,0.0,0.0,0.1,0.0,0.0,0.0,0.1
1446040156829148164,308,1446040156825402975,robocape,1.5379841606,26.7758974352,-49.01897517,0.0,10.0,0.0,0.0,0.0,10.0,0.0,0.0,0.0,10.0,-0.115581191309,0.0198405501211,0.0126500151779,1.0,0.0,0.0,0.0,1.0,0.0,0.0,0.0,1.0,-0.0826281738281,0.076640625,10.096204834,0.1,0.0,0.0,0.0,0.1,0.0,0.0,0.0,0.1
1446040156864920206,309,1446040156861547946,robocape,1.66834066955,26.697098222,-48.8225805463,0.0,10.0,0.0,0.0,0.0,10.0,0.0,0.0,0.0,10.0,0.0576574376002,0.0287621397729,-0.0404800485692,1.0,0.0,0.0,0.0,1.0,0.0,0.0,0.0,1.0,-0.221539306641,1.0765612793,10.1920056152,0.1,0.0,0.0,0.0,0.1,0.0,0.0,0.0,0.1
1446040156900288331,310,1446040156897150993,robocape,1.65654035861,26.6121194462,-48.4958204581,0.0,10.0,0.0,0.0,0.0,10.0,0.0,0.0,0.0,10.0,-0.0528637476381,0.017177389031,0.0410126807872,1.0,0.0,0.0,0.0,1.0,0.0,0.0,0.0,1.0,-0.276624755859,1.19511474609,10.1991906738,0.1,0.0,0.0,0.0,0.1,0.0,0.0,0.0,0.1
1446040156935341873,311,1446040156932189941,robocape,1.73126788131,26.5339754799,-48.2046492314,0.0,10.0,0.0,0.0,0.0,10.0,0.0,0.0,0.0,10.0,0.00239684498107,0.0230363434292,0.0195742340121,1.0,0.0,0.0,0.0,1.0,0.0,0.0,0.0,1.0,-0.176033935547,0.674197998047,10.2003881836,0.1,0.0,0.0,0.0,0.1,0.0,0.0,0.0,0.1
1446040156975082081,312,1446040156971009016,robocape,1.98006587462,26.4730199799,-47.9952322975,0.0,10.0,0.0,0.0,0.0,10.0,0.0,0.0,0.0,10.0,0.116912771854,0.0379500455336,-0.031957933081,1.0,0.0,0.0,0.0,1.0,0.0,0.0,0.0,1.0,-0.221539306641,0.603544921875,10.193203125,0.1,0.0,0.0,0.0,0.1,0.0,0.0,0.0,0.1
1446040157012292039,313,1446040157009197950,robocape,2.39371670051,26.401916611,-48.1164492287,0.0,10.0,0.0,0.0,0.0,10.0,0.0,0.0,0.0,10.0,0.292548245745,0.0464721610219,-0.225702902384,1.0,0.0,0.0,0.0,1.0,0.0,0.0,0.0,1.0,-0.211959228516,1.0346484375,10.1620678711,0.1,0.0,0.0,0.0,0.1,0.0,0.0,0.0,0.1
1446040157051128039,314,1446040157047832965,robocape,2.56112361938,26.3260447586,-47.9064728782,0.0,10.0,0.0,0.0,0.0,10.0,0.0,0.0,0.0,10.0,0.0748348266312,0.0286289817184,-0.0280963495003,1.0,0.0,0.0,0.0,1.0,0.0,0.0,0.0,1.0,-0.167651367188,2.17348022461,10.2075732422,0.1,0.0,0.0,0.0,0.1,0.0,0.0,0.0,0.1
1446040157083801664,315,1446040157080540895,robocape,2.53763990457,26.2542615684,-47.4365116808,0.0,10.0,0.0,0.0,0.0,10.0,0.0,0.0,0.0,10.0,-0.0952080089703,0.0191747598486,0.128497522596,1.0,0.0,0.0,0.0,1.0,0.0,0.0,0.0,1.0,-0.259859619141,0.972377929688,10.1548828125,0.1,0.0,0.0,0.0,0.1,0.0,0.0,0.0,0.1
1446040157120897289,316,1446040157117670059,robocape,2.61268753471,26.176904762,-47.1903146132,0.0,10.0,0.0,0.0,0.0,10.0,0.0,0.0,0.0,10.0,0.015313176268,0.0238352917562,0.0,1.0,0.0,0.0,0.0,1.0,0.0,0.0,0.0,1.0,-0.213156738281,1.27295288086,10.1488952637,0.1,0.0,0.0,0.0,0.1,0.0,0.0,0.0,0.1
1446040157154619664,317,1446040157151437044,robocape,2.58629234433,26.1004379864,-46.9133072267,0.0,10.0,0.0,0.0,0.0,10.0,0.0,0.0,0.0,10.0,-0.0470047932399,0.0213052887206,0.0221042370477,1.0,0.0,0.0,0.0,1.0,0.0,0.0,0.0,1.0,-0.232316894531,0.969982910156,10.1740429688,0.1,0.0,0.0,0.0,0.1,0.0,0.0,0.0,0.1
1446040157190183581,318,1446040157187082052,robocape,2.64633047177,26.0241718023,-46.6457790122,0.0,10.0,0.0,0.0,0.0,10.0,0.0,0.0,0.0,10.0,0.00119842249054,0.0223705531567,0.0159789665405,1.0,0.0,0.0,0.0,1.0,0.0,0.0,0.0,1.0,-0.270637207031,1.62861328125,10.208770752,0.1,0.0,0.0,0.0,0.1,0.0,0.0,0.0,0.1
1446040157225067998,319,1446040157221757888,robocape,2.63229579585,25.9466968487,-46.3804995644,0.0,10.0,0.0,0.0,0.0,10.0,0.0,0.0,0.0,10.0,-0.0379500455336,0.0201068662301,0.0185089695761,1.0,0.0,0.0,0.0,1.0,0.0,0.0,0.0,1.0,-0.256267089844,1.10170898438,10.1896105957,0.1,0.0,0.0,0.0,0.1,0.0,0.0,0.0,0.1
1446040157259464289,320,1446040157256314992,robocape,2.61346113232,25.8675566344,-46.1069377051,0.0,10.0,0.0,0.0,0.0,10.0,0.0,0.0,0.0,10.0,-0.0430100516048,0.018242653467,0.0251668723012,1.0,0.0,0.0,0.0,1.0,0.0,0.0,0.0,1.0,-0.225131835938,1.56394775391,10.1536853027,0.1,0.0,0.0,0.0,0.1,0.0,0.0,0.0,0.1
1446040157294959789,321,1446040157291837930,robocape,2.41978423258,25.7851959786,-45.7146631304,0.0,10.0,0.0,0.0,0.0,10.0,0.0,0.0,0.0,10.0,-0.166980200348,0.00972053797879,0.0994690667145,1.0,0.0,0.0,0.0,1.0,0.0,0.0,0.0,1.0,-0.257464599609,1.48610961914,10.1596728516,0.1,0.0,0.0,0.0,0.1,0.0,0.0,0.0,0.1
1446040157331974748,322,1446040157328376054,robocape,2.22406218548,25.7028995045,-45.4324287732,0.0,10.0,0.0,0.0,0.0,10.0,0.0,0.0,0.0,10.0,-0.140748063611,0.0118510668509,0.0390153099697,1.0,0.0,0.0,0.0,1.0,0.0,0.0,0.0,1.0,-0.293389892578,0.335302734375,10.1596728516,0.1,0.0,0.0,0.0,0.1,0.0,0.0,0.0,0.1
1446040157367942581,323,1446040157364778041,robocape,2.2900856369,25.6341890406,-45.1858982689,0.0,10.0,0.0,0.0,0.0,10.0,0.0,0.0,0.0,10.0,0.00719053494321,0.0233026595382,0.0127831732324,1.0,0.0,0.0,0.0,1.0,0.0,0.0,0.0,1.0,-0.159268798828,0.620310058594,10.1584753418,0.1,0.0,0.0,0.0,0.1,0.0,0.0,0.0,0.1
1446040157409949123,324,1446040157406333923,robocape,2.4957778943,25.5790910435,-44.9202872308,0.0,10.0,0.0,0.0,0.0,10.0,0.0,0.0,0.0,10.0,0.0768321974488,0.0318247750264,0.0205063403936,1.0,0.0,0.0,0.0,1.0,0.0,0.0,0.0,1.0,-0.193996582031,0.859812011719,10.1536853027,0.1,0.0,0.0,0.0,0.1,0.0,0.0,0.0,0.1
