%time,field.header.seq,field.header.stamp,field.header.frame_id,field.orientation.x,field.orientation.y,field.orientation.z,field.orientation.w,field.orientation_covariance0,field.orientation_covariance1,field.orientation_covariance2,field.orientation_covariance3,field.orientation_covariance4,field.orientation_covariance5,field.orientation_covariance6,field.orientation_covariance7,field.orientation_covariance8,field.angular_velocity.x,field.angular_velocity.y,field.angular_velocity.z,field.angular_velocity_covariance0,field.angular_velocity_covariance1,field.angular_velocity_covariance2,field.angular_velocity_covariance3,field.angular_velocity_covariance4,field.angular_velocity_covariance5,field.angular_velocity_covariance6,field.angular_velocity_covariance7,field.angular_velocity_covariance8,field.linear_acceleration.x,field.linear_acceleration.y,field.linear_acceleration.z,field.linear_acceleration_covariance0,field.linear_acceleration_covariance1,field.linear_acceleration_covariance2,field.linear_acceleration_covariance3,field.linear_acceleration_covariance4,field.linear_acceleration_covariance5,field.linear_acceleration_covariance6,field.linear_acceleration_covariance7,field.linear_acceleration_covariance8
1446040233763789618,335,1446040233730504989,robocape,8.84066337311,19.5055821407,1.80196157964,0.0,10.0,0.0,0.0,0.0,10.0,0.0,0.0,0.0,10.0,0.00745685105222,0.0239684498107,0.00599211245268,1.0,0.0,0.0,0.0,1.0,0.0,0.0,0.0,1.0,-0.1149609375,0.627495117188,10.1596728516,0.1,0.0,0.0,0.0,0.1,0.0,0.0,0.0,0.1
1446040233782469201,336,1446040233776520967,robocape,8.83827022515,19.5100455344,1.81491338414,0.0,10.0,0.0,0.0,0.0,10.0,0.0,0.0,0.0,10.0,0.00532632218016,0.0238352917562,0.00625842856169,1.0,0.0,0.0,0.0,1.0,0.0,0.0,0.0,1.0,-0.117355957031,0.604742431641,10.1584753418,0.1,0.0,0.0,0.0,0.1,0.0,0.0,0.0,0.1
1446040233812903243,337,1446040233809022903,robocape,8.83381691211,19.5135499264,1.82768020758,0.0,10.0,0.0,0.0,0.0,10.0,0.0,0.0,0.0,10.0,0.00426105774413,0.0233026595382,0.00625842856169,1.0,0.0,0.0,0.0,1.0,0.0,0.0,0.0,1.0,-0.107775878906,0.613125,10.1596728516,0.1,0.0,0.0,0.0,0.1,0.0,0.0,0.0,0.1
1446040233869553534,338,1446040233854726076,robocape,8.82987155359,19.5170422786,1.84041669946,0.0,10.0,0.0,0.0,0.0,10.0,0.0,0.0,0.0,10.0,0.00452737385313,0.0233026595382,0.00625842856169,1.0,0.0,0.0,0.0,1.0,0.0,0.0,0.0,1.0,-0.102985839844,0.597557373047,10.1680554199,0.1,0.0,0.0,0.0,0.1,0.0,0.0,0.0,0.1
1446040233900722909,339,1446040233897255897,robocape,8.82938172055,19.5207672212,1.85289029294,0.0,10.0,0.0,0.0,0.0,10.0,0.0,0.0,0.0,10.0,0.00639158661619,0.0234358175927,0.00612527050718,1.0,0.0,0.0,0.0,1.0,0.0,0.0,0.0,1.0,-0.116158447266,0.595162353516,10.1596728516,0.1,0.0,0.0,0.0,0.1,0.0,0.0,0.0,0.1
1446040233934802743,340,1446040233931349039,robocape,8.83032632964,19.5243891481,1.86586589643,0.0,10.0,0.0,0.0,0.0,10.0,0.0,0.0,0.0,10.0,0.00705737688871,0.0234358175927,0.00639158661619,1.0,0.0,0.0,0.0,1.0,0.0,0.0,0.0,1.0,-0.124541015625,0.597557373047,10.1836230469,0.1,0.0,0.0,0.0,0.1,0.0,0.0,0.0,0.1
1446040233976642409,341,1446040233973551034,robocape,8.83056792228,19.5294720182,1.87905540794,0.0,10.0,0.0,0.0,0.0,10.0,0.0,0.0,0.0,10.0,0.0066579027252,0.0242347659197,0.00639158661619,1.0,0.0,0.0,0.0,1.0,0.0,0.0,0.0,1.0,-0.117355957031,0.603544921875,10.1476977539,0.1,0.0,0.0,0.0,0.1,0.0,0.0,0.0,0.1
1446040234011795201,342,1446040234008434057,robocape,8.82948189835,19.5340546724,1.89050106079,0.0,10.0,0.0,0.0,0.0,10.0,0.0,0.0,0.0,10.0,0.00625842856169,0.0238352917562,0.00559263828917,1.0,0.0,0.0,0.0,1.0,0.0,0.0,0.0,1.0,-0.123343505859,0.607137451172,10.1788330078,0.1,0.0,0.0,0.0,0.1,0.0,0.0,0.0,0.1
1446040234049057743,343,1446040234045767068,robocape,8.82729283035,19.5377186073,1.90313495189,0.0,10.0,0.0,0.0,0.0,10.0,0.0,0.0,0.0,10.0,0.00545948023466,0.0234358175927,0.00625842856169,1.0,0.0,0.0,0.0,1.0,0.0,0.0,0.0,1.0,-0.129331054688,0.610729980469,10.1596728516,0.1,0.0,0.0,0.0,0.1,0.0,0.0,0.0,0.1
1446040234085151326,344,1446040234081302881,robocape,8.82315880766,19.5414748643,1.91521236302,0.0,10.0,0.0,0.0,0.0,10.0,0.0,0.0,0.0,10.0,0.00452737385313,0.0234358175927,0.00599211245268,1.0,0.0,0.0,0.0,1.0,0.0,0.0,0.0,1.0,-0.101788330078,0.592767333984,10.1596728516,0.1,0.0,0.0,0.0,0.1,0.0,0.0,0.0,0.1
1446040234121816159,345,1446040234118724107,robocape,8.82058796191,19.5438599728,1.93494164582,0.0,10.0,0.0,0.0,0.0,10.0,0.0,0.0,0.0,10.0,0.00399474163512,0.0233026595382,0.00985369603329,1.0,0.0,0.0,0.0,1.0,0.0,0.0,0.0,1.0,-0.101788330078,0.621507568359,10.1644628906,0.1,0.0,0.0,0.0,0.1,0.0,0.0,0.0,0.1
1446040234156865034,346,1446040234153805971,robocape,8.77293680015,19.5380268925,1.99717396127,0.0,10.0,0.0,0.0,0.0,10.0,0.0,0.0,0.0,10.0,-0.0272974011733,0.0218379209386,0.0312921428084,1.0,0.0,0.0,0.0,1.0,0.0,0.0,0.0,1.0,-0.0826281738281,0.772393798828,10.1824255371,0.1,0.0,0.0,0.0,0.1,0.0,0.0,0.0,0.1
1446040234191216493,347,1446040234188046932,robocape,8.75450658625,19.5323535687,2.08243245194,0.0,10.0,0.0,0.0,0.0,10.0,0.0,0.0,0.0,10.0,-0.0159789665405,0.0238352917562,0.0426105774413,1.0,0.0,0.0,0.0,1.0,0.0,0.0,0.0,1.0,-0.0826281738281,0.355660400391,10.1153649902,0.1,0.0,0.0,0.0,0.1,0.0,0.0,0.0,0.1
1446040234226111118,348,1446040234222670078,robocape,8.77304357389,19.525411374,2.25065583814,0.0,10.0,0.0,0.0,0.0,10.0,0.0,0.0,0.0,10.0,-0.0110521185238,0.0296942461544,0.0833569421195,1.0,0.0,0.0,0.0,1.0,0.0,0.0,0.0,1.0,-0.0946032714844,0.393980712891,10.1644628906,0.1,0.0,0.0,0.0,0.1,0.0,0.0,0.0,0.1
1446040234261530743,349,1446040234258402109,robocape,8.96767879171,19.5315730434,2.42441707983,0.0,10.0,0.0,0.0,0.0,10.0,0.0,0.0,0.0,10.0,0.0809600971384,0.0384826777516,0.0852211548825,1.0,0.0,0.0,0.0,1.0,0.0,0.0,0.0,1.0,0.125738525391,-0.136516113281,10.039921875,0.1,0.0,0.0,0.0,0.1,0.0,0.0,0.0,0.1
1446040234299562243,350,1446040234296350955,robocape,9.36466239952,19.6036455285,2.36418602236,0.0,10.0,0.0,0.0,0.0,10.0,0.0,0.0,0.0,10.0,0.22943132791,0.0569916473277,-0.034354778062,1.0,0.0,0.0,0.0,1.0,0.0,0.0,0.0,1.0,-0.250279541016,1.01309326172,10.2003881836,0.1,0.0,0.0,0.0,0.1,0.0,0.0,0.0,0.1
1446040234338706993,351,1446040234335285902,robocape,9.4658617719,19.6191135024,2.39392066424,0.0,10.0,0.0,0.0,0.0,10.0,0.0,0.0,0.0,10.0,0.0576574376002,0.03222424919,0.0139815957229,1.0,0.0,0.0,0.0,1.0,0.0,0.0,0.0,1.0,-0.376018066406,1.69687133789,10.2566711426,0.1,0.0,0.0,0.0,0.1,0.0,0.0,0.0,0.1
1446040234374178076,352,1446040234371036052,robocape,9.28470429291,19.5829834412,2.53796449247,0.0,10.0,0.0,0.0,0.0,10.0,0.0,0.0,0.0,10.0,-0.111719607729,0.0119842249054,0.0740358783042,1.0,0.0,0.0,0.0,1.0,0.0,0.0,0.0,1.0,-0.373623046875,1.21786743164,10.2327209473,0.1,0.0,0.0,0.0,0.1,0.0,0.0,0.0,0.1
1446040234408908076,353,1446040234405836105,robocape,9.02564262005,19.5127420377,2.7812777461,0.0,10.0,0.0,0.0,0.0,10.0,0.0,0.0,0.0,10.0,-0.17057546782,0.000798948327024,0.125434887343,1.0,0.0,0.0,0.0,1.0,0.0,0.0,0.0,1.0,-0.142503662109,0.524509277344,10.1584753418,0.1,0.0,0.0,0.0,0.1,0.0,0.0,0.0,0.1
1446040234443794243,354,1446040234440418958,robocape,8.78656524827,19.4301433648,3.15802435794,0.0,10.0,0.0,0.0,0.0,10.0,0.0,0.0,0.0,10.0,-0.183491799106,0.00412789968962,0.19188075654,1.0,0.0,0.0,0.0,1.0,0.0,0.0,0.0,1.0,0.00359252929688,-0.313747558594,10.1584753418,0.1,0.0,0.0,0.0,0.1,0.0,0.0,0.0,0.1
1446040234482400118,355,1446040234479262113,robocape,9.05631925277,19.4181931938,3.4986610651,0.0,10.0,0.0,0.0,0.0,10.0,0.0,0.0,0.0,10.0,0.0914795834442,0.0424774193868,0.169377045329,1.0,0.0,0.0,0.0,1.0,0.0,0.0,0.0,1.0,-0.0778381347656,-1.21427490234,10.0542919922,0.1,0.0,0.0,0.0,0.1,0.0,0.0,0.0,0.1
1446040234516456201,356,1446040234513266086,robocape,9.68875458543,19.493805385,3.65033300558,0.0,10.0,0.0,0.0,0.0,10.0,0.0,0.0,0.0,10.0,0.31664985361,0.0776311457758,0.0701742947236,1.0,0.0,0.0,0.0,1.0,0.0,0.0,0.0,1.0,0.0610729980469,0.290994873047,10.1465002441,0.1,0.0,0.0,0.0,0.1,0.0,0.0,0.0,0.1
1446040234557331910,357,1446040234552484989,robocape,10.365538034,19.550709988,3.81512743626,0.0,10.0,0.0,0.0,0.0,10.0,0.0,0.0,0.0,10.0,0.338620932604,0.0705737688871,0.0777643038303,1.0,0.0,0.0,0.0,1.0,0.0,0.0,0.0,1.0,-0.238304443359,0.813109130859,10.1309326172,0.1,0.0,0.0,0.0,0.1,0.0,0.0,0.0,0.1
1446040234594101493,358,1446040234590567111,robocape,10.9723398769,19.6040171155,3.87417932741,0.0,10.0,0.0,0.0,0.0,10.0,0.0,0.0,0.0,10.0,0.321177227464,0.0597879664723,0.0262321367373,1.0,0.0,0.0,0.0,1.0,0.0,0.0,0.0,1.0,-0.380808105469,1.09572143555,10.1692529297,0.1,0.0,0.0,0.0,0.1,0.0,0.0,0.0,0.1
1446040234630439118,359,1446040234627263069,robocape,11.469079707,19.6325952016,3.95123718301,0.0,10.0,0.0,0.0,0.0,10.0,0.0,0.0,0.0,10.0,0.260590312664,0.0483363737849,0.0370179391521,1.0,0.0,0.0,0.0,1.0,0.0,0.0,0.0,1.0,-0.373623046875,1.10649902344,10.1908081055,0.1,0.0,0.0,0.0,0.1,0.0,0.0,0.0,0.1
1446040234665898993,360,1446040234662524938,robocape,11.8594909837,19.6440981531,4.03969883738,0.0,10.0,0.0,0.0,0.0,10.0,0.0,0.0,0.0,10.0,0.202932875064,0.0402137324602,0.0440753160408,1.0,0.0,0.0,0.0,1.0,0.0,0.0,0.0,1.0,-0.340092773437,1.53401000977,10.1393151855,0.1,0.0,0.0,0.0,0.1,0.0,0.0,0.0,0.1
1446040234700340076,361,1446040234697215080,robocape,12.1276353423,19.6579130691,4.08879035348,0.0,10.0,0.0,0.0,0.0,10.0,0.0,0.0,0.0,10.0,0.145674911627,0.0367516230431,0.0246342400832,1.0,0.0,0.0,0.0,1.0,0.0,0.0,0.0,1.0,-0.1149609375,1.56035522461,10.1536853027,0.1,0.0,0.0,0.0,0.1,0.0,0.0,0.0,0.1
1446040234735540160,362,1446040234732291936,robocape,12.303835523,19.6724250028,4.10603912393,0.0,10.0,0.0,0.0,0.0,10.0,0.0,0.0,0.0,10.0,0.102931176132,0.0331563555715,0.00905474770627,1.0,0.0,0.0,0.0,1.0,0.0,0.0,0.0,1.0,-0.0981958007813,1.60346557617,10.1668579102,0.1,0.0,0.0,0.0,0.1,0.0,0.0,0.0,0.1
1446040234782065118,363,1446040234778400897,robocape,12.3051524803,19.6728612254,4.15106517281,0.0,10.0,0.0,0.0,0.0,10.0,0.0,0.0,0.0,10.0,0.00545948023466,0.0271642431188,0.0238352917562,1.0,0.0,0.0,0.0,1.0,0.0,0.0,0.0,1.0,-0.259859619141,1.40587646484,10.1752404785,0.1,0.0,0.0,0.0,0.1,0.0,0.0,0.0,0.1
1446040234820282451,364,1446040234816283941,robocape,12.2810423604,19.6640306644,4.18178970622,0.0,10.0,0.0,0.0,0.0,10.0,0.0,0.0,0.0,10.0,-0.00559263828917,0.0205063403936,0.017976337358,1.0,0.0,0.0,0.0,1.0,0.0,0.0,0.0,1.0,-0.326920166016,1.33402587891,10.1788330078,0.1,0.0,0.0,0.0,0.1,0.0,0.0,0.0,0.1
1446040234856331868,365,1446040234852055072,robocape,12.1195232037,19.6510581491,4.1955110967,0.0,10.0,0.0,0.0,0.0,10.0,0.0,0.0,0.0,10.0,-0.0755006169037,0.0151800182135,0.0101200121423,1.0,0.0,0.0,0.0,1.0,0.0,0.0,0.0,1.0,-0.238304443359,1.40108642578,10.1297351074,0.1,0.0,0.0,0.0,0.1,0.0,0.0,0.0,0.1
1446040234889476285,366,1446040234886131048,robocape,11.8589645151,19.6332324085,4.21023592618,0.0,10.0,0.0,0.0,0.0,10.0,0.0,0.0,0.0,10.0,-0.128364364542,0.0117179087963,0.0110521185238,1.0,0.0,0.0,0.0,1.0,0.0,0.0,0.0,1.0,-0.21076171875,1.35079101563,10.1896105957,0.1,0.0,0.0,0.0,0.1,0.0,0.0,0.0,0.1
1446040234925769285,367,1446040234922630071,robocape,11.5474440646,19.6194087448,4.16921238514,0.0,10.0,0.0,0.0,0.0,10.0,0.0,0.0,0.0,10.0,-0.145808069682,0.00759000910673,-0.016378440704,1.0,0.0,0.0,0.0,1.0,0.0,0.0,0.0,1.0,-0.214354248047,0.886157226563,10.2147583008,0.1,0.0,0.0,0.0,0.1,0.0,0.0,0.0,0.1
1446040234967749952,368,1446040234962591886,robocape,11.3330008707,19.5997386068,4.16780603798,0.0,10.0,0.0,0.0,0.0,10.0,0.0,0.0,0.0,10.0,-0.101732753641,0.00932106381528,0.0034621094171,1.0,0.0,0.0,0.0,1.0,0.0,0.0,0.0,1.0,-0.277822265625,0.44068359375,10.1381176758,0.1,0.0,0.0,0.0,0.1,0.0,0.0,0.0,0.1
1446040235000819243,369,1446040234996728897,robocape,11.2557166686,19.60239876,4.16610552195,0.0,10.0,0.0,0.0,0.0,10.0,0.0,0.0,0.0,10.0,-0.0291616139364,0.0222373951022,0.00119842249054,1.0,0.0,0.0,0.0,1.0,0.0,0.0,0.0,1.0,-0.1916015625,0.425115966797,10.1824255371,0.1,0.0,0.0,0.0,0.1,0.0,0.0,0.0,0.1
1446040235034360660,370,1446040235031054973,robocape,11.3043738156,19.6128103641,4.18360262948,0.0,10.0,0.0,0.0,0.0,10.0,0.0,0.0,0.0,10.0,0.034088461953,0.0292947719909,0.00985369603329,1.0,0.0,0.0,0.0,1.0,0.0,0.0,0.0,1.0,-0.0946032714844,0.494571533203,10.1908081055,0.1,0.0,0.0,0.0,0.1,0.0,0.0,0.0,0.1
1446040235071944493,371,1446040235068320035,robocape,11.4598467884,19.6244608615,4.22093186698,0.0,10.0,0.0,0.0,0.0,10.0,0.0,0.0,0.0,10.0,0.0872185257001,0.0328900394625,0.0194410759576,1.0,0.0,0.0,0.0,1.0,0.0,0.0,0.0,1.0,-0.298179931641,0.603544921875,10.1740429688,0.1,0.0,0.0,0.0,0.1,0.0,0.0,0.0,0.1
1446040235108032827,372,1446040235104701995,robocape,11.6582215165,19.6351931097,4.27504582218,0.0,10.0,0.0,0.0,0.0,10.0,0.0,0.0,0.0,10.0,0.107192233876,0.034621094171,0.0276968753368,1.0,0.0,0.0,0.0,1.0,0.0,0.0,0.0,1.0,-0.329315185547,1.16757202148,10.208770752,0.1,0.0,0.0,0.0,0.1,0.0,0.0,0.0,0.1
1446040235142814285,373,1446040235139676094,robocape,11.7952888943,19.644894918,4.29358313521,0.0,10.0,0.0,0.0,0.0,10.0,0.0,0.0,0.0,10.0,0.0812264132474,0.0300937203179,0.0105194863058,1.0,0.0,0.0,0.0,1.0,0.0,0.0,0.0,1.0,-0.274229736328,1.46694946289,10.1441052246,0.1,0.0,0.0,0.0,0.1,0.0,0.0,0.0,0.1
1446040235178302243,374,1446040235174958944,robocape,11.8107230781,19.6451231147,4.31362744693,0.0,10.0,0.0,0.0,0.0,10.0,0.0,0.0,0.0,10.0,0.016644756813,0.0242347659197,0.0121173829599,1.0,0.0,0.0,0.0,1.0,0.0,0.0,0.0,1.0,-0.264649658203,1.42623413086,10.1908081055,0.1,0.0,0.0,0.0,0.1,0.0,0.0,0.0,0.1
1446040235212909535,375,1446040235209748983,robocape,11.7068516754,19.6400550177,4.32859872445,0.0,10.0,0.0,0.0,0.0,10.0,0.0,0.0,0.0,10.0,-0.0456732126949,0.0198405501211,0.0101200121423,1.0,0.0,0.0,0.0,1.0,0.0,0.0,0.0,1.0,-0.209564208984,1.46694946289,10.193203125,0.1,0.0,0.0,0.0,0.1,0.0,0.0,0.0,0.1
1446040235247538160,376,1446040235244225025,robocape,11.5534802435,19.6365033904,4.31423478874,0.0,10.0,0.0,0.0,0.0,10.0,0.0,0.0,0.0,10.0,-0.066845343361,0.017177389031,-0.00426105774413,1.0,0.0,0.0,0.0,1.0,0.0,0.0,0.0,1.0,-0.219144287109,1.07296875,10.2111657715,0.1,0.0,0.0,0.0,0.1,0.0,0.0,0.0,0.1
1446040235285882493,377,1446040235282706022,robocape,11.4464123552,19.6330224696,4.30500981898,0.0,10.0,0.0,0.0,0.0,10.0,0.0,0.0,0.0,10.0,-0.0434095257683,0.0181094954125,-0.00173105470855,1.0,0.0,0.0,0.0,1.0,0.0,0.0,0.0,1.0,-0.203576660156,0.657432861328,10.1848205566,0.1,0.0,0.0,0.0,0.1,0.0,0.0,0.0,0.1
1446040235320129410,378,1446040235316967964,robocape,11.4315579576,19.6373164627,4.31481557678,0.0,10.0,0.0,0.0,0.0,10.0,0.0,0.0,0.0,10.0,0.00199737081756,0.0249005561922,0.0067910607797,1.0,0.0,0.0,0.0,1.0,0.0,0.0,0.0,1.0,-0.120948486328,0.644260253906,10.1476977539,0.1,0.0,0.0,0.0,0.1,0.0,0.0,0.0,0.1
1446040235357508202,379,1446040235354114055,robocape,11.5220699651,19.6462655016,4.34130727838,0.0,10.0,0.0,0.0,0.0,10.0,0.0,0.0,0.0,10.0,0.0548611184556,0.0299605622634,0.0145142279409,1.0,0.0,0.0,0.0,1.0,0.0,0.0,0.0,1.0,-0.220341796875,0.833466796875,10.1500927734,0.1,0.0,0.0,0.0,0.1,0.0,0.0,0.0,0.1
1446040235399324952,380,1446040235394961118,robocape,11.6203493902,19.651089941,4.37349332097,0.0,10.0,0.0,0.0,0.0,10.0,0.0,0.0,0.0,10.0,0.0580569117637,0.0284958236638,0.017710021249,1.0,0.0,0.0,0.0,1.0,0.0,0.0,0.0,1.0,-0.226329345703,1.15679443359,10.1680554199,0.1,0.0,0.0,0.0,0.1,0.0,0.0,0.0,0.1
1446040235434321702,381,1446040235431220054,robocape,11.6503630374,19.6522451128,4.3907072576,0.0,10.0,0.0,0.0,0.0,10.0,0.0,0.0,0.0,10.0,0.0246342400832,0.0245010820287,0.0107858024148,1.0,0.0,0.0,0.0,1.0,0.0,0.0,0.0,1.0,-0.226329345703,1.35917358398,10.2027832031,0.1,0.0,0.0,0.0,0.1,0.0,0.0,0.0,0.1
1446040235470449452,382,1446040235467092037,robocape,11.5768719104,19.6496965285,4.40071799259,0.0,10.0,0.0,0.0,0.0,10.0,0.0,0.0,0.0,10.0,-0.0288952978274,0.0209058145571,0.00759000910673,1.0,0.0,0.0,0.0,1.0,0.0,0.0,0.0,1.0,-0.245489501953,1.35917358398,10.1560803223,0.1,0.0,0.0,0.0,0.1,0.0,0.0,0.0,0.1
1446040235504310702,383,1446040235501199007,robocape,11.4935977318,19.6461720223,4.40114980399,0.0,10.0,0.0,0.0,0.0,10.0,0.0,0.0,0.0,10.0,-0.032490565299,0.0193079179031,0.00306263525359,1.0,0.0,0.0,0.0,1.0,0.0,0.0,0.0,1.0,-0.226329345703,0.9580078125,10.1872155762,0.1,0.0,0.0,0.0,0.1,0.0,0.0,0.0,0.1
1446040235539785618,384,1446040235536346912,robocape,11.4584759422,19.6460943785,4.40603218933,0.0,10.0,0.0,0.0,0.0,10.0,0.0,0.0,0.0,10.0,-0.00785632521573,0.0219710789932,0.00492684801665,1.0,0.0,0.0,0.0,1.0,0.0,0.0,0.0,1.0,-0.195194091797,0.817899169922,10.1944006348,0.1,0.0,0.0,0.0,0.1,0.0,0.0,0.0,0.1
1446040235575838535,385,1446040235572444915,robocape,11.4783710985,19.6528845668,4.4190978698,0.0,10.0,0.0,0.0,0.0,10.0,0.0,0.0,0.0,10.0,0.0198405501211,0.0268979270098,0.00825579937925,1.0,0.0,0.0,0.0,1.0,0.0,0.0,0.0,1.0,-0.130528564453,0.847836914063,10.1644628906,0.1,0.0,0.0,0.0,0.1,0.0,0.0,0.0,0.1
1446040235615120077,386,1446040235611843109,robocape,11.5321950542,19.6573559295,4.44120288859,0.0,10.0,0.0,0.0,0.0,10.0,0.0,0.0,0.0,10.0,0.0362189908251,0.0268979270098,0.0129163312869,1.0,0.0,0.0,0.0,1.0,0.0,0.0,0.0,1.0,-0.216749267578,1.02626586914,10.177635498,0.1,0.0,0.0,0.0,0.1,0.0,0.0,0.0,0.1
1446040235654829244,387,1446040235651505947,robocape,11.5564273826,19.6599540137,4.45552428133,0.0,10.0,0.0,0.0,0.0,10.0,0.0,0.0,0.0,10.0,0.0219710789932,0.0249005561922,0.00932106381528,1.0,0.0,0.0,0.0,1.0,0.0,0.0,0.0,1.0,-0.21076171875,1.19271972656,10.1752404785,0.1,0.0,0.0,0.0,0.1,0.0,0.0,0.0,0.1
1446040235693507619,388,1446040235690064907,robocape,11.5202655335,19.659770725,4.45918888838,0.0,10.0,0.0,0.0,0.0,10.0,0.0,0.0,0.0,10.0,-0.00812264132474,0.0218379209386,0.00439421579863,1.0,0.0,0.0,0.0,1.0,0.0,0.0,0.0,1.0,-0.256267089844,1.17355957031,10.1788330078,0.1,0.0,0.0,0.0,0.1,0.0,0.0,0.0,0.1
1446040235729763619,389,1446040235726608991,robocape,11.4626849798,19.6588545115,4.45942639858,0.0,10.0,0.0,0.0,0.0,10.0,0.0,0.0,0.0,10.0,-0.0189084437396,0.0209058145571,0.00279631914458,1.0,0.0,0.0,0.0,1.0,0.0,0.0,0.0,1.0,-0.197589111328,1.01069824219,10.177635498,0.1,0.0,0.0,0.0,0.1,0.0,0.0,0.0,0.1
1446040235771108035,390,1446040235767669916,robocape,11.4266245567,19.657586809,4.46117378682,0.0,10.0,0.0,0.0,0.0,10.0,0.0,0.0,0.0,10.0,-0.00785632521573,0.0210389726116,0.00359526747161,1.0,0.0,0.0,0.0,1.0,0.0,0.0,0.0,1.0,-0.237106933594,0.837059326172,10.1944006348,0.1,0.0,0.0,0.0,0.1,0.0,0.0,0.0,0.1
1446040235807048202,391,1446040235803903102,robocape,11.4396586233,19.6605652984,4.47358675431,0.0,10.0,0.0,0.0,0.0,10.0,0.0,0.0,0.0,10.0,0.0162452826495,0.0247673981377,0.00838895743375,1.0,0.0,0.0,0.0,1.0,0.0,0.0,0.0,1.0,-0.0778381347656,0.896934814453,10.1955981445,0.1,0.0,0.0,0.0,0.1,0.0,0.0,0.0,0.1
1446040235842157660,392,1446040235838881015,robocape,11.474736341,19.6649424064,4.49117243512,0.0,10.0,0.0,0.0,0.0,10.0,0.0,0.0,0.0,10.0,0.0270310850643,0.0262321367373,0.0107858024148,1.0,0.0,0.0,0.0,1.0,0.0,0.0,0.0,1.0,-0.198786621094,1.00950073242,10.2027832031,0.1,0.0,0.0,0.0,0.1,0.0,0.0,0.0,0.1
1446040235876213994,393,1446040235872407913,robocape,11.5013222938,19.6680812014,4.50381805937,0.0,10.0,0.0,0.0,0.0,10.0,0.0,0.0,0.0,10.0,0.0234358175927,0.0250337142467,0.00852211548825,1.0,0.0,0.0,0.0,1.0,0.0,0.0,0.0,1.0,-0.226329345703,1.09691894531,10.1716479492,0.1,0.0,0.0,0.0,0.1,0.0,0.0,0.0,0.1
1446040235910139494,394,1446040235906348943,robocape,11.4861020695,19.6692646137,4.51035067279,0.0,10.0,0.0,0.0,0.0,10.0,0.0,0.0,0.0,10.0,0.00239684498107,0.0230363434292,0.00572579634367,1.0,0.0,0.0,0.0,1.0,0.0,0.0,0.0,1.0,-0.241896972656,1.13763427734,10.2051782227,0.1,0.0,0.0,0.0,0.1,0.0,0.0,0.0,0.1
1446040235945933577,395,1446040235942373991,robocape,11.5508253913,20.0817379904,4.89540793444,0.0,10.0,0.0,0.0,0.0,10.0,0.0,0.0,0.0,10.0,-0.0190416017941,0.279898230567,0.146740176063,1.0,0.0,0.0,0.0,1.0,0.0,0.0,0.0,1.0,-15.1987939453,-3.69192260742,13.351036377,0.1,0.0,0.0,0.0,0.1,0.0,0.0,0.0,0.1
1446040235982231910,396,1446040235979074001,robocape,11.8217460594,20.0743844304,4.99174651565,0.0,10.0,0.0,0.0,0.0,10.0,0.0,0.0,0.0,10.0,0.137818586412,0.0310258266994,0.050733218766,1.0,0.0,0.0,0.0,1.0,0.0,0.0,0.0,1.0,-8.17779418945,0.738863525391,7.36348754883,0.1,0.0,0.0,0.0,0.1,0.0,0.0,0.0,0.1
1446040236015897744,397,1446040236012794017,robocape,11.4991591634,20.3906758245,5.13709899188,0.0,10.0,0.0,0.0,0.0,10.0,0.0,0.0,0.0,10.0,-0.182293376616,0.202400242846,0.0400805744057,1.0,0.0,0.0,0.0,1.0,0.0,0.0,0.0,1.0,-5.39358398438,1.70285888672,12.8899951172,0.1,0.0,0.0,0.0,0.1,0.0,0.0,0.0,0.1
1446040236051619160,398,1446040236048537015,robocape,11.24465133,20.4618099511,5.05128126938,0.0,10.0,0.0,0.0,0.0,10.0,0.0,0.0,0.0,10.0,-0.106792759712,0.050200586548,-0.0455400546404,1.0,0.0,0.0,0.0,1.0,0.0,0.0,0.0,1.0,-7.99697021484,-0.431103515625,9.21603515625,0.1,0.0,0.0,0.0,0.1,0.0,0.0,0.0,0.1
1446040236087952744,399,1446040236083947896,robocape,11.6769553448,20.7557704003,4.08213595601,0.0,10.0,0.0,0.0,0.0,10.0,0.0,0.0,0.0,10.0,0.420513136124,0.0861532612641,-0.493217433883,1.0,0.0,0.0,0.0,1.0,0.0,0.0,0.0,1.0,-9.60642333984,-0.319735107422,11.9283947754,0.1,0.0,0.0,0.0,0.1,0.0,0.0,0.0,0.1
1446040236123861785,400,1446040236120275020,robocape,12.4341437707,20.9991969311,3.3941487752,0.0,10.0,0.0,0.0,0.0,10.0,0.0,0.0,0.0,10.0,0.543817494594,0.0884169481906,-0.353800950817,1.0,0.0,0.0,0.0,1.0,0.0,0.0,0.0,1.0,-7.86284912109,0.644260253906,9.1932824707,0.1,0.0,0.0,0.0,0.1,0.0,0.0,0.0,0.1
1446040236159430827,401,1446040236156086921,robocape,13.5408089344,21.2311169219,2.63055040625,0.0,10.0,0.0,0.0,0.0,10.0,0.0,0.0,0.0,10.0,0.747416159931,0.0736364041407,-0.390153099697,1.0,0.0,0.0,0.0,1.0,0.0,0.0,0.0,1.0,-11.092532959,-0.09580078125,10.3776196289,0.1,0.0,0.0,0.0,0.1,0.0,0.0,0.0,0.1
1446040236194899327,402,1446040236191462993,robocape,15.5701876795,22.5315899509,2.07825390237,0.0,10.0,0.0,0.0,0.0,10.0,0.0,0.0,0.0,10.0,1.22132567591,0.667654485283,-0.43342946741,1.0,0.0,0.0,0.0,1.0,0.0,0.0,0.0,1.0,-4.04399047852,-0.205971679688,7.23056396484,0.1,0.0,0.0,0.0,0.1,0.0,0.0,0.0,0.1
1446040236230679244,403,1446040236227529048,robocape,18.053234155,22.6648968889,1.00921307894,0.0,10.0,0.0,0.0,0.0,10.0,0.0,0.0,0.0,10.0,1.56806924984,-0.0162452826495,-0.520914309219,1.0,0.0,0.0,0.0,1.0,0.0,0.0,0.0,1.0,-9.64234863281,-0.673000488281,9.38248901367,0.1,0.0,0.0,0.0,0.1,0.0,0.0,0.0,0.1
1446040236265988744,404,1446040236262845039,robocape,21.6740102687,22.7284569554,0.255912125418,0.0,10.0,0.0,0.0,0.0,10.0,0.0,0.0,0.0,10.0,2.13718677479,0.000133158054504,-0.367116756267,1.0,0.0,0.0,0.0,1.0,0.0,0.0,0.0,1.0,-8.21731201172,-0.0443078613281,8.36460571289,0.1,0.0,0.0,0.0,0.1,0.0,0.0,0.0,0.1
1446040236299722952,405,1446040236296627998,robocape,25.8570933673,23.0286277934,-0.0824382774078,0.0,10.0,0.0,0.0,0.0,10.0,0.0,0.0,0.0,10.0,2.4020381452,0.203864981446,-0.237553969235,1.0,0.0,0.0,0.0,1.0,0.0,0.0,0.0,1.0,-9.00407592773,0.844244384766,10.4267175293,0.1,0.0,0.0,0.0,0.1,0.0,0.0,0.0,0.1
1446040236337026619,406,1446040236333761930,robocape,30.7309096714,23.0722544869,0.165742305205,0.0,10.0,0.0,0.0,0.0,10.0,0.0,0.0,0.0,10.0,2.71189693803,0.234890808145,0.0591221761998,1.0,0.0,0.0,0.0,1.0,0.0,0.0,0.0,1.0,-8.59931762695,1.28133544922,7.69040771484,0.1,0.0,0.0,0.0,0.1,0.0,0.0,0.0,0.1
1446040236376317202,407,1446040236372569084,robocape,35.7897491883,22.915078664,1.05262431731,0.0,10.0,0.0,0.0,0.0,10.0,0.0,0.0,0.0,10.0,2.75290961881,0.352336212217,0.35979306327,1.0,0.0,0.0,0.0,1.0,0.0,0.0,0.0,1.0,-12.4145837402,2.12078979492,9.66150878906,0.1,0.0,0.0,0.0,0.1,0.0,0.0,0.0,0.1
1446040236414210411,408,1446040236410092115,robocape,40.6992679192,22.3204913809,2.83814042142,0.0,10.0,0.0,0.0,0.0,10.0,0.0,0.0,0.0,10.0,2.55477043371,0.491486379174,0.831172576214,1.0,0.0,0.0,0.0,1.0,0.0,0.0,0.0,1.0,-4.22361694336,2.79498779297,5.84983520508,0.1,0.0,0.0,0.0,0.1,0.0,0.0,0.0,0.1
1446040236449779327,409,1446040236446224927,robocape,43.034867357,21.6945587973,7.11755971526,0.0,10.0,0.0,0.0,0.0,10.0,0.0,0.0,0.0,10.0,0.585895439817,1.26593362417,1.7560884228,1.0,0.0,0.0,0.0,1.0,0.0,0.0,0.0,1.0,0.686173095703,16.0885437012,17.0309838867,0.1,0.0,0.0,0.0,0.1,0.0,0.0,0.0,0.1
1446040236483405244,410,1446040236480050086,robocape,42.5864967008,21.6185133344,11.5476519342,0.0,10.0,0.0,0.0,0.0,10.0,0.0,0.0,0.0,10.0,-1.04169546038,1.46939913145,1.61134561755,1.0,0.0,0.0,0.0,1.0,0.0,0.0,0.0,1.0,-0.748443603516,4.69423828125,9.65192871094,0.1,0.0,0.0,0.0,0.1,0.0,0.0,0.0,0.1
1446040236517197744,411,1446040236513607025,robocape,41.2251129342,21.332001908,15.0377097648,0.0,10.0,0.0,0.0,0.0,10.0,0.0,0.0,0.0,10.0,-1.37392480637,1.03064334186,1.36766637781,1.0,0.0,0.0,0.0,1.0,0.0,0.0,0.0,1.0,-3.2153137207,3.55301147461,13.3462463379,0.1,0.0,0.0,0.0,0.1,0.0,0.0,0.0,0.1
1446040236556935369,412,1446040236553406000,robocape,39.3785169914,20.8405204417,17.3955129544,0.0,10.0,0.0,0.0,0.0,10.0,0.0,0.0,0.0,10.0,-1.42532381541,0.538491172414,1.04196177649,1.0,0.0,0.0,0.0,1.0,0.0,0.0,0.0,1.0,-9.20286254883,3.05724243164,8.28676757813,0.1,0.0,0.0,0.0,0.1,0.0,0.0,0.0,0.1
1446040236595487911,413,1446040236591365098,robocape,37.4214404172,20.4752966327,19.4432241373,0.0,10.0,0.0,0.0,0.0,10.0,0.0,0.0,0.0,10.0,-1.41001063914,0.468050561581,0.903077925646,1.0,0.0,0.0,0.0,1.0,0.0,0.0,0.0,1.0,-6.87490356445,3.20094360352,10.3033740234,0.1,0.0,0.0,0.0,0.1,0.0,0.0,0.0,0.1
1446040236631858494,414,1446040236627645015,robocape,34.3734811391,19.6367110201,21.5007477042,0.0,10.0,0.0,0.0,0.0,10.0,0.0,0.0,0.0,10.0,-2.01681189352,0.193079179031,1.05421231751,1.0,0.0,0.0,0.0,1.0,0.0,0.0,0.0,1.0,3.76736572266,5.73367675781,11.076965332,0.1,0.0,0.0,0.0,0.1,0.0,0.0,0.0,0.1
1446040236669706911,415,1446040236666524887,robocape,29.9673614634,20.4768110211,24.8136280091,0.0,10.0,0.0,0.0,0.0,10.0,0.0,0.0,0.0,10.0,-2.93373825683,1.20894197684,1.12665029916,1.0,0.0,0.0,0.0,1.0,0.0,0.0,0.0,1.0,11.4697485352,6.92280395508,14.5114233398,0.1,0.0,0.0,0.0,0.1,0.0,0.0,0.0,0.1
1446040236704808702,416,1446040236701385021,robocape,24.3251506097,19.9306754675,26.7285996816,0.0,10.0,0.0,0.0,0.0,10.0,0.0,0.0,0.0,10.0,-3.35864560875,0.0981374861694,0.909602670317,1.0,0.0,0.0,0.0,1.0,0.0,0.0,0.0,1.0,-0.179626464844,2.23215820313,6.92759399414,0.1,0.0,0.0,0.0,0.1,0.0,0.0,0.0,0.1
1446040236740421119,417,1446040236737070083,robocape,18.228875139,18.7335540312,27.6710475488,0.0,10.0,0.0,0.0,0.0,10.0,0.0,0.0,0.0,10.0,-3.39819355094,-0.489489008357,0.591754394216,1.0,0.0,0.0,0.0,1.0,0.0,0.0,0.0,1.0,-6.10969482422,-1.29331054688,9.46272216797,0.1,0.0,0.0,0.0,0.1,0.0,0.0,0.0,0.1
1446040236785747786,418,1446040236782666921,robocape,12.7833844056,19.2707992891,27.3163830512,0.0,10.0,0.0,0.0,0.0,10.0,0.0,0.0,0.0,10.0,-2.80404231174,0.192280230704,-0.27790085975,1.0,0.0,0.0,0.0,1.0,0.0,0.0,0.0,1.0,9.0855065918,0.729283447266,7.94427978516,0.1,0.0,0.0,0.0,0.1,0.0,0.0,0.0,0.1
1446040236822520369,419,1446040236819084882,robocape,9.05121701206,19.9490497931,25.7808542618,0.0,10.0,0.0,0.0,0.0,10.0,0.0,0.0,0.0,10.0,-1.68831097306,0.188551805178,-0.828908889287,1.0,0.0,0.0,0.0,1.0,0.0,0.0,0.0,1.0,-4.29067749023,-3.12550048828,10.653046875,0.1,0.0,0.0,0.0,0.1,0.0,0.0,0.0,0.1
1446040236858568411,420,1446040236855333089,robocape,7.35468665029,20.7290895959,23.6440002815,0.0,10.0,0.0,0.0,0.0,10.0,0.0,0.0,0.0,10.0,-0.50054112688,0.247008191105,-1.104279746,1.0,0.0,0.0,0.0,1.0,0.0,0.0,0.0,1.0,-2.89198608398,-3.42368041992,12.0673059082,0.1,0.0,0.0,0.0,0.1,0.0,0.0,0.0,0.1
1446040236895381786,421,1446040236892057895,robocape,8.19647403442,20.7022790253,21.3373660961,0.0,10.0,0.0,0.0,0.0,10.0,0.0,0.0,0.0,10.0,0.865261038167,-0.180296005798,-1.13011240858,1.0,0.0,0.0,0.0,1.0,0.0,0.0,0.0,1.0,-7.35989501953,-1.61065063477,9.65671875,0.1,0.0,0.0,0.0,0.1,0.0,0.0,0.0,0.1
1446040236929995369,422,1446040236926670074,robocape,10.5339914,21.4801077817,19.4710846216,0.0,10.0,0.0,0.0,0.0,10.0,0.0,0.0,0.0,10.0,1.58178452945,0.271908747297,-0.95168061554,1.0,0.0,0.0,0.0,1.0,0.0,0.0,0.0,1.0,-3.61288696289,-0.928070068359,10.6350842285,0.1,0.0,0.0,0.0,0.1,0.0,0.0,0.0,0.1
1446040236966045202,423,1446040236962785959,robocape,14.404504385,22.2318241169,18.038923161,0.0,10.0,0.0,0.0,0.0,10.0,0.0,0.0,0.0,10.0,2.32840174106,0.280031388622,-0.734233512535,1.0,0.0,0.0,0.0,1.0,0.0,0.0,0.0,1.0,-11.3152697754,-1.3831237793,11.2158764648,0.1,0.0,0.0,0.0,0.1,0.0,0.0,0.0,0.1
1446040237000922202,424,1446040236997848987,robocape,19.0213124557,22.7072323605,17.2743908921,0.0,10.0,0.0,0.0,0.0,10.0,0.0,0.0,0.0,10.0,2.62321367373,0.213319203315,-0.379234139227,1.0,0.0,0.0,0.0,1.0,0.0,0.0,0.0,1.0,-7.70118530273,-0.911304931641,6.10131225586,0.1,0.0,0.0,0.0,0.1,0.0,0.0,0.0,0.1
1446040237035212286,425,1446040237032022953,robocape,23.4453064855,22.4096023448,16.889300357,0.0,10.0,0.0,0.0,0.0,10.0,0.0,0.0,0.0,10.0,2.47114717548,-0.117179087963,-0.0672448175245,1.0,0.0,0.0,0.0,1.0,0.0,0.0,0.0,1.0,-4.30145507813,1.47173950195,7.61256958008,0.1,0.0,0.0,0.0,0.1,0.0,0.0,0.0,0.1
1446040237070854869,426,1446040237066678047,robocape,27.3953712001,22.0920084643,17.296871382,0.0,10.0,0.0,0.0,0.0,10.0,0.0,0.0,0.0,10.0,2.10229936451,0.0575242795457,0.31012510894,1.0,0.0,0.0,0.0,1.0,0.0,0.0,0.0,1.0,1.20948486328,3.77694580078,12.5570874023,0.1,0.0,0.0,0.0,0.1,0.0,0.0,0.0,0.1
1446040237107036119,427,1446040237103720903,robocape,30.3764529006,22.0036003941,18.1595287693,0.0,10.0,0.0,0.0,0.0,10.0,0.0,0.0,0.0,10.0,1.52519235629,0.294012984345,0.451538962823,1.0,0.0,0.0,0.0,1.0,0.0,0.0,0.0,1.0,0.256267089844,3.15903076172,10.2830163574,0.1,0.0,0.0,0.0,0.1,0.0,0.0,0.0,0.1
1446040237143047744,428,1446040237139851093,robocape,32.7512454583,22.0190893293,19.1509542455,0.0,10.0,0.0,0.0,0.0,10.0,0.0,0.0,0.0,10.0,1.19256353614,0.393615209114,0.469248984072,1.0,0.0,0.0,0.0,1.0,0.0,0.0,0.0,1.0,0.755628662109,2.89318359375,9.99920654297,0.1,0.0,0.0,0.0,0.1,0.0,0.0,0.0,0.1
1446040237180403286,429,1446040237176549911,robocape,34.5408058417,21.8308896955,20.2320609975,0.0,10.0,0.0,0.0,0.0,10.0,0.0,0.0,0.0,10.0,0.864062615676,0.334359874859,0.552472768137,1.0,0.0,0.0,0.0,1.0,0.0,0.0,0.0,1.0,-2.61536132813,2.39142700195,11.8553466797,0.1,0.0,0.0,0.0,0.1,0.0,0.0,0.0,0.1
1446040237219187203,430,1446040237214765071,robocape,35.7222073313,21.749474203,21.498879633,0.0,10.0,0.0,0.0,0.0,10.0,0.0,0.0,0.0,10.0,0.504136394352,0.437823683209,0.587626494526,1.0,0.0,0.0,0.0,1.0,0.0,0.0,0.0,1.0,-0.995130615234,2.29323120117,10.5943688965,0.1,0.0,0.0,0.0,0.1,0.0,0.0,0.0,0.1
1446040237257368703,431,1446040237252928018,robocape,36.3729199506,21.3708524181,22.5437401666,0.0,10.0,0.0,0.0,0.0,10.0,0.0,0.0,0.0,10.0,0.247141349159,0.234491333981,0.579104379038,1.0,0.0,0.0,0.0,1.0,0.0,0.0,0.0,1.0,-2.26568847656,2.39621704102,9.78964233398,0.1,0.0,0.0,0.0,0.1,0.0,0.0,0.0,0.1
1446040237293411828,432,1446040237290182113,robocape,36.5893476242,21.1259247902,23.7392274719,0.0,10.0,0.0,0.0,0.0,10.0,0.0,0.0,0.0,10.0,-0.0154463343225,0.33143039766,0.595083345578,1.0,0.0,0.0,0.0,1.0,0.0,0.0,0.0,1.0,-3.4835559082,3.51588867188,13.3390612793,0.1,0.0,0.0,0.0,0.1,0.0,0.0,0.0,0.1
1446040237327747244,433,1446040237324337005,robocape,36.598949993,20.7887254682,24.7702983358,0.0,10.0,0.0,0.0,0.0,10.0,0.0,0.0,0.0,10.0,-0.101200121423,0.236755020908,0.557399616154,1.0,0.0,0.0,0.0,1.0,0.0,0.0,0.0,1.0,-4.4870690918,1.22385498047,8.73942626953,0.1,0.0,0.0,0.0,0.1,0.0,0.0,0.0,0.1
1446040237362538869,434,1446040237359469890,robocape,36.3079643674,20.2917552493,25.5986446106,0.0,10.0,0.0,0.0,0.0,10.0,0.0,0.0,0.0,10.0,-0.23622238869,0.0934769542618,0.521313783383,1.0,0.0,0.0,0.0,1.0,0.0,0.0,0.0,1.0,-1.01908081055,2.8009753418,11.3595776367,0.1,0.0,0.0,0.0,0.1,0.0,0.0,0.0,0.1
1446040237397413953,435,1446040237394325971,robocape,35.7965417807,19.7488887745,26.3250258126,0.0,10.0,0.0,0.0,0.0,10.0,0.0,0.0,0.0,10.0,-0.341417251748,0.0315584589174,0.491752695283,1.0,0.0,0.0,0.0,1.0,0.0,0.0,0.0,1.0,-6.57552612305,2.13156738281,9.35973632813,0.1,0.0,0.0,0.0,0.1,0.0,0.0,0.0,0.1
1446040237433324578,436,1446040237429771900,robocape,35.2354488762,19.2184089234,27.1911088702,0.0,10.0,0.0,0.0,0.0,10.0,0.0,0.0,0.0,10.0,-0.386557832225,0.0755006169037,0.54901065872,1.0,0.0,0.0,0.0,1.0,0.0,0.0,0.0,1.0,-4.89422241211,3.69072509766,13.166619873,0.1,0.0,0.0,0.0,0.1,0.0,0.0,0.0,0.1
1446040237466087453,437,1446040237461132049,robocape,34.40743381,18.8052828229,27.8492345225,0.0,10.0,0.0,0.0,0.0,10.0,0.0,0.0,0.0,10.0,-0.501073759098,0.04966795433,0.423575771377,1.0,0.0,0.0,0.0,1.0,0.0,0.0,0.0,1.0,-5.83905761719,1.24660766602,7.58143432617,0.1,0.0,0.0,0.0,0.1,0.0,0.0,0.0,0.1
1446040237497347828,438,1446040237494301080,robocape,33.4604091757,17.508592643,28.0965050448,0.0,10.0,0.0,0.0,0.0,10.0,0.0,0.0,0.0,10.0,-0.517185883693,-0.477504783451,0.496146911082,1.0,0.0,0.0,0.0,1.0,0.0,0.0,0.0,1.0,-8.81127685547,2.3794519043,9.94052856445,0.1,0.0,0.0,0.0,0.1,0.0,0.0,0.0,0.1
1446040237530998119,439,1446040237527421951,robocape,32.1133958687,16.9860771128,28.4750193939,0.0,10.0,0.0,0.0,0.0,10.0,0.0,0.0,0.0,10.0,-0.746617211604,-0.111586449674,0.321976175791,1.0,0.0,0.0,0.0,1.0,0.0,0.0,0.0,1.0,-7.69040771484,3.04766235352,7.89278686523,0.1,0.0,0.0,0.0,0.1,0.0,0.0,0.0,0.1
1446040237565646411,440,1446040237562553882,robocape,30.896600516,16.9462406795,29.1068432294,0.0,10.0,0.0,0.0,0.0,10.0,0.0,0.0,0.0,10.0,-0.700810840854,0.178698109144,0.310524583103,1.0,0.0,0.0,0.0,1.0,0.0,0.0,0.0,1.0,-9.22681274414,1.46694946289,10.898536377,0.1,0.0,0.0,0.0,0.1,0.0,0.0,0.0,0.1
1446040237603376994,441,1446040237600207090,robocape,29.7970512435,16.8064290467,29.5436371084,0.0,10.0,0.0,0.0,0.0,10.0,0.0,0.0,0.0,10.0,-0.611728102391,0.0770985135578,0.255663464648,1.0,0.0,0.0,0.0,1.0,0.0,0.0,0.0,1.0,-7.45928833008,2.57823852539,12.3020178223,0.1,0.0,0.0,0.0,0.1,0.0,0.0,0.0,0.1
1446040237638037828,442,1446040237634907960,robocape,28.6994668818,17.3532281872,30.328631364,0.0,10.0,0.0,0.0,0.0,10.0,0.0,0.0,0.0,10.0,-0.65100972847,0.488290585866,0.249937668304,1.0,0.0,0.0,0.0,1.0,0.0,0.0,0.0,1.0,-1.02267333984,0.40236328125,8.97294067383,0.1,0.0,0.0,0.0,0.1,0.0,0.0,0.0,0.1
1446040237673965203,443,1446040237670588016,robocape,27.5737452499,17.0588052667,30.7207767301,0.0,10.0,0.0,0.0,0.0,10.0,0.0,0.0,0.0,10.0,-0.623446011188,-0.0143810698864,0.276702437259,1.0,0.0,0.0,0.0,1.0,0.0,0.0,0.0,1.0,-3.42248291016,-0.142503662109,9.58127563477,0.1,0.0,0.0,0.0,0.1,0.0,0.0,0.0,0.1
1446040237707843744,444,1446040237704329013,robocape,26.4693264802,16.6688315746,30.9741912831,0.0,10.0,0.0,0.0,0.0,10.0,0.0,0.0,0.0,10.0,-0.594151239197,-0.0990695925509,0.234091859818,1.0,0.0,0.0,0.0,1.0,0.0,0.0,0.0,1.0,1.31606323242,1.9124230957,8.84121459961,0.1,0.0,0.0,0.0,0.1,0.0,0.0,0.0,0.1
1446040237744680036,445,1446040237741415977,robocape,25.1970920285,16.6735201216,31.4304147101,0.0,10.0,0.0,0.0,0.0,10.0,0.0,0.0,0.0,10.0,-0.708267691907,0.132891738395,0.240616604489,1.0,0.0,0.0,0.0,1.0,0.0,0.0,0.0,1.0,1.46814697266,1.48371459961,11.5092663574,0.1,0.0,0.0,0.0,0.1,0.0,0.0,0.0,0.1
1446040237788255786,446,1446040237784706115,robocape,23.6184606945,17.3834817977,31.6650154906,0.0,10.0,0.0,0.0,0.0,10.0,0.0,0.0,0.0,10.0,-0.841292588356,0.414521023671,-0.0151800182135,1.0,0.0,0.0,0.0,1.0,0.0,0.0,0.0,1.0,-10.560838623,1.83697998047,9.48547485352,0.1,0.0,0.0,0.0,0.1,0.0,0.0,0.0,0.1
1446040237824363911,447,1446040237821063995,robocape,22.0861519551,16.9172661866,31.6037376052,0.0,10.0,0.0,0.0,0.0,10.0,0.0,0.0,0.0,10.0,-0.785499363519,-0.22676816682,0.0788295682663,1.0,0.0,0.0,0.0,1.0,0.0,0.0,0.0,1.0,-0.365240478516,1.20708984375,8.37059326172,0.1,0.0,0.0,0.0,0.1,0.0,0.0,0.0,0.1
1446040237858848453,448,1446040237855690002,robocape,20.5795017696,16.0547526963,31.319268694,0.0,10.0,0.0,0.0,0.0,10.0,0.0,0.0,0.0,10.0,-0.745818263277,-0.471512670999,0.032756881408,1.0,0.0,0.0,0.0,1.0,0.0,0.0,0.0,1.0,-17.897980957,3.00934204102,12.6888134766,0.1,0.0,0.0,0.0,0.1,0.0,0.0,0.0,0.1
1446040237893669120,449,1446040237890587091,robocape,19.2981293041,16.2731467078,31.3063437555,0.0,10.0,0.0,0.0,0.0,10.0,0.0,0.0,0.0,10.0,-0.654205521778,0.127299100106,-0.0162452826495,1.0,0.0,0.0,0.0,1.0,0.0,0.0,0.0,1.0,-0.047900390625,0.506546630859,6.39230712891,0.1,0.0,0.0,0.0,0.1,0.0,0.0,0.0,0.1
1446040237930480953,450,1446040237927225112,robocape,18.4090576916,15.0909078475,30.86585764,0.0,10.0,0.0,0.0,0.0,10.0,0.0,0.0,0.0,10.0,-0.400938902111,-0.654338679832,-0.00545948023466,1.0,0.0,0.0,0.0,1.0,0.0,0.0,0.0,1.0,-4.48108154297,0.473016357422,10.6458618164,0.1,0.0,0.0,0.0,0.1,0.0,0.0,0.0,0.1
1446040237966714745,451,1446040237963270902,robocape,17.6057336794,14.4567496609,30.6636025946,0.0,10.0,0.0,0.0,0.0,10.0,0.0,0.0,0.0,10.0,-0.383894671135,-0.333427768478,0.0260989786828,1.0,0.0,0.0,0.0,1.0,0.0,0.0,0.0,1.0,-10.0734521484,0.677790527344,5.79235473633,0.1,0.0,0.0,0.0,0.1,0.0,0.0,0.0,0.1
1446040238001863745,452,1446040237998548030,robocape,16.8299640354,14.4051831242,30.555788796,0.0,10.0,0.0,0.0,0.0,10.0,0.0,0.0,0.0,10.0,-0.378302032846,-0.0214384467751,-0.0133158054504,1.0,0.0,0.0,0.0,1.0,0.0,0.0,0.0,1.0,-3.18537597656,1.48491210938,12.7822192383,0.1,0.0,0.0,0.0,0.1,0.0,0.0,0.0,0.1
1446040238036561953,453,1446040238033421039,robocape,16.015155822,14.1101979896,30.374471598,0.0,10.0,0.0,0.0,0.0,10.0,0.0,0.0,0.0,10.0,-0.392683102732,-0.157925452642,-0.0194410759576,1.0,0.0,0.0,0.0,1.0,0.0,0.0,0.0,1.0,-8.87354736328,0.0251477050781,10.0147741699,0.1,0.0,0.0,0.0,0.1,0.0,0.0,0.0,0.1
1446040238070105245,454,1446040238066947937,robocape,15.194766993,14.4457848409,30.245723225,0.0,10.0,0.0,0.0,0.0,10.0,0.0,0.0,0.0,10.0,-0.399474163512,0.173771261128,-0.0762995652308,1.0,0.0,0.0,0.0,1.0,0.0,0.0,0.0,1.0,-2.45968505859,-0.274229736328,12.2277722168,0.1,0.0,0.0,0.0,0.1,0.0,0.0,0.0,0.1
1446040238100823286,455,1446040238097594022,robocape,14.4014460044,14.4834894797,29.9883508502,0.0,10.0,0.0,0.0,0.0,10.0,0.0,0.0,0.0,10.0,-0.371777288175,0.0031957933081,-0.104262756677,1.0,0.0,0.0,0.0,1.0,0.0,0.0,0.0,1.0,-0.338895263672,0.332907714844,8.29634765625,0.1,0.0,0.0,0.0,0.1,0.0,0.0,0.0,0.1
1446040238131442495,456,1446040238128388881,robocape,14.6546236957,14.79070293,29.2669210687,0.0,10.0,0.0,0.0,0.0,10.0,0.0,0.0,0.0,10.0,0.238619233671,0.0818922035199,-0.367116756267,1.0,0.0,0.0,0.0,1.0,0.0,0.0,0.0,1.0,3.13029052734,-1.25618774414,12.1786743164,0.1,0.0,0.0,0.0,0.1,0.0,0.0,0.0,0.1
1446040238166662911,457,1446040238163584947,robocape,16.6727871202,15.8275855449,28.2345301179,0.0,10.0,0.0,0.0,0.0,10.0,0.0,0.0,0.0,10.0,1.22172515007,0.41478733978,-0.603738619121,1.0,0.0,0.0,0.0,1.0,0.0,0.0,0.0,1.0,11.3871203613,-7.38504272461,11.7284106445,0.1,0.0,0.0,0.0,0.1,0.0,0.0,0.0,0.1
1446040238201892745,458,1446040238198805093,robocape,20.7493707026,16.6985858419,26.9865526069,0.0,10.0,0.0,0.0,0.0,10.0,0.0,0.0,0.0,10.0,2.36435441577,0.285490868856,-0.674578704117,1.0,0.0,0.0,0.0,1.0,0.0,0.0,0.0,1.0,3.87993164063,-1.58909545898,8.99569335938,0.1,0.0,0.0,0.0,0.1,0.0,0.0,0.0,0.1
1446040238237512453,459,1446040238234411954,robocape,26.3411521451,17.6024769756,26.1177466274,0.0,10.0,0.0,0.0,0.0,10.0,0.0,0.0,0.0,10.0,3.17595275797,0.369513601248,-0.474841622361,1.0,0.0,0.0,0.0,1.0,0.0,0.0,0.0,1.0,4.49425415039,-0.482596435547,7.40180786133,0.1,0.0,0.0,0.0,0.1,0.0,0.0,0.0,0.1
1446040238274742828,460,1446040238270932912,robocape,32.9356798485,18.6498292903,25.9381076546,0.0,10.0,0.0,0.0,0.0,10.0,0.0,0.0,0.0,10.0,3.71950393646,0.629970755858,-0.176833896381,1.0,0.0,0.0,0.0,1.0,0.0,0.0,0.0,1.0,2.26568847656,0.186811523438,9.00048339844,0.1,0.0,0.0,0.0,0.1,0.0,0.0,0.0,0.1
1446040238313437161,461,1446040238310102939,robocape,39.9067548253,19.2985978929,26.4160803695,0.0,10.0,0.0,0.0,0.0,10.0,0.0,0.0,0.0,10.0,3.96691160173,0.711064011051,0.213718677479,1.0,0.0,0.0,0.0,1.0,0.0,0.0,0.0,1.0,4.49066162109,2.04055664063,5.8977355957,0.1,0.0,0.0,0.0,0.1,0.0,0.0,0.0,0.1
1446040238352799495,462,1446040238349674940,robocape,46.9482136009,20.4311896681,28.4655510359,0.0,10.0,0.0,0.0,0.0,10.0,0.0,0.0,0.0,10.0,3.9631831762,1.58724400969,0.625842856169,1.0,0.0,0.0,0.0,1.0,0.0,0.0,0.0,1.0,19.5373718262,7.41498046875,13.0277087402,0.1,0.0,0.0,0.0,0.1,0.0,0.0,0.0,0.1
1446040238389488870,463,1446040238385966062,robocape,48.2001506939,19.5155818211,32.1957227803,0.0,10.0,0.0,0.0,0.0,10.0,0.0,0.0,0.0,10.0,0.327701972134,1.30122050861,1.76967054436,1.0,0.0,0.0,0.0,1.0,0.0,0.0,0.0,1.0,6.50846557617,19.6194012451,13.3606164551,0.1,0.0,0.0,0.0,0.1,0.0,0.0,0.0,0.1
1446040238424540661,464,1446040238421089887,robocape,44.8271464469,18.6870959776,34.6782894915,0.0,10.0,0.0,0.0,0.0,10.0,0.0,0.0,0.0,10.0,-2.22640267131,0.563924360824,1.13916715628,1.0,0.0,0.0,0.0,1.0,0.0,0.0,0.0,1.0,-0.871787109375,6.19352050781,8.78253662109,0.1,0.0,0.0,0.0,0.1,0.0,0.0,0.0,0.1
1446040238463772912,465,1446040238460519075,robocape,41.6917600258,18.185735549,35.0251483299,0.0,10.0,0.0,0.0,0.0,10.0,0.0,0.0,0.0,10.0,-1.77086896685,-0.135821215594,0.251935039121,1.0,0.0,0.0,0.0,1.0,0.0,0.0,0.0,1.0,-8.25084228516,-3.24644897461,4.20325927734,0.1,0.0,0.0,0.0,0.1,0.0,0.0,0.0,0.1
1446040238502279370,466,1446040238498533964,robocape,41.2166532799,17.5727237154,33.8164677398,0.0,10.0,0.0,0.0,0.0,10.0,0.0,0.0,0.0,10.0,-0.0363521488796,-0.624511275624,-0.225170270166,1.0,0.0,0.0,0.0,1.0,0.0,0.0,0.0,1.0,-4.80560668945,-2.17707275391,5.18042724609,0.1,0.0,0.0,0.0,0.1,0.0,0.0,0.0,0.1
1446040238538334287,467,1446040238535233020,robocape,43.3169977179,17.4959900916,32.4527809754,0.0,10.0,0.0,0.0,0.0,10.0,0.0,0.0,0.0,10.0,1.48191598857,-0.364054121014,-0.364054121014,1.0,0.0,0.0,0.0,1.0,0.0,0.0,0.0,1.0,1.83099243164,-1.762734375,9.25794799805,0.1,0.0,0.0,0.0,0.1,0.0,0.0,0.0,0.1
1446040238568541328,468,1446040238565433979,robocape,47.4172085698,17.9168687561,33.1383419001,0.0,10.0,0.0,0.0,0.0,10.0,0.0,0.0,0.0,10.0,2.47700612988,0.711463485215,0.345678309492,1.0,0.0,0.0,0.0,1.0,0.0,0.0,0.0,1.0,2.97341674805,9.76209960938,13.9354211426,0.1,0.0,0.0,0.0,0.1,0.0,0.0,0.0,0.1
1446040238603109745,469,1446040238599740982,robocape,47.765932782,17.3955922862,36.8198924936,0.0,10.0,0.0,0.0,0.0,10.0,0.0,0.0,0.0,10.0,-0.083490100174,1.42758750234,1.6498282953,1.0,0.0,0.0,0.0,1.0,0.0,0.0,0.0,1.0,11.80265625,18.8571862793,14.2132434082,0.1,0.0,0.0,0.0,0.1,0.0,0.0,0.0,0.1
1446040238634882703,470,1446040238631578922,robocape,42.8887740285,15.9969925273,40.2124174211,0.0,10.0,0.0,0.0,0.0,10.0,0.0,0.0,0.0,10.0,-3.12215690395,0.645550248235,1.67166621624,1.0,0.0,0.0,0.0,1.0,0.0,0.0,0.0,1.0,-8.82804199219,7.87961425781,10.479407959,0.1,0.0,0.0,0.0,0.1,0.0,0.0,0.0,0.1
1446040238671998787,471,1446040238668843030,robocape,36.1570595148,14.5814347163,42.5984080762,0.0,10.0,0.0,0.0,0.0,10.0,0.0,0.0,0.0,10.0,-3.9839558327,0.0659132369795,1.25328360899,1.0,0.0,0.0,0.0,1.0,0.0,0.0,0.0,1.0,-0.678988037109,3.87633911133,7.82931884766,0.1,0.0,0.0,0.0,0.1,0.0,0.0,0.0,0.1
1446040238706106078,472,1446040238703007936,robocape,28.7521820778,13.6120229508,43.6570713886,0.0,10.0,0.0,0.0,0.0,10.0,0.0,0.0,0.0,10.0,-4.13149495709,-0.277501385586,0.531833269689,1.0,0.0,0.0,0.0,1.0,0.0,0.0,0.0,1.0,1.14481933594,1.31845825195,4.7169909668,0.1,0.0,0.0,0.0,0.1,0.0,0.0,0.0,0.1
1446040238740938787,473,1446040238737523078,robocape,22.495839074,11.9754883139,43.3056139508,0.0,10.0,0.0,0.0,0.0,10.0,0.0,0.0,0.0,10.0,-3.31084186719,-0.949550086668,0.032756881408,1.0,0.0,0.0,0.0,1.0,0.0,0.0,0.0,1.0,-9.15017211914,-2.15671508789,4.25115966797,0.1,0.0,0.0,0.0,0.1,0.0,0.0,0.0,0.1
1446040238778407453,474,1446040238775346040,robocape,18.5538420797,12.9742201024,42.6927231758,0.0,10.0,0.0,0.0,0.0,10.0,0.0,0.0,0.0,10.0,-2.01374925826,0.351936738054,-0.53156695358,1.0,0.0,0.0,0.0,1.0,0.0,0.0,0.0,1.0,19.6194012451,-3.01053955078,14.3377844238,0.1,0.0,0.0,0.0,0.1,0.0,0.0,0.0,0.1
1446040238813114870,475,1446040238810056924,robocape,17.0077090015,13.2671985887,41.3591550435,0.0,10.0,0.0,0.0,0.0,10.0,0.0,0.0,0.0,10.0,-0.66046395034,-0.0769653555033,-0.725844555101,1.0,0.0,0.0,0.0,1.0,0.0,0.0,0.0,1.0,1.23343505859,-0.844244384766,11.8745068359,0.1,0.0,0.0,0.0,0.1,0.0,0.0,0.0,0.1
1446040238847370287,476,1446040238844194889,robocape,17.1679083158,13.796991417,40.5217589163,0.0,10.0,0.0,0.0,0.0,10.0,0.0,0.0,0.0,10.0,0.19867181732,0.159523349296,-0.449541592005,1.0,0.0,0.0,0.0,1.0,0.0,0.0,0.0,1.0,4.72537353516,0.712518310547,12.1894519043,0.1,0.0,0.0,0.0,0.1,0.0,0.0,0.0,0.1
1446040238876826745,477,1446040238873483896,robocape,18.0267763531,14.1073240658,39.8581251832,0.0,10.0,0.0,0.0,0.0,10.0,0.0,0.0,0.0,10.0,0.553671190627,0.084022732392,-0.310258266994,1.0,0.0,0.0,0.0,1.0,0.0,0.0,0.0,1.0,1.38072875977,1.37114868164,9.71659423828,0.1,0.0,0.0,0.0,0.1,0.0,0.0,0.0,0.1
1446040238908404120,478,1446040238905298948,robocape,19.4664574474,13.7244893858,39.1274613858,0.0,10.0,0.0,0.0,0.0,10.0,0.0,0.0,0.0,10.0,0.868723147584,-0.277767701695,-0.226901324875,1.0,0.0,0.0,0.0,1.0,0.0,0.0,0.0,1.0,-4.00686767578,2.22856567383,9.02084106445,0.1,0.0,0.0,0.0,0.1,0.0,0.0,0.0,0.1
1446040238943950078,479,1446040238940573930,robocape,21.3810941045,14.1143399695,38.8453808266,0.0,10.0,0.0,0.0,0.0,10.0,0.0,0.0,0.0,10.0,1.08550446032,0.200802346192,-0.0982706442239,1.0,0.0,0.0,0.0,1.0,0.0,0.0,0.0,1.0,-5.42232421875,1.17475708008,11.6733251953,0.1,0.0,0.0,0.0,0.1,0.0,0.0,0.0,0.1
1446040238975019578,480,1446040238971770048,robocape,23.3899993101,14.6388936422,38.5950516337,0.0,10.0,0.0,0.0,0.0,10.0,0.0,0.0,0.0,10.0,1.14329505597,0.275370856714,-0.104928546949,1.0,0.0,0.0,0.0,1.0,0.0,0.0,0.0,1.0,-1.92799072266,0.949625244141,7.20182373047,0.1,0.0,0.0,0.0,0.1,0.0,0.0,0.0,0.1
1446040239005802703,481,1446040239002646923,robocape,25.5227405052,14.6952058654,38.5145183781,0.0,10.0,0.0,0.0,0.0,10.0,0.0,0.0,0.0,10.0,1.20148512579,0.0921453737167,0.0825579937925,1.0,0.0,0.0,0.0,1.0,0.0,0.0,0.0,1.0,16.1112963867,2.55428833008,9.52978271484,0.1,0.0,0.0,0.0,0.1,0.0,0.0,0.0,0.1
1446040239038007703,482,1446040239034939050,robocape,28.1063065683,15.0952725169,38.5577172262,0.0,10.0,0.0,0.0,0.0,10.0,0.0,0.0,0.0,10.0,1.45049068771,0.303866680378,0.0864195773731,1.0,0.0,0.0,0.0,1.0,0.0,0.0,0.0,1.0,6.82580566406,2.78421020508,11.9750976562,0.1,0.0,0.0,0.0,0.1,0.0,0.0,0.0,0.1
1446040239068659412,483,1446040239065584897,robocape,30.6589622588,15.3033292165,38.724920001,0.0,10.0,0.0,0.0,0.0,10.0,0.0,0.0,0.0,10.0,1.43983804335,0.260323996555,0.196807604557,1.0,0.0,0.0,0.0,1.0,0.0,0.0,0.0,1.0,3.76257568359,2.47046264648,12.3942260742,0.1,0.0,0.0,0.0,0.1,0.0,0.0,0.0,0.1
1446040239100473203,484,1446040239097018003,robocape,33.1796266229,14.9397362127,38.6580207026,0.0,10.0,0.0,0.0,0.0,10.0,0.0,0.0,0.0,10.0,1.46527123176,-0.0552605926191,0.244345030015,1.0,0.0,0.0,0.0,1.0,0.0,0.0,0.0,1.0,1.16397949219,2.45489501953,8.14186889648,0.1,0.0,0.0,0.0,0.1,0.0,0.0,0.0,0.1
1446040239133325079,485,1446040239130220890,robocape,35.7401273464,14.8676821339,39.0494958558,0.0,10.0,0.0,0.0,0.0,10.0,0.0,0.0,0.0,10.0,1.4721954506,0.24035028838,0.396411528258,1.0,0.0,0.0,0.0,1.0,0.0,0.0,0.0,1.0,2.86444335938,2.31598388672,8.85917724609,0.1,0.0,0.0,0.0,0.1,0.0,0.0,0.0,0.1
1446040239164409370,486,1446040239161326885,robocape,37.9631677707,14.5356767401,39.3610596143,0.0,10.0,0.0,0.0,0.0,10.0,0.0,0.0,0.0,10.0,1.31626736877,0.115581191309,0.438089999318,1.0,0.0,0.0,0.0,1.0,0.0,0.0,0.0,1.0,-0.368833007813,2.84049316406,10.8530310059,0.1,0.0,0.0,0.0,0.1,0.0,0.0,0.0,0.1
1446040239199303204,487,1446040239196131944,robocape,40.3354146984,14.8322083946,40.225879683,0.0,10.0,0.0,0.0,0.0,10.0,0.0,0.0,0.0,10.0,1.38364534435,0.604670725502,0.498277439954,1.0,0.0,0.0,0.0,1.0,0.0,0.0,0.0,1.0,3.68354003906,3.51349365234,9.16454223633,0.1,0.0,0.0,0.0,0.1,0.0,0.0,0.0,0.1
1446040239234004995,488,1446040239230814933,robocape,42.6795879596,13.9734708693,40.3547999526,0.0,10.0,0.0,0.0,0.0,10.0,0.0,0.0,0.0,10.0,1.45981175153,-0.103330650295,0.584430701218,1.0,0.0,0.0,0.0,1.0,0.0,0.0,0.0,1.0,-0.736468505859,2.10043212891,5.39837402344,0.1,0.0,0.0,0.0,0.1,0.0,0.0,0.0,0.1
1446040239269153537,489,1446040239266002893,robocape,44.9455374754,13.5787029297,40.9647273417,0.0,10.0,0.0,0.0,0.0,10.0,0.0,0.0,0.0,10.0,1.41826643852,0.2912166652,0.642088138818,1.0,0.0,0.0,0.0,1.0,0.0,0.0,0.0,1.0,2.99976196289,2.16869018555,11.8361865234,0.1,0.0,0.0,0.0,0.1,0.0,0.0,0.0,0.1
1446040239303812245,490,1446040239300724029,robocape,47.2406225705,13.0629698683,41.1296816449,0.0,10.0,0.0,0.0,0.0,10.0,0.0,0.0,0.0,10.0,1.50388706757,0.0977380120059,0.524642734746,1.0,0.0,0.0,0.0,1.0,0.0,0.0,0.0,1.0,0.3448828125,-6.0510168457,4.38049072266,0.1,0.0,0.0,0.0,0.1,0.0,0.0,0.0,0.1
1446040239334172495,491,1446040239331026077,robocape,48.8663960227,12.9794135344,43.1628969443,0.0,10.0,0.0,0.0,0.0,10.0,0.0,0.0,0.0,10.0,1.03290702879,1.04555704397,1.07738181899,1.0,0.0,0.0,0.0,1.0,0.0,0.0,0.0,1.0,10.4530627441,12.5451123047,15.5328991699,0.1,0.0,0.0,0.0,0.1,0.0,0.0,0.0,0.1
1446040239364346037,492,1446040239361294031,robocape,48.0730664889,12.4243257738,45.6556752739,0.0,10.0,0.0,0.0,0.0,10.0,0.0,0.0,0.0,10.0,-0.429701041884,0.970988533443,1.31040841437,1.0,0.0,0.0,0.0,1.0,0.0,0.0,0.0,1.0,4.59604248047,6.16358276367,10.6398742676,0.1,0.0,0.0,0.0,0.1,0.0,0.0,0.0,0.1
1446040239398830245,493,1446040239395704984,robocape,46.6732178528,12.1367923202,48.1146869129,0.0,10.0,0.0,0.0,0.0,10.0,0.0,0.0,0.0,10.0,-0.777509880249,1.01000384341,1.1958924875,1.0,0.0,0.0,0.0,1.0,0.0,0.0,0.0,1.0,7.27487182617,7.0545300293,14.0551721191,0.1,0.0,0.0,0.0,0.1,0.0,0.0,0.0,0.1
1446040239433273204,494,1446040239429917097,robocape,44.784931906,11.6189921393,50.040448863,0.0,10.0,0.0,0.0,0.0,10.0,0.0,0.0,0.0,10.0,-1.02917860326,0.65899921174,1.07431918374,1.0,0.0,0.0,0.0,1.0,0.0,0.0,0.0,1.0,1.21187988281,2.55668334961,10.785970459,0.1,0.0,0.0,0.0,0.1,0.0,0.0,0.0,0.1
1446040239472119412,495,1446040239468848943,robocape,42.9586100301,10.7537792897,51.4480759422,0.0,10.0,0.0,0.0,0.0,10.0,0.0,0.0,0.0,10.0,-0.953944302466,0.299472464579,1.0199906975,1.0,0.0,0.0,0.0,1.0,0.0,0.0,0.0,1.0,-2.07408691406,2.45729003906,9.81598754883,0.1,0.0,0.0,0.0,0.1,0.0,0.0,0.0,0.1
1446040239507051329,496,1446040239503602027,robocape,41.2275968187,12.1361090722,54.4664768395,0.0,10.0,0.0,0.0,0.0,10.0,0.0,0.0,0.0,10.0,-0.982040651967,1.80189479355,0.996421721853,1.0,0.0,0.0,0.0,1.0,0.0,0.0,0.0,1.0,2.26808349609,0.944835205078,10.1441052246,0.1,0.0,0.0,0.0,0.1,0.0,0.0,0.0,0.1
1446040239540907120,497,1446040239537569999,robocape,39.3048857339,8.76457831799,54.8646602576,0.0,10.0,0.0,0.0,0.0,10.0,0.0,0.0,0.0,10.0,-0.939430074525,-1.11826134172,1.47019807978,1.0,0.0,0.0,0.0,1.0,0.0,0.0,0.0,1.0,-19.62,1.55556518555,6.24860595703,0.1,0.0,0.0,0.0,0.1,0.0,0.0,0.0,0.1
1446040239575158954,498,1446040239572057008,robocape,36.9271838169,6.81446883878,55.6943015172,0.0,10.0,0.0,0.0,0.0,10.0,0.0,0.0,0.0,10.0,-1.20002038719,-0.448742643678,1.14822190399,1.0,0.0,0.0,0.0,1.0,0.0,0.0,0.0,1.0,-1.78907958984,2.13156738281,0.106578369141,0.1,0.0,0.0,0.0,0.1,0.0,0.0,0.0,0.1
1446040239611136495,499,1446040239607990026,robocape,34.2473919798,6.69907878216,56.7899255923,0.0,10.0,0.0,0.0,0.0,10.0,0.0,0.0,0.0,10.0,-1.38604218933,0.356064637744,0.656602366759,1.0,0.0,0.0,0.0,1.0,0.0,0.0,0.0,1.0,-2.01900146484,1.70645141602,19.6194012451,0.1,0.0,0.0,0.0,0.1,0.0,0.0,0.0,0.1
1446040239640963370,500,1446040239637754917,robocape,32.9777479739,4.03345835112,56.2992775446,0.0,10.0,0.0,0.0,0.0,10.0,0.0,0.0,0.0,10.0,-0.57444384713,-1.2535499251,0.692555041475,1.0,0.0,0.0,0.0,1.0,0.0,0.0,0.0,1.0,-2.92312133789,2.50159790039,2.40220458984,0.1,0.0,0.0,0.0,0.1,0.0,0.0,0.0,0.1
1446040239670013620,501,1446040239666682958,robocape,31.2411052919,5.05157551348,57.6204361214,0.0,10.0,0.0,0.0,0.0,10.0,0.0,0.0,0.0,10.0,-0.841425746411,0.915727940824,0.549942765101,1.0,0.0,0.0,0.0,1.0,0.0,0.0,0.0,1.0,-1.75315429688,-0.401165771484,13.4133068848,0.1,0.0,0.0,0.0,0.1,0.0,0.0,0.0,0.1
1446040239700202954,502,1446040239697138071,robocape,30.4640811997,4.70631719148,57.8334013613,0.0,10.0,0.0,0.0,0.0,10.0,0.0,0.0,0.0,10.0,-0.317315643883,-0.0199737081756,0.403735221256,1.0,0.0,0.0,0.0,1.0,0.0,0.0,0.0,1.0,11.9559375,-0.5748046875,13.0612390137,0.1,0.0,0.0,0.0,0.1,0.0,0.0,0.0,0.1
1446040239730900245,503,1446040239727705955,robocape,30.61047886,3.19330739885,57.3480801758,0.0,10.0,0.0,0.0,0.0,10.0,0.0,0.0,0.0,10.0,0.192280230704,-0.741690363587,0.396811002422,1.0,0.0,0.0,0.0,1.0,0.0,0.0,0.0,1.0,-4.49784667969,0.578397216797,3.20932617188,0.1,0.0,0.0,0.0,0.1,0.0,0.0,0.0,0.1
1446040239767791787,504,1446040239764467000,robocape,30.6885040435,4.48243926283,58.3052743405,0.0,10.0,0.0,0.0,0.0,10.0,0.0,0.0,0.0,10.0,0.167512832566,0.95434377663,0.421178926396,1.0,0.0,0.0,0.0,1.0,0.0,0.0,0.0,1.0,4.65591796875,-0.076640625,10.2518811035,0.1,0.0,0.0,0.0,0.1,0.0,0.0,0.0,0.1
1446040239797987495,505,1446040239794924974,robocape,31.6495546156,4.57329388406,58.3936484157,0.0,10.0,0.0,0.0,0.0,10.0,0.0,0.0,0.0,10.0,0.649678147925,0.175768631945,0.329699342952,1.0,0.0,0.0,0.0,1.0,0.0,0.0,0.0,1.0,-2.62015136719,1.49928222656,11.8804943848,0.1,0.0,0.0,0.0,0.1,0.0,0.0,0.0,0.1
1446040239832729287,506,1446040239829262018,robocape,33.2895763929,4.42161577676,58.5025245235,0.0,10.0,0.0,0.0,0.0,10.0,0.0,0.0,0.0,10.0,1.04688862451,0.101732753641,0.474442148198,1.0,0.0,0.0,0.0,1.0,0.0,0.0,0.0,1.0,0.2682421875,1.55317016602,8.76577148438,0.1,0.0,0.0,0.0,0.1,0.0,0.0,0.0,0.1
1446040239862376496,507,1446040239859252929,robocape,35.0945066198,4.99258902618,59.1348228121,0.0,10.0,0.0,0.0,0.0,10.0,0.0,0.0,0.0,10.0,1.16539929302,0.613059682936,0.570049631331,1.0,0.0,0.0,0.0,1.0,0.0,0.0,0.0,1.0,-13.1163244629,1.83218994141,9.18729492188,0.1,0.0,0.0,0.0,0.1,0.0,0.0,0.0,0.1
1446040239890943037,508,1446040239887526988,robocape,37.4437413803,4.88323567841,59.4365858123,0.0,10.0,0.0,0.0,0.0,10.0,0.0,0.0,0.0,10.0,1.50082443231,0.250869774685,0.667654485283,1.0,0.0,0.0,0.0,1.0,0.0,0.0,0.0,1.0,3.82724121094,0.0826281738281,7.00543212891,0.1,0.0,0.0,0.0,0.1,0.0,0.0,0.0,0.1
1446040239923620746,509,1446040239920422077,robocape,40.492715951,5.18745761102,59.7404899021,0.0,10.0,0.0,0.0,0.0,10.0,0.0,0.0,0.0,10.0,1.93678390276,0.47244477738,0.600675983867,1.0,0.0,0.0,0.0,1.0,0.0,0.0,0.0,1.0,1.38432128906,1.24541015625,9.93094848633,0.1,0.0,0.0,0.0,0.1,0.0,0.0,0.0,0.1
1446040239956939329,510,1446040239953807115,robocape,44.1448557127,5.77550957611,60.3812765575,0.0,10.0,0.0,0.0,0.0,10.0,0.0,0.0,0.0,10.0,2.35956072581,0.791225159863,0.753408272383,1.0,0.0,0.0,0.0,1.0,0.0,0.0,0.0,1.0,4.89422241211,12.8073669434,12.4888293457,0.1,0.0,0.0,0.0,0.1,0.0,0.0,0.0,0.1
1446040239991934579,511,1446040239988377094,robocape,45.5495382385,4.34889167778,61.7652397653,0.0,10.0,0.0,0.0,0.0,10.0,0.0,0.0,0.0,10.0,1.19456090696,0.365518859613,1.82000428896,1.0,0.0,0.0,0.0,1.0,0.0,0.0,0.0,1.0,7.11680053711,14.0431970215,7.89997192383,0.1,0.0,0.0,0.0,0.1,0.0,0.0,0.0,0.1
1446040240023432746,512,1446040240019901990,robocape,44.6330025138,4.21492423875,65.1058236583,0.0,10.0,0.0,0.0,0.0,10.0,0.0,0.0,0.0,10.0,-0.068176923906,1.61946825888,2.12786571097,1.0,0.0,0.0,0.0,1.0,0.0,0.0,0.0,1.0,6.82580566406,6.79107788086,7.05213500977,0.1,0.0,0.0,0.0,0.1,0.0,0.0,0.0,0.1
1446040240059389704,513,1446040240056140899,robocape,41.4637024697,4.75281669761,69.5714579786,0.0,10.0,0.0,0.0,0.0,10.0,0.0,0.0,0.0,10.0,-1.36140794925,2.24384637645,2.3903202364,1.0,0.0,0.0,0.0,1.0,0.0,0.0,0.0,1.0,5.46663208008,9.17651733398,16.1280615234,0.1,0.0,0.0,0.0,0.1,0.0,0.0,0.0,0.1
1446040240096602454,514,1446040240092490911,robocape,37.5876141239,4.43711916159,71.603232451,0.0,10.0,0.0,0.0,0.0,10.0,0.0,0.0,0.0,10.0,-1.90655702439,0.756604065692,1.38617534739,1.0,0.0,0.0,0.0,1.0,0.0,0.0,0.0,1.0,-1.93876831055,1.29331054688,10.9703869629,0.1,0.0,0.0,0.0,0.1,0.0,0.0,0.0,0.1
1446040240129500454,515,1446040240126393079,robocape,35.3320960773,4.36795167712,73.0607232725,0.0,10.0,0.0,0.0,0.0,10.0,0.0,0.0,0.0,10.0,-1.00734068232,0.655403944269,1.20667828991,1.0,0.0,0.0,0.0,1.0,0.0,0.0,0.0,1.0,-1.12086914062,0.370030517578,8.03888305664,0.1,0.0,0.0,0.0,0.1,0.0,0.0,0.0,0.1
1446040240159979871,516,1446040240156745910,robocape,33.8740010637,4.01376598184,74.0966539263,0.0,10.0,0.0,0.0,0.0,10.0,0.0,0.0,0.0,10.0,-0.572446476313,0.38522625168,1.16579876718,1.0,0.0,0.0,0.0,1.0,0.0,0.0,0.0,1.0,-3.86556152344,0.331710205078,6.74916503906,0.1,0.0,0.0,0.0,0.1,0.0,0.0,0.0,0.1
1446040240196315996,517,1446040240192651033,robocape,32.2860709473,4.68814826852,75.4800100731,0.0,10.0,0.0,0.0,0.0,10.0,0.0,0.0,0.0,10.0,-0.656069734541,0.932239539582,1.07005812599,1.0,0.0,0.0,0.0,1.0,0.0,0.0,0.0,1.0,16.3496008301,-3.50870361328,17.7063793945,0.1,0.0,0.0,0.0,0.1,0.0,0.0,0.0,0.1
1446040240231123579,518,1446040240227386951,robocape,33.0334709515,4.3985633625,75.9332352273,0.0,10.0,0.0,0.0,0.0,10.0,0.0,0.0,0.0,10.0,0.623446011188,0.251801881067,1.0097375273,1.0,0.0,0.0,0.0,1.0,0.0,0.0,0.0,1.0,0.774788818359,0.639470214844,8.73583374023,0.1,0.0,0.0,0.0,0.1,0.0,0.0,0.0,0.1
1446040240262412329,519,1446040240258866071,robocape,34.6731465117,4.72451260669,76.4821562052,0.0,10.0,0.0,0.0,0.0,10.0,0.0,0.0,0.0,10.0,1.13490609854,0.594417555306,0.965262737099,1.0,0.0,0.0,0.0,1.0,0.0,0.0,0.0,1.0,3.05963745117,0.912502441406,9.13220947266,0.1,0.0,0.0,0.0,0.1,0.0,0.0,0.0,0.1
1446040240291738912,520,1446040240288559913,robocape,37.3300315383,5.96611757382,77.2009782772,0.0,10.0,0.0,0.0,0.0,10.0,0.0,0.0,0.0,10.0,1.71893732559,1.10587764266,0.848749439408,1.0,0.0,0.0,0.0,1.0,0.0,0.0,0.0,1.0,3.02969970703,1.70166137695,6.89645874023,0.1,0.0,0.0,0.0,0.1,0.0,0.0,0.0,0.1
1446040240326569579,521,1446040240322796106,robocape,38.8955838922,5.55177776721,78.1785709373,0.0,10.0,0.0,0.0,0.0,10.0,0.0,0.0,0.0,10.0,1.19243037808,0.588292284799,1.61773720417,1.0,0.0,0.0,0.0,1.0,0.0,0.0,0.0,1.0,4.19128417969,12.6684558105,11.4386132813,0.1,0.0,0.0,0.0,0.1,0.0,0.0,0.0,0.1
1446040240362790246,522,1446040240359369993,robocape,38.1550799297,5.89858666527,80.2269633328,0.0,10.0,0.0,0.0,0.0,10.0,0.0,0.0,0.0,10.0,-0.068709556124,1.29376365756,1.84850011262,1.0,0.0,0.0,0.0,1.0,0.0,0.0,0.0,1.0,7.98020507813,14.1138500977,10.515333252,0.1,0.0,0.0,0.0,0.1,0.0,0.0,0.0,0.1
1446040240392366162,523,1446040240389019966,robocape,37.1933278585,6.17989627384,81.6944152223,0.0,10.0,0.0,0.0,0.0,10.0,0.0,0.0,0.0,10.0,-0.240217130325,0.99868540878,1.49536495208,1.0,0.0,0.0,0.0,1.0,0.0,0.0,0.0,1.0,2.56267089844,3.86077148438,6.60306884766,0.1,0.0,0.0,0.0,0.1,0.0,0.0,0.0,0.1
1446040240430256996,524,1446040240427077054,robocape,36.6475259924,6.52136827144,82.9845059159,0.0,10.0,0.0,0.0,0.0,10.0,0.0,0.0,0.0,10.0,-0.0225037112112,0.968192214298,1.44649594608,1.0,0.0,0.0,0.0,1.0,0.0,0.0,0.0,1.0,2.18186279297,3.65719482422,9.32261352539,0.1,0.0,0.0,0.0,0.1,0.0,0.0,0.0,0.1
1446040240465855621,525,1446040240462105035,robocape,36.2498240997,6.9613507717,84.2026951315,0.0,10.0,0.0,0.0,0.0,10.0,0.0,0.0,0.0,10.0,0.0476705835124,0.992426980218,1.4177338063,1.0,0.0,0.0,0.0,1.0,0.0,0.0,0.0,1.0,1.66334106445,4.99002319336,9.4615246582,0.1,0.0,0.0,0.0,0.1,0.0,0.0,0.0,0.1
1446040240500608579,526,1446040240496913909,robocape,35.9460548154,7.48412845738,85.3536200443,0.0,10.0,0.0,0.0,0.0,10.0,0.0,0.0,0.0,10.0,0.0866858934821,1.01226753034,1.38697429571,1.0,0.0,0.0,0.0,1.0,0.0,0.0,0.0,1.0,3.23686889648,6.5946862793,8.62446533203,0.1,0.0,0.0,0.0,0.1,0.0,0.0,0.0,0.1
1446040240537974829,527,1446040240533346891,robocape,35.4992131729,7.87326093707,86.4349460807,0.0,10.0,0.0,0.0,0.0,10.0,0.0,0.0,0.0,10.0,-0.00226368692657,0.935834807054,1.4130732744,1.0,0.0,0.0,0.0,1.0,0.0,0.0,0.0,1.0,1.95912597656,6.47134277344,8.97294067383,0.1,0.0,0.0,0.0,0.1,0.0,0.0,0.0,0.1
1446040240575953496,528,1446040240572423934,robocape,34.9652170562,8.39317859928,87.4068446215,0.0,10.0,0.0,0.0,0.0,10.0,0.0,0.0,0.0,10.0,-0.0688427141785,0.941826919507,1.2994894539,1.0,0.0,0.0,0.0,1.0,0.0,0.0,0.0,1.0,2.54231323242,5.50974243164,8.51309692383,0.1,0.0,0.0,0.0,0.1,0.0,0.0,0.0,0.1
1446040240612003329,529,1446040240608836889,robocape,34.7827119694,9.59094384231,88.5143494174,0.0,10.0,0.0,0.0,0.0,10.0,0.0,0.0,0.0,10.0,0.0997353828235,1.30201945694,1.21706461817,1.0,0.0,0.0,0.0,1.0,0.0,0.0,0.0,1.0,14.1689355469,8.60650268555,9.37051391602,0.1,0.0,0.0,0.0,0.1,0.0,0.0,0.0,0.1
1446040240643259246,530,1446040240640161991,robocape,33.7468483508,9.95766865373,89.5608692191,0.0,10.0,0.0,0.0,0.0,10.0,0.0,0.0,0.0,10.0,-0.376837294246,0.928111639893,1.45634964211,1.0,0.0,0.0,0.0,1.0,0.0,0.0,0.0,1.0,1.50766479492,8.43286376953,7.87721923828,0.1,0.0,0.0,0.0,0.1,0.0,0.0,0.0,0.1
1446040240681312829,531,1446040240677743911,robocape,34.2581514193,10.3565311375,89.6743986882,0.0,10.0,0.0,0.0,0.0,10.0,0.0,0.0,0.0,10.0,0.458330023603,0.561793831952,0.808535706948,1.0,0.0,0.0,0.0,1.0,0.0,0.0,0.0,1.0,1.12925170898,3.61887451172,8.41609863281,0.1,0.0,0.0,0.0,0.1,0.0,0.0,0.0,0.1
1446040240716393746,532,1446040240713179111,robocape,34.9973429376,10.2593488645,90.2574070033,0.0,10.0,0.0,0.0,0.0,10.0,0.0,0.0,0.0,10.0,0.60546967383,0.615989160135,1.46101017402,1.0,0.0,0.0,0.0,1.0,0.0,0.0,0.0,1.0,0.857416992188,10.024354248,8.65560058594,0.1,0.0,0.0,0.0,0.1,0.0,0.0,0.0,0.1
1446040240748058829,533,1446040240744790077,robocape,37.6467970035,10.2173897565,91.985434566,0.0,10.0,0.0,0.0,0.0,10.0,0.0,0.0,0.0,10.0,1.72546207026,1.35142109516,2.73466696535,1.0,0.0,0.0,0.0,1.0,0.0,0.0,0.0,1.0,7.62693969727,4.79602661133,5.36364624023,0.1,0.0,0.0,0.0,0.1,0.0,0.0,0.0,0.1
1446040240794836246,534,1446040240791532993,robocape,38.3986352134,11.4313343475,94.389204765,0.0,10.0,0.0,0.0,0.0,10.0,0.0,0.0,0.0,10.0,0.671382910809,2.21268739169,2.66089740315,1.0,0.0,0.0,0.0,1.0,0.0,0.0,0.0,1.0,6.05341186523,11.7020654297,6.59708129883,0.1,0.0,0.0,0.0,0.1,0.0,0.0,0.0,0.1
1446040240829836663,535,1446040240826704025,robocape,36.5235927644,13.7421238521,96.9236282749,0.0,10.0,0.0,0.0,0.0,10.0,0.0,0.0,0.0,10.0,-0.893357387667,2.62587683482,2.11095463805,1.0,0.0,0.0,0.0,1.0,0.0,0.0,0.0,1.0,1.93996582031,14.4060424805,5.7097265625,0.1,0.0,0.0,0.0,0.1,0.0,0.0,0.0,0.1
1446040240861558579,536,1446040240858457088,robocape,32.5560729476,16.3692275758,98.8803997411,0.0,10.0,0.0,0.0,0.0,10.0,0.0,0.0,0.0,10.0,-2.13758624895,2.40283709352,1.50987918002,1.0,0.0,0.0,0.0,1.0,0.0,0.0,0.0,1.0,-16.5615600586,2.33634155273,11.9631225586,0.1,0.0,0.0,0.0,0.1,0.0,0.0,0.0,0.1
1446040240892607996,537,1446040240889024019,robocape,30.8440234412,17.0380535292,98.1898175511,0.0,10.0,0.0,0.0,0.0,10.0,0.0,0.0,0.0,10.0,-0.743954050514,0.330897765442,0.0146473859954,1.0,0.0,0.0,0.0,1.0,0.0,0.0,0.0,1.0,-2.52794311523,1.15679443359,7.92631713867,0.1,0.0,0.0,0.0,0.1,0.0,0.0,0.0,0.1
1446040240925526204,538,1446040240922418117,robocape,30.780517942,17.5228135814,97.4927308141,0.0,10.0,0.0,0.0,0.0,10.0,0.0,0.0,0.0,10.0,0.131426999795,0.292415087691,0.166980200348,1.0,0.0,0.0,0.0,1.0,0.0,0.0,0.0,1.0,0.653840332031,5.08702148438,8.28437255859,0.1,0.0,0.0,0.0,0.1,0.0,0.0,0.0,0.1
1446040240957612538,539,1446040240954565048,robocape,30.7220839363,17.3657248273,97.1941075392,0.0,10.0,0.0,0.0,0.0,10.0,0.0,0.0,0.0,10.0,0.0950748509158,0.220376580204,0.779107776903,1.0,0.0,0.0,0.0,1.0,0.0,0.0,0.0,1.0,1.51484985352,5.55405029297,7.893984375,0.1,0.0,0.0,0.0,0.1,0.0,0.0,0.0,0.1
1446040240992401871,540,1446040240988714933,robocape,30.9825441285,17.5372732164,97.0042006291,0.0,10.0,0.0,0.0,0.0,10.0,0.0,0.0,0.0,10.0,0.253133461612,0.415453130052,0.780039883284,1.0,0.0,0.0,0.0,1.0,0.0,0.0,0.0,1.0,-0.408350830078,12.2960302734,8.95497802734,0.1,0.0,0.0,0.0,0.1,0.0,0.0,0.0,0.1
1446040241027252163,541,1446040241024106025,robocape,30.634251817,17.7697343275,96.420881602,0.0,10.0,0.0,0.0,0.0,10.0,0.0,0.0,0.0,10.0,-0.0300937203179,0.230496592346,0.325305127153,1.0,0.0,0.0,0.0,1.0,0.0,0.0,0.0,1.0,2.00582885742,7.10362792969,8.85079467773,0.1,0.0,0.0,0.0,0.1,0.0,0.0,0.0,0.1
1446040241060574079,542,1446040241057358026,robocape,30.4392606228,17.9547661398,95.6244882175,0.0,10.0,0.0,0.0,0.0,10.0,0.0,0.0,0.0,10.0,0.0737695621952,0.103996440568,0.124635939016,1.0,0.0,0.0,0.0,1.0,0.0,0.0,0.0,1.0,0.518521728516,7.87841674805,7.79818359375,0.1,0.0,0.0,0.0,0.1,0.0,0.0,0.0,0.1
1446040241094776454,543,1446040241091212987,robocape,30.0928860881,18.1154179512,94.8136280026,0.0,10.0,0.0,0.0,0.0,10.0,0.0,0.0,0.0,10.0,-0.00532632218016,0.0789627263208,0.0937432703708,1.0,0.0,0.0,0.0,1.0,0.0,0.0,0.0,1.0,0.407153320313,7.59939697266,7.93829223633,0.1,0.0,0.0,0.0,0.1,0.0,0.0,0.0,0.1
1446040241124602246,544,1446040241121509075,robocape,29.7403412672,18.2590362022,93.8808108152,0.0,10.0,0.0,0.0,0.0,10.0,0.0,0.0,0.0,10.0,0.00492684801665,0.00918790576077,-0.034354778062,1.0,0.0,0.0,0.0,1.0,0.0,0.0,0.0,1.0,0.237106933594,7.36947509766,7.98978515625,0.1,0.0,0.0,0.0,0.1,0.0,0.0,0.0,0.1
1446040241154734204,545,1446040241151649951,robocape,29.4182003555,18.4125912534,92.861155789,0.0,10.0,0.0,0.0,0.0,10.0,0.0,0.0,0.0,10.0,0.0310258266994,-0.0303600364269,-0.134622793104,1.0,0.0,0.0,0.0,1.0,0.0,0.0,0.0,1.0,-0.393980712891,7.07967773438,8.17420166016,0.1,0.0,0.0,0.0,0.1,0.0,0.0,0.0,0.1
1446040241186508329,546,1446040241183443069,robocape,29.1611772904,18.6030607751,91.8224175175,0.0,10.0,0.0,0.0,0.0,10.0,0.0,0.0,0.0,10.0,0.067910607797,-0.0254331884103,-0.17710021249,1.0,0.0,0.0,0.0,1.0,0.0,0.0,0.0,1.0,-0.890947265625,6.87729858398,8.43046875,0.1,0.0,0.0,0.0,0.1,0.0,0.0,0.0,0.1
1446040241222533413,547,1446040241219403028,robocape,28.9270135002,18.7914855978,90.8453901001,0.0,10.0,0.0,0.0,0.0,10.0,0.0,0.0,0.0,10.0,0.0728374558137,-0.00173105470855,-0.135155425322,1.0,0.0,0.0,0.0,1.0,0.0,0.0,0.0,1.0,-1.50886230469,6.85095336914,8.41729614258,0.1,0.0,0.0,0.0,0.1,0.0,0.0,0.0,0.1
1446040241257475330,548,1446040241254256010,robocape,28.6245372114,18.8929890667,90.0417256585,0.0,10.0,0.0,0.0,0.0,10.0,0.0,0.0,0.0,10.0,0.0147805440499,0.0314253008629,0.0267647689553,1.0,0.0,0.0,0.0,1.0,0.0,0.0,0.0,1.0,-1.19631225586,6.95753173828,8.40053100586,0.1,0.0,0.0,0.0,0.1,0.0,0.0,0.0,0.1
1446040241292115871,549,1446040241288778066,robocape,28.3028329348,18.9705153526,89.2948703789,0.0,10.0,0.0,0.0,0.0,10.0,0.0,0.0,0.0,10.0,-0.0034621094171,0.0411458388417,0.0683100819605,1.0,0.0,0.0,0.0,1.0,0.0,0.0,0.0,1.0,-0.675395507813,7.0545300293,8.20653442383,0.1,0.0,0.0,0.0,0.1,0.0,0.0,0.0,0.1
1446040241325809705,550,1446040241321706056,robocape,27.9727944173,19.0472222978,88.539235784,0.0,10.0,0.0,0.0,0.0,10.0,0.0,0.0,0.0,10.0,-0.00759000910673,0.0331563555715,0.0467384771309,1.0,0.0,0.0,0.0,1.0,0.0,0.0,0.0,1.0,-0.300574951172,7.17787353516,8.13707885742,0.1,0.0,0.0,0.0,0.1,0.0,0.0,0.0,0.1
1446040241356035080,551,1446040241353008985,robocape,27.6531858833,19.1386725486,87.7421885538,0.0,10.0,0.0,0.0,0.0,10.0,0.0,0.0,0.0,10.0,0.00266316109008,0.0191747598486,-0.00599211245268,1.0,0.0,0.0,0.0,1.0,0.0,0.0,0.0,1.0,-0.446671142578,7.09165283203,8.19096679688,0.1,0.0,0.0,0.0,0.1,0.0,0.0,0.0,0.1
1446040241390307330,552,1446040241386986970,robocape,27.3419115445,19.2341961336,86.9338624676,0.0,10.0,0.0,0.0,0.0,10.0,0.0,0.0,0.0,10.0,0.00798948327024,0.0133158054504,-0.0295610880999,1.0,0.0,0.0,0.0,1.0,0.0,0.0,0.0,1.0,-0.67060546875,7.12518310547,8.23287963867,0.1,0.0,0.0,0.0,0.1,0.0,0.0,0.0,0.1
1446040241420376621,553,1446040241416845083,robocape,27.0450931666,19.3180063593,86.16078072,0.0,10.0,0.0,0.0,0.0,10.0,0.0,0.0,0.0,10.0,0.0102531701968,0.0193079179031,-0.00918790576077,1.0,0.0,0.0,0.0,1.0,0.0,0.0,0.0,1.0,-0.955612792969,6.96351928711,8.28796508789,0.1,0.0,0.0,0.0,0.1,0.0,0.0,0.0,0.1
1446040241453343413,554,1446040241450107097,robocape,26.7521083945,19.3858938066,85.4352489848,0.0,10.0,0.0,0.0,0.0,10.0,0.0,0.0,0.0,10.0,0.00506000607115,0.0278300333913,0.0222373951022,1.0,0.0,0.0,0.0,1.0,0.0,0.0,0.0,1.0,-0.810714111328,6.97669189453,8.24126220703,0.1,0.0,0.0,0.0,0.1,0.0,0.0,0.0,0.1
1446040241486516330,555,1446040241483411073,robocape,26.4638635759,19.4492952521,84.7274235703,0.0,10.0,0.0,0.0,0.0,10.0,0.0,0.0,0.0,10.0,0.00439421579863,0.0296942461544,0.0263652947918,1.0,0.0,0.0,0.0,1.0,0.0,0.0,0.0,1.0,-0.558039550781,7.09524536133,8.21132446289,0.1,0.0,0.0,0.0,0.1,0.0,0.0,0.0,0.1
1446040241521933746,556,1446040241518788099,robocape,26.1740588953,19.5159905756,84.0034574426,0.0,10.0,0.0,0.0,0.0,10.0,0.0,0.0,0.0,10.0,0.00519316412565,0.0221042370477,0.00106526443603,1.0,0.0,0.0,0.0,1.0,0.0,0.0,0.0,1.0,-0.51732421875,7.14075073242,8.1969543457,0.1,0.0,0.0,0.0,0.1,0.0,0.0,0.0,0.1
1446040241553263413,557,1446040241550101995,robocape,25.8889815603,19.5809151781,83.2796015178,0.0,10.0,0.0,0.0,0.0,10.0,0.0,0.0,0.0,10.0,0.00705737688871,0.0186421276306,-0.00932106381528,1.0,0.0,0.0,0.0,1.0,0.0,0.0,0.0,1.0,-0.671802978516,7.04854248047,8.21611450195,0.1,0.0,0.0,0.0,0.1,0.0,0.0,0.0,0.1
1446040241589458663,558,1446040241586359024,robocape,25.60960308,19.6395642031,82.5787994962,0.0,10.0,0.0,0.0,0.0,10.0,0.0,0.0,0.0,10.0,0.00612527050718,0.0217047628841,0.0,1.0,0.0,0.0,0.0,1.0,0.0,0.0,0.0,1.0,-0.835861816406,6.9778894043,8.28437255859,0.1,0.0,0.0,0.0,0.1,0.0,0.0,0.0,0.1
1446040241619867121,559,1446040241616689920,robocape,25.3372979943,19.6900717264,81.9065665577,0.0,10.0,0.0,0.0,0.0,10.0,0.0,0.0,0.0,10.0,0.00506000607115,0.0258326625738,0.0143810698864,1.0,0.0,0.0,0.0,1.0,0.0,0.0,0.0,1.0,-0.902922363281,7.03417236328,8.24605224609,0.1,0.0,0.0,0.0,0.1,0.0,0.0,0.0,0.1
1446040241658104371,560,1446040241654959917,robocape,25.0689090808,19.7382885403,81.2449594631,0.0,10.0,0.0,0.0,0.0,10.0,0.0,0.0,0.0,10.0,0.00492684801665,0.0260989786828,0.0134489635049,1.0,0.0,0.0,0.0,1.0,0.0,0.0,0.0,1.0,-0.616717529297,7.06411010742,8.22808959961,0.1,0.0,0.0,0.0,0.1,0.0,0.0,0.0,0.1
1446040241690381371,561,1446040241687187910,robocape,24.8027179164,19.7852479439,80.5798174317,0.0,10.0,0.0,0.0,0.0,10.0,0.0,0.0,0.0,10.0,0.00599211245268,0.0218379209386,0.00146473859954,1.0,0.0,0.0,0.0,1.0,0.0,0.0,0.0,1.0,-0.604742431641,7.06770263672,8.21850952148,0.1,0.0,0.0,0.0,0.1,0.0,0.0,0.0,0.1
1446040241719772538,562,1446040241716722965,robocape,24.5408141146,19.8307859909,79.9231500387,0.0,10.0,0.0,0.0,0.0,10.0,0.0,0.0,0.0,10.0,0.00639158661619,0.0218379209386,-0.000932106381528,1.0,0.0,0.0,0.0,1.0,0.0,0.0,0.0,1.0,-0.707728271484,7.0509375,8.24605224609,0.1,0.0,0.0,0.0,0.1,0.0,0.0,0.0,0.1
1446040241757967121,563,1446040241754760980,robocape,24.2851925409,19.8708550509,79.2854388433,0.0,10.0,0.0,0.0,0.0,10.0,0.0,0.0,0.0,10.0,0.00625842856169,0.0235689756472,0.00585895439817,1.0,0.0,0.0,0.0,1.0,0.0,0.0,0.0,1.0,-0.752036132813,7.0126171875,8.22928710938,0.1,0.0,0.0,0.0,0.1,0.0,0.0,0.0,0.1
1446040241797969663,564,1446040241794399023,robocape,24.0353469586,19.9077392661,78.6648054482,0.0,10.0,0.0,0.0,0.0,10.0,0.0,0.0,0.0,10.0,0.00612527050718,0.0256995045193,0.0109189604693,1.0,0.0,0.0,0.0,1.0,0.0,0.0,0.0,1.0,-0.694555664063,7.04854248047,8.22210205078,0.1,0.0,0.0,0.0,0.1,0.0,0.0,0.0,0.1
1446040241832207121,565,1446040241828994035,robocape,23.7862900358,19.9442808821,78.0474486628,0.0,10.0,0.0,0.0,0.0,10.0,0.0,0.0,0.0,10.0,0.00545948023466,0.0245010820287,0.00506000607115,1.0,0.0,0.0,0.0,1.0,0.0,0.0,0.0,1.0,-0.643062744141,7.06411010742,8.22689208984,0.1,0.0,0.0,0.0,0.1,0.0,0.0,0.0,0.1
1446040241863704205,566,1446040241860603094,robocape,23.5411204651,19.9766383434,77.4370853374,0.0,10.0,0.0,0.0,0.0,10.0,0.0,0.0,0.0,10.0,0.00585895439817,0.0227700273202,0.00306263525359,1.0,0.0,0.0,0.0,1.0,0.0,0.0,0.0,1.0,-0.678988037109,7.04973999023,8.23048461914,0.1,0.0,0.0,0.0,0.1,0.0,0.0,0.0,0.1
1446040241895370538,567,1446040241892096996,robocape,23.3005753379,20.0059622208,76.839696641,0.0,10.0,0.0,0.0,0.0,10.0,0.0,0.0,0.0,10.0,0.00572579634367,0.0235689756472,0.00545948023466,1.0,0.0,0.0,0.0,1.0,0.0,0.0,0.0,1.0,-0.700543212891,7.03177734375,8.24724975586,0.1,0.0,0.0,0.0,0.1,0.0,0.0,0.0,0.1
1446040241927790580,568,1446040241924709081,robocape,23.0655213491,20.0320504777,76.2547638406,0.0,10.0,0.0,0.0,0.0,10.0,0.0,0.0,0.0,10.0,0.00612527050718,0.0241016078652,0.00772316716123,1.0,0.0,0.0,0.0,1.0,0.0,0.0,0.0,1.0,-0.693358154297,7.06171508789,8.24365722656,0.1,0.0,0.0,0.0,0.1,0.0,0.0,0.0,0.1
1446040241956830497,569,1446040241953697919,robocape,22.8334532558,20.0560674513,75.6780799103,0.0,10.0,0.0,0.0,0.0,10.0,0.0,0.0,0.0,10.0,0.00585895439817,0.0238352917562,0.0067910607797,1.0,0.0,0.0,0.0,1.0,0.0,0.0,0.0,1.0,-0.667012939453,7.06411010742,8.24006469727,0.1,0.0,0.0,0.0,0.1,0.0,0.0,0.0,0.1
1446040241986570622,570,1446040241983221054,robocape,22.6049323327,20.0789085253,75.1081675495,0.0,10.0,0.0,0.0,0.0,10.0,0.0,0.0,0.0,10.0,0.00612527050718,0.0235689756472,0.00479368996214,1.0,0.0,0.0,0.0,1.0,0.0,0.0,0.0,1.0,-0.668210449219,7.06530761719,8.25203979492,0.1,0.0,0.0,0.0,0.1,0.0,0.0,0.0,0.1
1446040242022582663,571,1446040242019493103,robocape,22.3817977039,20.0987355399,74.5486677821,0.0,10.0,0.0,0.0,0.0,10.0,0.0,0.0,0.0,10.0,0.0067910607797,0.0235689756472,0.00599211245268,1.0,0.0,0.0,0.0,1.0,0.0,0.0,0.0,1.0,-0.713715820313,7.05213500977,8.23766967773,0.1,0.0,0.0,0.0,0.1,0.0,0.0,0.0,0.1
1446040242053248997,572,1446040242050201892,robocape,22.1611337405,20.1164252787,73.9991291379,0.0,10.0,0.0,0.0,0.0,10.0,0.0,0.0,0.0,10.0,0.00599211245268,0.0238352917562,0.0067910607797,1.0,0.0,0.0,0.0,1.0,0.0,0.0,0.0,1.0,-0.684975585938,7.04494995117,8.25682983398,0.1,0.0,0.0,0.0,0.1,0.0,0.0,0.0,0.1
1446040242086689663,573,1446040242083391904,robocape,21.9440133175,20.1331016614,73.4580972168,0.0,10.0,0.0,0.0,0.0,10.0,0.0,0.0,0.0,10.0,0.00599211245268,0.0242347659197,0.00652474467069,1.0,0.0,0.0,0.0,1.0,0.0,0.0,0.0,1.0,-0.680185546875,7.07009765625,8.25443481445,0.1,0.0,0.0,0.0,0.1,0.0,0.0,0.0,0.1
1446040242119983163,574,1446040242116818904,robocape,21.7302026247,20.1473156757,72.9247988254,0.0,10.0,0.0,0.0,0.0,10.0,0.0,0.0,0.0,10.0,0.00599211245268,0.0237021337017,0.00612527050718,1.0,0.0,0.0,0.0,1.0,0.0,0.0,0.0,1.0,-0.680185546875,7.05812255859,8.2424597168,0.1,0.0,0.0,0.0,0.1,0.0,0.0,0.0,0.1
1446040242153802580,575,1446040242150393009,robocape,21.5201926283,20.1593672788,72.4000417034,0.0,10.0,0.0,0.0,0.0,10.0,0.0,0.0,0.0,10.0,0.00612527050718,0.0235689756472,0.00639158661619,1.0,0.0,0.0,0.0,1.0,0.0,0.0,0.0,1.0,-0.686173095703,7.04854248047,8.23766967773,0.1,0.0,0.0,0.0,0.1,0.0,0.0,0.0,0.1
1446040242186442497,576,1446040242183331966,robocape,21.3133218968,20.1703343162,71.8833514344,0.0,10.0,0.0,0.0,0.0,10.0,0.0,0.0,0.0,10.0,0.00599211245268,0.0238352917562,0.00625842856169,1.0,0.0,0.0,0.0,1.0,0.0,0.0,0.0,1.0,-0.688568115234,7.05572753906,8.22928710938,0.1,0.0,0.0,0.0,0.1,0.0,0.0,0.0,0.1
1446040242222293663,577,1446040242219152927,robocape,21.1089142182,20.1797687863,71.3750069361,0.0,10.0,0.0,0.0,0.0,10.0,0.0,0.0,0.0,10.0,0.00545948023466,0.0239684498107,0.00652474467069,1.0,0.0,0.0,0.0,1.0,0.0,0.0,0.0,1.0,-0.684975585938,7.05692504883,8.23647216797,0.1,0.0,0.0,0.0,0.1,0.0,0.0,0.0,0.1
1446040242253453913,578,1446040242250051021,robocape,20.9091062519,20.1875279332,70.8737593544,0.0,10.0,0.0,0.0,0.0,10.0,0.0,0.0,0.0,10.0,0.00625842856169,0.0237021337017,0.00612527050718,1.0,0.0,0.0,0.0,1.0,0.0,0.0,0.0,1.0,-0.675395507813,7.05932006836,8.2424597168,0.1,0.0,0.0,0.0,0.1,0.0,0.0,0.0,0.1
1446040242289214872,579,1446040242286032915,robocape,20.7115735909,20.1937687749,70.380304622,0.0,10.0,0.0,0.0,0.0,10.0,0.0,0.0,0.0,10.0,0.00572579634367,0.0237021337017,0.00625842856169,1.0,0.0,0.0,0.0,1.0,0.0,0.0,0.0,1.0,-0.684975585938,7.06650512695,8.25203979492,0.1,0.0,0.0,0.0,0.1,0.0,0.0,0.0,0.1
1446040242324066330,580,1446040242320736885,robocape,20.5174834848,20.1987995894,69.8935367601,0.0,10.0,0.0,0.0,0.0,10.0,0.0,0.0,0.0,10.0,0.00599211245268,0.0235689756472,0.00572579634367,1.0,0.0,0.0,0.0,1.0,0.0,0.0,0.0,1.0,-0.686173095703,7.04614746094,8.24006469727,0.1,0.0,0.0,0.0,0.1,0.0,0.0,0.0,0.1
1446040242356165997,581,1446040242352963924,robocape,20.3267906717,20.2015096234,69.4149601275,0.0,10.0,0.0,0.0,0.0,10.0,0.0,0.0,0.0,10.0,0.00599211245268,0.0233026595382,0.00652474467069,1.0,0.0,0.0,0.0,1.0,0.0,0.0,0.0,1.0,-0.682580566406,7.05213500977,8.22090454102,0.1,0.0,0.0,0.0,0.1,0.0,0.0,0.0,0.1
1446040242390256497,582,1446040242386919975,robocape,20.1382350494,20.2040790689,68.9430112013,0.0,10.0,0.0,0.0,0.0,10.0,0.0,0.0,0.0,10.0,0.00559263828917,0.0237021337017,0.00599211245268,1.0,0.0,0.0,0.0,1.0,0.0,0.0,0.0,1.0,-0.680185546875,7.06171508789,8.20533691406,0.1,0.0,0.0,0.0,0.1,0.0,0.0,0.0,0.1
1446040242421402330,583,1446040242418302059,robocape,19.9546052982,20.2054425647,68.478560856,0.0,10.0,0.0,0.0,0.0,10.0,0.0,0.0,0.0,10.0,0.00652474467069,0.0238352917562,0.00639158661619,1.0,0.0,0.0,0.0,1.0,0.0,0.0,0.0,1.0,-0.684975585938,7.05932006836,8.23766967773,0.1,0.0,0.0,0.0,0.1,0.0,0.0,0.0,0.1
1446040242456718872,584,1446040242453360080,robocape,19.7728038505,20.2051939975,68.0214324153,0.0,10.0,0.0,0.0,0.0,10.0,0.0,0.0,0.0,10.0,0.00585895439817,0.0237021337017,0.0067910607797,1.0,0.0,0.0,0.0,1.0,0.0,0.0,0.0,1.0,-0.681383056641,7.05572753906,8.26521240234,0.1,0.0,0.0,0.0,0.1,0.0,0.0,0.0,0.1
1446040242486294580,585,1446040242483222007,robocape,19.5944798559,20.2033815134,67.5704481719,0.0,10.0,0.0,0.0,0.0,10.0,0.0,0.0,0.0,10.0,0.00625842856169,0.0233026595382,0.00652474467069,1.0,0.0,0.0,0.0,1.0,0.0,0.0,0.0,1.0,-0.694555664063,7.0509375,8.24485473633,0.1,0.0,0.0,0.0,0.1,0.0,0.0,0.0,0.1
1446040242519667205,586,1446040242516566038,robocape,19.4186289683,20.2017960393,67.1257029406,0.0,10.0,0.0,0.0,0.0,10.0,0.0,0.0,0.0,10.0,0.00612527050718,0.0238352917562,0.00612527050718,1.0,0.0,0.0,0.0,1.0,0.0,0.0,0.0,1.0,-0.682580566406,7.05572753906,8.22210205078,0.1,0.0,0.0,0.0,0.1,0.0,0.0,0.0,0.1
1446040242556734080,587,1446040242553415060,robocape,19.2447688399,20.1987930219,66.6872741088,0.0,10.0,0.0,0.0,0.0,10.0,0.0,0.0,0.0,10.0,0.00572579634367,0.0235689756472,0.00612527050718,1.0,0.0,0.0,0.0,1.0,0.0,0.0,0.0,1.0,-0.692160644531,7.05692504883,8.21850952148,0.1,0.0,0.0,0.0,0.1,0.0,0.0,0.0,0.1
1446040242586387288,588,1446040242583342075,robocape,19.0734560949,20.1950382344,66.2553581432,0.0,10.0,0.0,0.0,0.0,10.0,0.0,0.0,0.0,10.0,0.00559263828917,0.0237021337017,0.00625842856169,1.0,0.0,0.0,0.0,1.0,0.0,0.0,0.0,1.0,-0.686173095703,7.06291259766,8.23287963867,0.1,0.0,0.0,0.0,0.1,0.0,0.0,0.0,0.1
1446040242621827163,589,1446040242618757009,robocape,18.9073179078,20.1894019599,65.8294906579,0.0,10.0,0.0,0.0,0.0,10.0,0.0,0.0,0.0,10.0,0.00692421883421,0.0231695014837,0.00639158661619,1.0,0.0,0.0,0.0,1.0,0.0,0.0,0.0,1.0,-0.689765625,7.04015991211,8.27119995117,0.1,0.0,0.0,0.0,0.1,0.0,0.0,0.0,0.1
1446040242655717080,590,1446040242652307033,robocape,18.7429246378,20.1840618898,65.4101123061,0.0,10.0,0.0,0.0,0.0,10.0,0.0,0.0,0.0,10.0,0.00639158661619,0.0238352917562,0.00652474467069,1.0,0.0,0.0,0.0,1.0,0.0,0.0,0.0,1.0,-0.693358154297,7.04973999023,8.24844726562,0.1,0.0,0.0,0.0,0.1,0.0,0.0,0.0,0.1
1446040242686367872,591,1446040242683337926,robocape,18.5812432416,20.1773425937,64.9962782665,0.0,10.0,0.0,0.0,0.0,10.0,0.0,0.0,0.0,10.0,0.00652474467069,0.0234358175927,0.00639158661619,1.0,0.0,0.0,0.0,1.0,0.0,0.0,0.0,1.0,-0.690963134766,7.04255493164,8.26401489258,0.1,0.0,0.0,0.0,0.1,0.0,0.0,0.0,0.1
1446040242722775622,592,1446040242719636917,robocape,18.4206349067,20.170851048,64.5884602233,0.0,10.0,0.0,0.0,0.0,10.0,0.0,0.0,0.0,10.0,0.00572579634367,0.0239684498107,0.00639158661619,1.0,0.0,0.0,0.0,1.0,0.0,0.0,0.0,1.0,-0.680185546875,7.05213500977,8.24724975586,0.1,0.0,0.0,0.0,0.1,0.0,0.0,0.0,0.1
1446040242763224997,593,1446040242760009050,robocape,18.2623531748,20.1623412046,64.1858008442,0.0,10.0,0.0,0.0,0.0,10.0,0.0,0.0,0.0,10.0,0.00572579634367,0.0231695014837,0.00625842856169,1.0,0.0,0.0,0.0,1.0,0.0,0.0,0.0,1.0,-0.690963134766,7.04973999023,8.2352746582,0.1,0.0,0.0,0.0,0.1,0.0,0.0,0.0,0.1
1446040242792622955,594,1446040242789494037,robocape,18.1071665092,20.1537235853,63.7891978024,0.0,10.0,0.0,0.0,0.0,10.0,0.0,0.0,0.0,10.0,0.00599211245268,0.0235689756472,0.00652474467069,1.0,0.0,0.0,0.0,1.0,0.0,0.0,0.0,1.0,-0.692160644531,7.0473449707,8.26880493164,0.1,0.0,0.0,0.0,0.1,0.0,0.0,0.0,0.1
1446040242822784914,595,1446040242819744110,robocape,17.954875186,20.1446260806,63.398858572,0.0,10.0,0.0,0.0,0.0,10.0,0.0,0.0,0.0,10.0,0.00612527050718,0.0238352917562,0.00705737688871,1.0,0.0,0.0,0.0,1.0,0.0,0.0,0.0,1.0,-0.693358154297,7.05333251953,8.24006469727,0.1,0.0,0.0,0.0,0.1,0.0,0.0,0.0,0.1
1446040242853263664,596,1446040242850092887,robocape,17.8046283663,20.1356224385,63.0129442365,0.0,10.0,0.0,0.0,0.0,10.0,0.0,0.0,0.0,10.0,0.00612527050718,0.0239684498107,0.00639158661619,1.0,0.0,0.0,0.0,1.0,0.0,0.0,0.0,1.0,-0.695753173828,7.04255493164,8.24844726562,0.1,0.0,0.0,0.0,0.1,0.0,0.0,0.0,0.1
1446040242887357622,597,1446040242884208917,robocape,17.6572588225,20.1254274252,62.6325010105,0.0,10.0,0.0,0.0,0.0,10.0,0.0,0.0,0.0,10.0,0.00639158661619,0.0237021337017,0.0066579027252,1.0,0.0,0.0,0.0,1.0,0.0,0.0,0.0,1.0,-0.686173095703,7.04614746094,8.22090454102,0.1,0.0,0.0,0.0,0.1,0.0,0.0,0.0,0.1
1446040242919884247,598,1446040242916785001,robocape,17.5125377691,20.1153660836,62.2568714373,0.0,10.0,0.0,0.0,0.0,10.0,0.0,0.0,0.0,10.0,0.0066579027252,0.0239684498107,0.00639158661619,1.0,0.0,0.0,0.0,1.0,0.0,0.0,0.0,1.0,-0.692160644531,7.0545300293,8.22210205078,0.1,0.0,0.0,0.0,0.1,0.0,0.0,0.0,0.1
1446040242957510414,599,1446040242954195022,robocape,17.3684111281,20.1045291548,61.8851773302,0.0,10.0,0.0,0.0,0.0,10.0,0.0,0.0,0.0,10.0,0.00599211245268,0.0235689756472,0.00572579634367,1.0,0.0,0.0,0.0,1.0,0.0,0.0,0.0,1.0,-0.695753173828,7.04375244141,8.24006469727,0.1,0.0,0.0,0.0,0.1,0.0,0.0,0.0,0.1
1446040242989108747,600,1446040242985910892,robocape,17.2265289769,20.0932860168,61.5194509172,0.0,10.0,0.0,0.0,0.0,10.0,0.0,0.0,0.0,10.0,0.00585895439817,0.0238352917562,0.00639158661619,1.0,0.0,0.0,0.0,1.0,0.0,0.0,0.0,1.0,-0.680185546875,7.05572753906,8.22928710938,0.1,0.0,0.0,0.0,0.1,0.0,0.0,0.0,0.1
1446040243022501080,601,1446040243019459962,robocape,17.0874236999,20.08088538,61.1589982756,0.0,10.0,0.0,0.0,0.0,10.0,0.0,0.0,0.0,10.0,0.00612527050718,0.0235689756472,0.0067910607797,1.0,0.0,0.0,0.0,1.0,0.0,0.0,0.0,1.0,-0.684975585938,7.06051757813,8.22449707031,0.1,0.0,0.0,0.0,0.1,0.0,0.0,0.0,0.1
1446040243053278414,602,1446040243050205945,robocape,16.9498100571,20.0680231536,60.8022083489,0.0,10.0,0.0,0.0,0.0,10.0,0.0,0.0,0.0,10.0,0.00599211245268,0.0233026595382,0.00612527050718,1.0,0.0,0.0,0.0,1.0,0.0,0.0,0.0,1.0,-0.686173095703,7.04973999023,8.23766967773,0.1,0.0,0.0,0.0,0.1,0.0,0.0,0.0,0.1
1446040243090896622,603,1446040243087543010,robocape,16.8154208119,20.0555681048,60.4506032288,0.0,10.0,0.0,0.0,0.0,10.0,0.0,0.0,0.0,10.0,0.00652474467069,0.0238352917562,0.00639158661619,1.0,0.0,0.0,0.0,1.0,0.0,0.0,0.0,1.0,-0.682580566406,7.06171508789,8.2388671875,0.1,0.0,0.0,0.0,0.1,0.0,0.0,0.0,0.1
1446040243120048830,604,1446040243117034912,robocape,16.683464962,20.0428388552,60.1033250983,0.0,10.0,0.0,0.0,0.0,10.0,0.0,0.0,0.0,10.0,0.0067910607797,0.0238352917562,0.00625842856169,1.0,0.0,0.0,0.0,1.0,0.0,0.0,0.0,1.0,-0.689765625,7.04614746094,8.24964477539,0.1,0.0,0.0,0.0,0.1,0.0,0.0,0.0,0.1
1446040243154395414,605,1446040243151002883,robocape,16.5531856856,20.0292997236,59.7604036928,0.0,10.0,0.0,0.0,0.0,10.0,0.0,0.0,0.0,10.0,0.0066579027252,0.0235689756472,0.00625842856169,1.0,0.0,0.0,0.0,1.0,0.0,0.0,0.0,1.0,-0.686173095703,7.0545300293,8.25203979492,0.1,0.0,0.0,0.0,0.1,0.0,0.0,0.0,0.1
1446040243186537997,606,1446040243183408021,robocape,16.4236979709,20.0156118071,59.4214749934,0.0,10.0,0.0,0.0,0.0,10.0,0.0,0.0,0.0,10.0,0.00612527050718,0.0235689756472,0.00599211245268,1.0,0.0,0.0,0.0,1.0,0.0,0.0,0.0,1.0,-0.696950683594,7.0509375,8.22569458008,0.1,0.0,0.0,0.0,0.1,0.0,0.0,0.0,0.1
1446040243219718039,607,1446040243216643095,robocape,16.2977064297,20.0009908508,59.0870982986,0.0,10.0,0.0,0.0,0.0,10.0,0.0,0.0,0.0,10.0,0.00692421883421,0.0233026595382,0.00625842856169,1.0,0.0,0.0,0.0,1.0,0.0,0.0,0.0,1.0,-0.681383056641,7.06291259766,8.23168212891,0.1,0.0,0.0,0.0,0.1,0.0,0.0,0.0,0.1
1446040243253558622,608,1446040243250169992,robocape,16.1722007174,19.9871337279,58.7582155292,0.0,10.0,0.0,0.0,0.0,10.0,0.0,0.0,0.0,10.0,0.00599211245268,0.0241016078652,0.00692421883421,1.0,0.0,0.0,0.0,1.0,0.0,0.0,0.0,1.0,-0.674197998047,7.05932006836,8.24006469727,0.1,0.0,0.0,0.0,0.1,0.0,0.0,0.0,0.1
1446040243286347872,609,1446040243283308982,robocape,16.0482891744,19.9731015963,58.431958382,0.0,10.0,0.0,0.0,0.0,10.0,0.0,0.0,0.0,10.0,0.00612527050718,0.0238352917562,0.00599211245268,1.0,0.0,0.0,0.0,1.0,0.0,0.0,0.0,1.0,-0.682580566406,7.04494995117,8.25203979492,0.1,0.0,0.0,0.0,0.1,0.0,0.0,0.0,0.1
1446040243319807664,610,1446040243316674947,robocape,15.9271018821,19.9589069441,58.1095233418,0.0,10.0,0.0,0.0,0.0,10.0,0.0,0.0,0.0,10.0,0.0066579027252,0.0238352917562,0.00585895439817,1.0,0.0,0.0,0.0,1.0,0.0,0.0,0.0,1.0,-0.689765625,7.05812255859,8.25563232422,0.1,0.0,0.0,0.0,0.1,0.0,0.0,0.0,0.1
1446040243355642414,611,1446040243352488994,robocape,15.8059288529,19.9436949531,57.7911521662,0.0,10.0,0.0,0.0,0.0,10.0,0.0,0.0,0.0,10.0,0.00572579634367,0.0234358175927,0.00599211245268,1.0,0.0,0.0,0.0,1.0,0.0,0.0,0.0,1.0,-0.689765625,6.90603881836,8.23407714844,0.1,0.0,0.0,0.0,0.1,0.0,0.0,0.0,0.1
1446040243388602456,612,1446040243385528087,robocape,15.6869248517,19.9280419157,57.4772703966,0.0,10.0,0.0,0.0,0.0,10.0,0.0,0.0,0.0,10.0,0.00585895439817,0.0234358175927,0.00639158661619,1.0,0.0,0.0,0.0,1.0,0.0,0.0,0.0,1.0,-0.689765625,7.05572753906,8.26042236328,0.1,0.0,0.0,0.0,0.1,0.0,0.0,0.0,0.1
1446040243419843456,613,1446040243416716098,robocape,15.5696383538,19.9114067551,57.1672750948,0.0,10.0,0.0,0.0,0.0,10.0,0.0,0.0,0.0,10.0,0.00585895439817,0.0230363434292,0.00652474467069,1.0,0.0,0.0,0.0,1.0,0.0,0.0,0.0,1.0,-0.690963134766,7.05213500977,8.25802734375,0.1,0.0,0.0,0.0,0.1,0.0,0.0,0.0,0.1
1446040243459574039,614,1446040243456283092,robocape,15.4544888624,19.8953981235,56.8609518751,0.0,10.0,0.0,0.0,0.0,10.0,0.0,0.0,0.0,10.0,0.00612527050718,0.0234358175927,0.00639158661619,1.0,0.0,0.0,0.0,1.0,0.0,0.0,0.0,1.0,-0.689765625,7.05692504883,8.25203979492,0.1,0.0,0.0,0.0,0.1,0.0,0.0,0.0,0.1
1446040243492400247,615,1446040243489267110,robocape,15.3401013958,19.8788994492,56.5571768311,0.0,10.0,0.0,0.0,0.0,10.0,0.0,0.0,0.0,10.0,0.00585895439817,0.0230363434292,0.00572579634367,1.0,0.0,0.0,0.0,1.0,0.0,0.0,0.0,1.0,-0.702938232422,7.04614746094,8.26760742188,0.1,0.0,0.0,0.0,0.1,0.0,0.0,0.0,0.1
1446040243524552831,616,1446040243521541118,robocape,15.2281545187,19.8633848084,56.2580847674,0.0,10.0,0.0,0.0,0.0,10.0,0.0,0.0,0.0,10.0,0.00612527050718,0.0238352917562,0.00625842856169,1.0,0.0,0.0,0.0,1.0,0.0,0.0,0.0,1.0,-0.690963134766,7.0509375,8.24964477539,0.1,0.0,0.0,0.0,0.1,0.0,0.0,0.0,0.1
1446040243553453164,617,1446040243550394058,robocape,15.1167682019,19.8482797063,55.961777939,0.0,10.0,0.0,0.0,0.0,10.0,0.0,0.0,0.0,10.0,0.00572579634367,0.0239684498107,0.00572579634367,1.0,0.0,0.0,0.0,1.0,0.0,0.0,0.0,1.0,-0.696950683594,7.0473449707,8.22689208984,0.1,0.0,0.0,0.0,0.1,0.0,0.0,0.0,0.1
1446040243586438289,618,1446040243583403110,robocape,15.0081221059,19.8322763384,55.6703229989,0.0,10.0,0.0,0.0,0.0,10.0,0.0,0.0,0.0,10.0,0.00612527050718,0.0238352917562,0.0066579027252,1.0,0.0,0.0,0.0,1.0,0.0,0.0,0.0,1.0,-0.692160644531,7.0509375,8.2388671875,0.1,0.0,0.0,0.0,0.1,0.0,0.0,0.0,0.1
1446040243622084164,619,1446040243618952035,robocape,14.9011129911,19.8160147809,55.3826869078,0.0,10.0,0.0,0.0,0.0,10.0,0.0,0.0,0.0,10.0,0.00612527050718,0.0238352917562,0.00692421883421,1.0,0.0,0.0,0.0,1.0,0.0,0.0,0.0,1.0,-0.683778076172,7.04973999023,8.22689208984,0.1,0.0,0.0,0.0,0.1,0.0,0.0,0.0,0.1
1446040243653476456,620,1446040243650419950,robocape,14.7950771642,19.8007366616,55.096840552,0.0,10.0,0.0,0.0,0.0,10.0,0.0,0.0,0.0,10.0,0.00612527050718,0.0241016078652,0.00585895439817,1.0,0.0,0.0,0.0,1.0,0.0,0.0,0.0,1.0,-0.694555664063,7.05213500977,8.22808959961,0.1,0.0,0.0,0.0,0.1,0.0,0.0,0.0,0.1
1446040243686486497,621,1446040243683353900,robocape,14.6912595475,19.7856046203,54.8143177105,0.0,10.0,0.0,0.0,0.0,10.0,0.0,0.0,0.0,10.0,0.00652474467069,0.0242347659197,0.00585895439817,1.0,0.0,0.0,0.0,1.0,0.0,0.0,0.0,1.0,-0.689765625,7.05213500977,8.23048461914,0.1,0.0,0.0,0.0,0.1,0.0,0.0,0.0,0.1
1446040243719881706,622,1446040243716835975,robocape,14.5893644046,19.7683400084,54.5357660061,0.0,10.0,0.0,0.0,0.0,10.0,0.0,0.0,0.0,10.0,0.0066579027252,0.0233026595382,0.00652474467069,1.0,0.0,0.0,0.0,1.0,0.0,0.0,0.0,1.0,-0.688568115234,7.04375244141,8.24485473633,0.1,0.0,0.0,0.0,0.1,0.0,0.0,0.0,0.1
1446040243758137956,623,1446040243752036094,robocape,14.488123159,19.7517902105,54.2596585762,0.0,10.0,0.0,0.0,0.0,10.0,0.0,0.0,0.0,10.0,0.00639158661619,0.0235689756472,0.00599211245268,1.0,0.0,0.0,0.0,1.0,0.0,0.0,0.0,1.0,-0.681383056641,7.04614746094,8.27479248047,0.1,0.0,0.0,0.0,0.1,0.0,0.0,0.0,0.1
1446040243794228664,624,1446040243790947914,robocape,14.3874296584,19.7344838665,53.9872357074,0.0,10.0,0.0,0.0,0.0,10.0,0.0,0.0,0.0,10.0,0.00585895439817,0.0233026595382,0.00639158661619,1.0,0.0,0.0,0.0,1.0,0.0,0.0,0.0,1.0,-0.690963134766,7.06291259766,8.2388671875,0.1,0.0,0.0,0.0,0.1,0.0,0.0,0.0,0.1
