%time,field.header.seq,field.header.stamp,field.header.frame_id,field.orientation.x,field.orientation.y,field.orientation.z,field.orientation.w,field.orientation_covariance0,field.orientation_covariance1,field.orientation_covariance2,field.orientation_covariance3,field.orientation_covariance4,field.orientation_covariance5,field.orientation_covariance6,field.orientation_covariance7,field.orientation_covariance8,field.angular_velocity.x,field.angular_velocity.y,field.angular_velocity.z,field.angular_velocity_covariance0,field.angular_velocity_covariance1,field.angular_velocity_covariance2,field.angular_velocity_covariance3,field.angular_velocity_covariance4,field.angular_velocity_covariance5,field.angular_velocity_covariance6,field.angular_velocity_covariance7,field.angular_velocity_covariance8,field.linear_acceleration.x,field.linear_acceleration.y,field.linear_acceleration.z,field.linear_acceleration_covariance0,field.linear_acceleration_covariance1,field.linear_acceleration_covariance2,field.linear_acceleration_covariance3,field.linear_acceleration_covariance4,field.linear_acceleration_covariance5,field.linear_acceleration_covariance6,field.linear_acceleration_covariance7,field.linear_acceleration_covariance8
1446040749711383364,1545,1446040749630544900,robocape,15.5418939402,17.1765263785,39.019347981,0.0,10.0,0.0,0.0,0.0,10.0,0.0,0.0,0.0,10.0,-2.5439846313,0.348474628637,-1.40535010723,1.0,0.0,0.0,0.0,1.0,0.0,0.0,0.0,1.0,-4.37330566406,-4.9085925293,3.83682128906,0.1,0.0,0.0,0.0,0.1,0.0,0.0,0.0,0.1
1446040749711499947,1546,1446040749680562973,robocape,20.3120698044,18.3465573857,36.7142918507,0.0,10.0,0.0,0.0,0.0,10.0,0.0,0.0,0.0,10.0,2.8796760867,0.247274507214,-1.25621308619,1.0,0.0,0.0,0.0,1.0,0.0,0.0,0.0,1.0,-1.26576782227,-4.06674316406,10.4147424316,0.1,0.0,0.0,0.0,0.1,0.0,0.0,0.0,0.1
1446040749746095405,1547,1446040749722860097,robocape,28.1749031584,18.2130904379,36.0041574441,0.0,10.0,0.0,0.0,0.0,10.0,0.0,0.0,0.0,10.0,4.36318997193,-0.0739027202497,-0.108523814421,1.0,0.0,0.0,0.0,1.0,0.0,0.0,0.0,1.0,-2.6441015625,-0.439486083984,6.62342651367,0.1,0.0,0.0,0.0,0.1,0.0,0.0,0.0,0.1
1446040749777055572,1548,1446040749761876106,robocape,36.011378584,17.4249452725,36.1997212044,0.0,10.0,0.0,0.0,0.0,10.0,0.0,0.0,0.0,10.0,4.36318997193,-0.0463390029674,0.611195470173,1.0,0.0,0.0,0.0,1.0,0.0,0.0,0.0,1.0,-3.70629272461,0.445473632813,2.39142700195,0.1,0.0,0.0,0.0,0.1,0.0,0.0,0.0,0.1
1446040749810918947,1549,1446040749807790994,robocape,43.1890498082,16.7621958181,37.8702530683,0.0,10.0,0.0,0.0,0.0,10.0,0.0,0.0,0.0,10.0,4.02110692991,0.673513439681,1.31719947515,1.0,0.0,0.0,0.0,1.0,0.0,0.0,0.0,1.0,1.20828735352,6.33123413086,11.8242114258,0.1,0.0,0.0,0.0,0.1,0.0,0.0,0.0,0.1
1446040749844554280,1550,1446040749841213941,robocape,48.0028983012,14.8136204614,39.2488866702,0.0,10.0,0.0,0.0,0.0,10.0,0.0,0.0,0.0,10.0,2.86209922351,0.172040206419,1.64210512814,1.0,0.0,0.0,0.0,1.0,0.0,0.0,0.0,1.0,-4.46910644531,3.65120727539,8.89749755859,0.1,0.0,0.0,0.0,0.1,0.0,0.0,0.0,0.1
1446040749886241280,1551,1446040749882175922,robocape,48.9929544556,13.8862850232,42.4083813927,0.0,10.0,0.0,0.0,0.0,10.0,0.0,0.0,0.0,10.0,0.537292749923,1.20401512882,1.77166791518,1.0,0.0,0.0,0.0,1.0,0.0,0.0,0.0,1.0,6.95154418945,9.78844482422,19.6194012451,0.1,0.0,0.0,0.0,0.1,0.0,0.0,0.0,0.1
1446040749920275697,1552,1446040749917246103,robocape,46.2261290236,14.3180128732,46.0632538603,0.0,10.0,0.0,0.0,0.0,10.0,0.0,0.0,0.0,10.0,-1.75742000334,1.66114672994,1.23317674276,1.0,0.0,0.0,0.0,1.0,0.0,0.0,0.0,1.0,-8.35981567383,12.124786377,14.6730871582,0.1,0.0,0.0,0.0,0.1,0.0,0.0,0.0,0.1
1446040749954762364,1553,1446040749951518058,robocape,42.7620529079,15.5613281009,48.1712795791,0.0,10.0,0.0,0.0,0.0,10.0,0.0,0.0,0.0,10.0,-2.06341721259,1.24742465459,0.344746203111,1.0,0.0,0.0,0.0,1.0,0.0,0.0,0.0,1.0,-4.92895019531,5.61512329102,5.03672607422,0.1,0.0,0.0,0.0,0.1,0.0,0.0,0.0,0.1
1446040749989978697,1554,1446040749986872911,robocape,38.5790282201,15.8475092341,48.9820052348,0.0,10.0,0.0,0.0,0.0,10.0,0.0,0.0,0.0,10.0,-2.34984018783,0.332628820151,0.152998604625,1.0,0.0,0.0,0.0,1.0,0.0,0.0,0.0,1.0,-6.33362915039,2.86085083008,7.34312988281,0.1,0.0,0.0,0.0,0.1,0.0,0.0,0.0,0.1
1446040750020941114,1555,1446040750017755031,robocape,33.9986633918,16.598104903,50.3480171704,0.0,10.0,0.0,0.0,0.0,10.0,0.0,0.0,0.0,10.0,-2.60323996555,0.719452968485,0.315318273065,1.0,0.0,0.0,0.0,1.0,0.0,0.0,0.0,1.0,-7.40420288086,4.0655456543,9.68665649414,0.1,0.0,0.0,0.0,0.1,0.0,0.0,0.0,0.1
1446040750054920655,1556,1446040750051913022,robocape,29.0184261383,15.5995711215,50.4925158143,0.0,10.0,0.0,0.0,0.0,10.0,0.0,0.0,0.0,10.0,-2.67208267973,-0.469515300181,0.241948185034,1.0,0.0,0.0,0.0,1.0,0.0,0.0,0.0,1.0,-5.0930090332,-0.150886230469,2.16749267578,0.1,0.0,0.0,0.0,0.1,0.0,0.0,0.0,0.1
1446040750089979989,1557,1446040750086817026,robocape,26.2755511116,16.3207808915,49.998907922,0.0,10.0,0.0,0.0,0.0,10.0,0.0,0.0,0.0,10.0,-1.3703295389,0.211588148607,-0.407996279,1.0,0.0,0.0,0.0,1.0,0.0,0.0,0.0,1.0,3.63084960938,-0.704135742188,16.9399731445,0.1,0.0,0.0,0.0,0.1,0.0,0.0,0.0,0.1
1446040750125008572,1558,1446040750121273040,robocape,26.0566402438,15.9466440708,48.9450080758,0.0,10.0,0.0,0.0,0.0,10.0,0.0,0.0,0.0,10.0,0.0503337446025,-0.392549944678,-0.35979306327,1.0,0.0,0.0,0.0,1.0,0.0,0.0,0.0,1.0,3.2536340332,-1.25738525391,13.0552514648,0.1,0.0,0.0,0.0,0.1,0.0,0.0,0.0,0.1
1446040750159053572,1559,1446040750155672073,robocape,27.3512615476,15.8365155848,48.8104603966,0.0,10.0,0.0,0.0,0.0,10.0,0.0,0.0,0.0,10.0,0.768721448651,0.015313176268,0.133690686722,1.0,0.0,0.0,0.0,1.0,0.0,0.0,0.0,1.0,0.152083740234,0.346080322266,10.7763903809,0.1,0.0,0.0,0.0,0.1,0.0,0.0,0.0,0.1
1446040750195000739,1560,1446040750191298007,robocape,28.311410751,15.4800921387,49.1151793902,0.0,10.0,0.0,0.0,0.0,10.0,0.0,0.0,0.0,10.0,0.548211710393,0.0234358175927,0.422510506941,1.0,0.0,0.0,0.0,1.0,0.0,0.0,0.0,1.0,-0.656235351563,4.66669555664,9.84712280273,0.1,0.0,0.0,0.0,0.1,0.0,0.0,0.0,0.1
1446040750228878239,1561,1446040750225765943,robocape,27.1753930865,15.8665010948,49.8704025906,0.0,10.0,0.0,0.0,0.0,10.0,0.0,0.0,0.0,10.0,-0.633299707221,0.45500107224,0.406531540401,1.0,0.0,0.0,0.0,1.0,0.0,0.0,0.0,1.0,12.093651123,7.79459106445,19.451151123,0.1,0.0,0.0,0.0,0.1,0.0,0.0,0.0,0.1
1446040750261530447,1562,1446040750258363962,robocape,27.0959238417,14.2555993981,50.1579787641,0.0,10.0,0.0,0.0,0.0,10.0,0.0,0.0,0.0,10.0,-0.0170442309765,-0.59721387445,0.67377975579,1.0,0.0,0.0,0.0,1.0,0.0,0.0,0.0,1.0,-4.0966809082,2.96024414063,9.94172607422,0.1,0.0,0.0,0.0,0.1,0.0,0.0,0.0,0.1
1446040750294532822,1563,1446040750291141033,robocape,26.9132935049,14.321405163,50.1297974104,0.0,10.0,0.0,0.0,0.0,10.0,0.0,0.0,0.0,10.0,-0.0363521488796,0.0974716958969,0.10612696944,1.0,0.0,0.0,0.0,1.0,0.0,0.0,0.0,1.0,3.11113037109,-1.04782104492,13.2157177734,0.1,0.0,0.0,0.0,0.1,0.0,0.0,0.0,0.1
1446040750326161406,1564,1446040750322707891,robocape,26.9052862131,14.1856105315,50.4504675097,0.0,10.0,0.0,0.0,0.0,10.0,0.0,0.0,0.0,10.0,0.0263652947918,0.105328021113,0.353534634708,1.0,0.0,0.0,0.0,1.0,0.0,0.0,0.0,1.0,0.193996582031,3.49433349609,8.01972290039,0.1,0.0,0.0,0.0,0.1,0.0,0.0,0.0,0.1
1446040750361166864,1565,1446040750357996940,robocape,25.1584764861,14.5305197441,51.7962028108,0.0,10.0,0.0,0.0,0.0,10.0,0.0,0.0,0.0,10.0,-1.01200121423,0.578971220983,0.749413530748,1.0,0.0,0.0,0.0,1.0,0.0,0.0,0.0,1.0,1.19631225586,6.6294140625,14.3784997559,0.1,0.0,0.0,0.0,0.1,0.0,0.0,0.0,0.1
1446040750396734822,1566,1446040750393091917,robocape,20.7734955368,16.8297250201,53.7576567708,0.0,10.0,0.0,0.0,0.0,10.0,0.0,0.0,0.0,10.0,-2.51935039121,1.61973457499,0.66166237283,1.0,0.0,0.0,0.0,1.0,0.0,0.0,0.0,1.0,4.67268310547,6.1276574707,13.8611755371,0.1,0.0,0.0,0.0,0.1,0.0,0.0,0.0,0.1
1446040750426906656,1567,1446040750423736095,robocape,15.2332828963,17.1552892295,54.3134437295,0.0,10.0,0.0,0.0,0.0,10.0,0.0,0.0,0.0,10.0,-2.97754725676,0.294279300454,0.302668257888,1.0,0.0,0.0,0.0,1.0,0.0,0.0,0.0,1.0,3.80808105469,6.23064331055,7.20541625977,0.1,0.0,0.0,0.0,0.1,0.0,0.0,0.0,0.1
1446040750457453322,1568,1446040750454364061,robocape,8.34435705172,16.9861961922,54.0158984867,0.0,10.0,0.0,0.0,0.0,10.0,0.0,0.0,0.0,10.0,-3.56570638351,-0.104395914731,-0.0988032764419,1.0,0.0,0.0,0.0,1.0,0.0,0.0,0.0,1.0,4.0583605957,2.92072631836,6.33362915039,0.1,0.0,0.0,0.0,0.1,0.0,0.0,0.0,0.1
1446040750491965197,1569,1446040750488810062,robocape,1.12630768558,16.8448655643,52.9306689227,0.0,10.0,0.0,0.0,0.0,10.0,0.0,0.0,0.0,10.0,-3.62243171473,-0.107192233876,-0.505734291006,1.0,0.0,0.0,0.0,1.0,0.0,0.0,0.0,1.0,-0.416733398438,1.75075927734,8.85318969727,0.1,0.0,0.0,0.0,0.1,0.0,0.0,0.0,0.1
1446040750526997989,1570,1446040750523710966,robocape,-6.27096381754,16.6603253515,51.1444307094,0.0,10.0,0.0,0.0,0.0,10.0,0.0,0.0,0.0,10.0,-3.62149960834,-0.0398142582967,-0.848083649136,1.0,0.0,0.0,0.0,1.0,0.0,0.0,0.0,1.0,-1.75794433594,0.696950683594,8.20533691406,0.1,0.0,0.0,0.0,0.1,0.0,0.0,0.0,0.1
1446040750560336281,1571,1446040750557166099,robocape,-13.7999483228,16.3962577356,48.6345429753,0.0,10.0,0.0,0.0,0.0,10.0,0.0,0.0,0.0,10.0,-3.6037895871,0.104262756677,-1.18790300423,1.0,0.0,0.0,0.0,1.0,0.0,0.0,0.0,1.0,0.553249511719,2.069296875,8.32029785156,0.1,0.0,0.0,0.0,0.1,0.0,0.0,0.0,0.1
1446040750592344322,1572,1446040750589308023,robocape,-19.6330717315,14.9268836108,46.1587289887,0.0,10.0,0.0,0.0,0.0,10.0,0.0,0.0,0.0,10.0,-2.73666433617,-0.367116756267,-1.35927742038,1.0,0.0,0.0,0.0,1.0,0.0,0.0,0.0,1.0,-12.7187512207,-0.621507568359,2.93030639648,0.1,0.0,0.0,0.0,0.1,0.0,0.0,0.0,0.1
1446040750627134989,1573,1446040750623610973,robocape,-29.8286563269,18.148800875,38.116814401,0.0,10.0,0.0,0.0,0.0,10.0,0.0,0.0,0.0,10.0,-4.18063027921,3.24546126243,-2.92521614134,1.0,0.0,0.0,0.0,1.0,0.0,0.0,0.0,1.0,18.7625830078,9.21124511719,7.05033874512,0.1,0.0,0.0,0.0,0.1,0.0,0.0,0.0,0.1
1446040750660073239,1574,1446040750656893968,robocape,-28.9339265904,18.8817223838,33.407165986,0.0,10.0,0.0,0.0,0.0,10.0,0.0,0.0,0.0,10.0,1.46433912538,1.41760064825,-2.10283199673,1.0,0.0,0.0,0.0,1.0,0.0,0.0,0.0,1.0,5.9049206543,-4.73255859375,1.81063476563,0.1,0.0,0.0,0.0,0.1,0.0,0.0,0.0,0.1
1446040750695491656,1575,1446040750692420959,robocape,-22.7817097217,19.7017957714,30.5816966761,0.0,10.0,0.0,0.0,0.0,10.0,0.0,0.0,0.0,10.0,3.99474163512,0.878044211399,-1.44050383362,1.0,0.0,0.0,0.0,1.0,0.0,0.0,0.0,1.0,0.711320800781,-8.05445068359,18.3949475098,0.1,0.0,0.0,0.0,0.1,0.0,0.0,0.0,0.1
1446040750733412989,1576,1446040750730410099,robocape,-15.0968047682,19.0812370596,29.6783145378,0.0,10.0,0.0,0.0,0.0,10.0,0.0,0.0,0.0,10.0,4.36318997193,-0.276036646987,-0.82131888018,1.0,0.0,0.0,0.0,1.0,0.0,0.0,0.0,1.0,1.74357421875,0.914897460938,-1.42982666016,0.1,0.0,0.0,0.0,0.1,0.0,0.0,0.0,0.1
1446040750764001614,1577,1446040750760927915,robocape,-6.64536868317,19.7012479401,30.3272988581,0.0,10.0,0.0,0.0,0.0,10.0,0.0,0.0,0.0,10.0,4.36318997193,0.202533400901,0.256196096866,1.0,0.0,0.0,0.0,1.0,0.0,0.0,0.0,1.0,-1.70525390625,-0.578397216797,3.94100463867,0.1,0.0,0.0,0.0,0.1,0.0,0.0,0.0,0.1
1446040750801810406,1578,1446040750798672914,robocape,2.67823679888,19.6262350515,33.2892661165,0.0,10.0,0.0,0.0,0.0,10.0,0.0,0.0,0.0,10.0,4.36318997193,-0.0691090302876,1.5032212773,1.0,0.0,0.0,0.0,1.0,0.0,0.0,0.0,1.0,2.35789672852,0.349672851562,1.47413452148,0.1,0.0,0.0,0.0,0.1,0.0,0.0,0.0,0.1
1446040750830973239,1579,1446040750827756881,robocape,12.3508954126,19.5740646614,37.5081657807,0.0,10.0,0.0,0.0,0.0,10.0,0.0,0.0,0.0,10.0,4.36318997193,0.381630984208,2.31601804199,1.0,0.0,0.0,0.0,1.0,0.0,0.0,0.0,1.0,4.45473632813,2.835703125,4.3337878418,0.1,0.0,0.0,0.0,0.1,0.0,0.0,0.0,0.1
1446040750861049698,1580,1446040750857817888,robocape,22.1057679115,18.8935812786,42.8184533703,0.0,10.0,0.0,0.0,0.0,10.0,0.0,0.0,0.0,10.0,4.36318997193,0.737029831679,3.12322216839,1.0,0.0,0.0,0.0,1.0,0.0,0.0,0.0,1.0,17.8512780762,19.6194012451,4.16972900391,0.1,0.0,0.0,0.0,0.1,0.0,0.0,0.0,0.1
1446040750893845614,1581,1446040750890744924,robocape,27.1677951319,21.3729908786,51.2507374174,0.0,10.0,0.0,0.0,0.0,10.0,0.0,0.0,0.0,10.0,1.47299439892,3.58687851417,4.19168239773,1.0,0.0,0.0,0.0,1.0,0.0,0.0,0.0,1.0,3.42727294922,19.487076416,19.5744946289,0.1,0.0,0.0,0.0,0.1,0.0,0.0,0.0,0.1
1446040750925439823,1582,1446040750922314882,robocape,22.7431001367,26.0031395194,58.5916868043,0.0,10.0,0.0,0.0,0.0,10.0,0.0,0.0,0.0,10.0,-3.71524287872,4.35879575613,3.03094363662,1.0,0.0,0.0,0.0,1.0,0.0,0.0,0.0,1.0,-7.21020629883,19.6194012451,19.6194012451,0.1,0.0,0.0,0.0,0.1,0.0,0.0,0.0,0.1
1446040750955276073,1583,1446040750952230930,robocape,16.1609402358,26.1609923264,62.5248121043,0.0,10.0,0.0,0.0,0.0,10.0,0.0,0.0,0.0,10.0,-4.36332312999,1.11866081589,2.36834915741,1.0,0.0,0.0,0.0,1.0,0.0,0.0,0.0,1.0,-3.73383544922,-2.16869018555,8.73942626953,0.1,0.0,0.0,0.0,0.1,0.0,0.0,0.0,0.1
1446040750988533906,1584,1446040750984985113,robocape,8.18006453909,25.3736797215,63.1329784553,0.0,10.0,0.0,0.0,0.0,10.0,0.0,0.0,0.0,10.0,-4.36332312999,-0.176967054436,0.677108707153,1.0,0.0,0.0,0.0,1.0,0.0,0.0,0.0,1.0,-6.49289794922,-2.7243347168,-1.25499023438,0.1,0.0,0.0,0.0,0.1,0.0,0.0,0.0,0.1
1446040751023866823,1585,1446040751020800113,robocape,-0.248220644794,25.5132410652,62.5249079837,0.0,10.0,0.0,0.0,0.0,10.0,0.0,0.0,0.0,10.0,-4.36332312999,0.208259197244,0.0483363737849,1.0,0.0,0.0,0.0,1.0,0.0,0.0,0.0,1.0,-1.01069824219,0.702938232422,-7.8137512207,0.1,0.0,0.0,0.0,0.1,0.0,0.0,0.0,0.1
1446040751056745406,1586,1446040751053618907,robocape,-9.34193185708,25.5420283573,60.3093644327,0.0,10.0,0.0,0.0,0.0,10.0,0.0,0.0,0.0,10.0,-4.36332312999,0.204663929773,-0.779507251066,1.0,0.0,0.0,0.0,1.0,0.0,0.0,0.0,1.0,1.66813110352,4.18290161133,-4.72776855469,0.1,0.0,0.0,0.0,0.1,0.0,0.0,0.0,0.1
1446040751091908031,1587,1446040751088745117,robocape,-20.1455526212,24.1294984059,54.7267178548,0.0,10.0,0.0,0.0,0.0,10.0,0.0,0.0,0.0,10.0,-4.36332312999,-0.085087996828,-2.90364453651,1.0,0.0,0.0,0.0,1.0,0.0,0.0,0.0,1.0,10.4865930176,-19.62,14.9592919922,0.1,0.0,0.0,0.0,0.1,0.0,0.0,0.0,0.1
1446040751121109781,1588,1446040751117620944,robocape,-19.6188969132,29.0760517188,46.1247622248,0.0,10.0,0.0,0.0,0.0,10.0,0.0,0.0,0.0,10.0,2.64664949132,3.55571952942,-3.62176592445,1.0,0.0,0.0,0.0,1.0,0.0,0.0,0.0,1.0,17.2908435059,-19.62,19.6194012451,0.1,0.0,0.0,0.0,0.1,0.0,0.0,0.0,0.1
1446040751156431073,1589,1446040751153305053,robocape,-17.0322395239,33.3110491681,36.4552976299,0.0,10.0,0.0,0.0,0.0,10.0,0.0,0.0,0.0,10.0,4.36318997193,3.05983893445,-4.14214760145,1.0,0.0,0.0,0.0,1.0,0.0,0.0,0.0,1.0,-1.30528564453,-8.7717590332,2.27047851563,0.1,0.0,0.0,0.0,0.1,0.0,0.0,0.0,0.1
1446040751187343281,1590,1446040751184211015,robocape,-13.8675344207,36.4264967073,28.1717580306,0.0,10.0,0.0,0.0,0.0,10.0,0.0,0.0,0.0,10.0,4.36318997193,2.17700103309,-3.39672881234,1.0,0.0,0.0,0.0,1.0,0.0,0.0,0.0,1.0,-13.2468530273,-10.1357226563,-3.33626220703,0.1,0.0,0.0,0.0,0.1,0.0,0.0,0.0,0.1
1446040751222369323,1591,1446040751218924999,robocape,-7.2318567784,36.708001252,25.6791880845,0.0,10.0,0.0,0.0,0.0,10.0,0.0,0.0,0.0,10.0,4.36318997193,0.101466437532,-1.21919514704,1.0,0.0,0.0,0.0,1.0,0.0,0.0,0.0,1.0,-6.48691040039,-5.58398803711,-5.40076904297,0.1,0.0,0.0,0.0,0.1,0.0,0.0,0.0,0.1
1446040751252061406,1592,1446040751248696088,robocape,0.988467246522,36.1120141873,25.6110940218,0.0,10.0,0.0,0.0,0.0,10.0,0.0,0.0,0.0,10.0,4.36318997193,-0.452471069204,-0.158324926805,1.0,0.0,0.0,0.0,1.0,0.0,0.0,0.0,1.0,-1.19032470703,-1.58550292969,-10.7260949707,0.1,0.0,0.0,0.0,0.1,0.0,0.0,0.0,0.1
1446040751281814281,1593,1446040751278769016,robocape,11.033437788,32.9809586338,28.6491041384,0.0,10.0,0.0,0.0,0.0,10.0,0.0,0.0,0.0,10.0,4.36318997193,-1.55914766019,1.42838645066,1.0,0.0,0.0,0.0,1.0,0.0,0.0,0.0,1.0,-2.32795898438,0.613125,-11.6613500977,0.1,0.0,0.0,0.0,0.1,0.0,0.0,0.0,0.1
1446040751318545406,1594,1446040751315474987,robocape,22.334760041,36.1615067181,38.8711318288,0.0,10.0,0.0,0.0,0.0,10.0,0.0,0.0,0.0,10.0,3.02108994059,3.63734541683,4.36318997193,1.0,0.0,0.0,0.0,1.0,0.0,0.0,0.0,1.0,19.6194012451,16.5926953125,19.6194012451,0.1,0.0,0.0,0.0,0.1,0.0,0.0,0.0,0.1
1446040751350310281,1595,1446040751347191095,robocape,26.2459384079,39.8817279611,47.9496416634,0.0,10.0,0.0,0.0,0.0,10.0,0.0,0.0,0.0,10.0,-0.732502457826,4.34867574399,3.37675510417,1.0,0.0,0.0,0.0,1.0,0.0,0.0,0.0,1.0,0.0419128417969,19.6194012451,19.6194012451,0.1,0.0,0.0,0.0,0.1,0.0,0.0,0.0,0.1
1446040751385219031,1596,1446040751382054090,robocape,25.0560983144,42.3695096372,58.7416833684,0.0,10.0,0.0,0.0,0.0,10.0,0.0,0.0,0.0,10.0,-4.36332312999,4.36318997193,4.36318997193,1.0,0.0,0.0,0.0,1.0,0.0,0.0,0.0,1.0,0.15328125,4.81398925781,-4.70860839844,0.1,0.0,0.0,0.0,0.1,0.0,0.0,0.0,0.1
1446040751419993031,1597,1446040751416692972,robocape,23.7332457976,44.8306637584,68.3029029756,0.0,10.0,0.0,0.0,0.0,10.0,0.0,0.0,0.0,10.0,-4.36332312999,4.36318997193,4.36318997193,1.0,0.0,0.0,0.0,1.0,0.0,0.0,0.0,1.0,4.31103515625,11.020682373,-5.73008422852,0.1,0.0,0.0,0.0,0.1,0.0,0.0,0.0,0.1
1446040751451322698,1598,1446040751448262929,robocape,22.2677086199,47.3262392495,76.5962409604,0.0,10.0,0.0,0.0,0.0,10.0,0.0,0.0,0.0,10.0,-4.36332312999,4.36318997193,4.36318997193,1.0,0.0,0.0,0.0,1.0,0.0,0.0,0.0,1.0,-9.19807250977,-8.51189941406,18.1123352051,0.1,0.0,0.0,0.0,0.1,0.0,0.0,0.0,0.1
1446040751480416281,1599,1446040751477294921,robocape,11.7600981131,46.7125836068,73.4502195491,0.0,10.0,0.0,0.0,0.0,10.0,0.0,0.0,0.0,10.0,-4.36332312999,-0.484162686176,-0.801877804223,1.0,0.0,0.0,0.0,1.0,0.0,0.0,0.0,1.0,-14.8658862305,7.84009643555,-4.64753540039,0.1,0.0,0.0,0.0,0.1,0.0,0.0,0.0,0.1
1446040751514364406,1600,1446040751511204957,robocape,0.457832078845,46.8747196745,69.0261866778,0.0,10.0,0.0,0.0,0.0,10.0,0.0,0.0,0.0,10.0,-4.36332312999,0.136353847812,-1.2962936606,1.0,0.0,0.0,0.0,1.0,0.0,0.0,0.0,1.0,2.3722668457,-0.417930908203,-12.2026245117,0.1,0.0,0.0,0.0,0.1,0.0,0.0,0.0,0.1
1446040751546025531,1601,1446040751542948961,robocape,-11.4163710876,46.6965494598,63.5890396542,0.0,10.0,0.0,0.0,0.0,10.0,0.0,0.0,0.0,10.0,-4.36332312999,0.352602528326,-1.56780293373,1.0,0.0,0.0,0.0,1.0,0.0,0.0,0.0,1.0,0.639470214844,-0.447868652344,-8.60291015625,0.1,0.0,0.0,0.0,0.1,0.0,0.0,0.0,0.1
1446040751577021490,1602,1446040751573698043,robocape,-18.0234251354,43.5088340403,55.4977018881,0.0,10.0,0.0,0.0,0.0,10.0,0.0,0.0,0.0,10.0,0.188418647123,-1.46274122873,-4.36332312999,1.0,0.0,0.0,0.0,1.0,0.0,0.0,0.0,1.0,7.82931884766,-19.62,2.80935791016,0.1,0.0,0.0,0.0,0.1,0.0,0.0,0.0,0.1
1446040751611965573,1603,1446040751608865976,robocape,-33.124496506,42.952936337,43.3837638879,0.0,10.0,0.0,0.0,0.0,10.0,0.0,0.0,0.0,10.0,-3.51111158116,1.70056151407,-4.36332312999,1.0,0.0,0.0,0.0,1.0,0.0,0.0,0.0,1.0,15.4808074951,-11.3559851074,17.2920410156,0.1,0.0,0.0,0.0,0.1,0.0,0.0,0.0,0.1
1446040751644723698,1604,1446040751641438007,robocape,-46.8999279424,40.6652689802,31.0962847524,0.0,10.0,0.0,0.0,0.0,10.0,0.0,0.0,0.0,10.0,-3.01576361841,2.23692215761,-4.36332312999,1.0,0.0,0.0,0.0,1.0,0.0,0.0,0.0,1.0,7.95266235352,4.9397277832,-6.68210449219,0.1,0.0,0.0,0.0,0.1,0.0,0.0,0.0,0.1
1446040751680322740,1605,1446040751676995038,robocape,-62.0293888245,37.3811303456,16.7568093495,0.0,10.0,0.0,0.0,0.0,10.0,0.0,0.0,0.0,10.0,-3.88941361401,4.14121549507,-4.36332312999,1.0,0.0,0.0,0.0,1.0,0.0,0.0,0.0,1.0,4.31702270508,-1.23104003906,-3.82245117188,0.1,0.0,0.0,0.0,0.1,0.0,0.0,0.0,0.1
1446040751723171990,1606,1446040751719877958,robocape,-69.8352745462,33.0489052459,3.38838235323,0.0,10.0,0.0,0.0,0.0,10.0,0.0,0.0,0.0,10.0,-0.136487005867,4.36318997193,-4.36332312999,1.0,0.0,0.0,0.0,1.0,0.0,0.0,0.0,1.0,15.2323242188,-19.62,19.6194012451,0.1,0.0,0.0,0.0,0.1,0.0,0.0,0.0,0.1
1446040751752175240,1607,1446040751749109983,robocape,-70.1758123351,28.922621275,-9.82001859912,0.0,10.0,0.0,0.0,0.0,10.0,0.0,0.0,0.0,10.0,4.30646464071,4.36318997193,-4.30406779573,1.0,0.0,0.0,0.0,1.0,0.0,0.0,0.0,1.0,8.12270874023,-18.3386645508,-13.294753418,0.1,0.0,0.0,0.0,0.1,0.0,0.0,0.0,0.1
1446040751780131073,1608,1446040751776973962,robocape,-69.4589075632,24.1589786496,-22.1773202698,0.0,10.0,0.0,0.0,0.0,10.0,0.0,0.0,0.0,10.0,3.65372385753,4.36318997193,-4.36332312999,1.0,0.0,0.0,0.0,1.0,0.0,0.0,0.0,1.0,0.816701660156,-4.17571655273,-10.1465002441,0.1,0.0,0.0,0.0,0.1,0.0,0.0,0.0,0.1
1446040751814449615,1609,1446040751811306953,robocape,-65.9078503795,22.4823717944,-33.0713443413,0.0,10.0,0.0,0.0,0.0,10.0,0.0,0.0,0.0,10.0,4.36318997193,4.36318997193,-2.77354911726,1.0,0.0,0.0,0.0,1.0,0.0,0.0,0.0,1.0,-19.6080249023,6.78389282227,7.20421875,0.1,0.0,0.0,0.0,0.1,0.0,0.0,0.0,0.1
1446040751844173365,1610,1446040751840646982,robocape,-62.0799607336,20.946093003,-34.5441714454,0.0,10.0,0.0,0.0,0.0,10.0,0.0,0.0,0.0,10.0,2.56169465255,0.0961401153519,-0.946221135305,1.0,0.0,0.0,0.0,1.0,0.0,0.0,0.0,1.0,-0.247884521484,-15.2610644531,15.8430541992,0.1,0.0,0.0,0.0,0.1,0.0,0.0,0.0,0.1
1446040751875469115,1611,1446040751872354984,robocape,-57.161794826,20.5920949898,-34.3259457085,0.0,10.0,0.0,0.0,0.0,10.0,0.0,0.0,0.0,10.0,2.96809303489,-0.504269552407,0.067910607797,1.0,0.0,0.0,0.0,1.0,0.0,0.0,0.0,1.0,-0.330512695313,-2.48243774414,2.90396118164,0.1,0.0,0.0,0.0,0.1,0.0,0.0,0.0,0.1
1446040751910091365,1612,1446040751906941890,robocape,-51.6457016639,22.1448740623,-34.6277899965,0.0,10.0,0.0,0.0,0.0,10.0,0.0,0.0,0.0,10.0,3.31949714073,0.288420346056,0.745685105222,1.0,0.0,0.0,0.0,1.0,0.0,0.0,0.0,1.0,0.3448828125,4.34696044922,7.49401611328,0.1,0.0,0.0,0.0,0.1,0.0,0.0,0.0,0.1
1446040751939355323,1613,1446040751936233997,robocape,-46.1580067101,23.4397279217,-34.286343897,0.0,10.0,0.0,0.0,0.0,10.0,0.0,0.0,0.0,10.0,3.09073160309,0.0544616442921,0.776710931922,1.0,0.0,0.0,0.0,1.0,0.0,0.0,0.0,1.0,-1.77590698242,2.22736816406,8.28197753906,0.1,0.0,0.0,0.0,0.1,0.0,0.0,0.0,0.1
1446040751967620656,1614,1446040751964431047,robocape,-40.7228016144,24.3390886943,-33.9008926758,0.0,10.0,0.0,0.0,0.0,10.0,0.0,0.0,0.0,10.0,2.96582934797,-0.00213052887206,0.592952816706,1.0,0.0,0.0,0.0,1.0,0.0,0.0,0.0,1.0,-1.55436767578,0.716110839844,8.52746704102,0.1,0.0,0.0,0.0,0.1,0.0,0.0,0.0,0.1
1446040752000403656,1615,1446040751997102022,robocape,-34.9573911592,24.9720816399,-33.6193192399,0.0,10.0,0.0,0.0,0.0,10.0,0.0,0.0,0.0,10.0,3.10324846021,-0.00719053494321,0.433163151301,1.0,0.0,0.0,0.0,1.0,0.0,0.0,0.0,1.0,-2.08246948242,0.929267578125,8.38376586914,0.1,0.0,0.0,0.0,0.1,0.0,0.0,0.0,0.1
1446040752033696115,1616,1446040752030481100,robocape,-28.6736152128,25.4511557627,-33.3310617578,0.0,10.0,0.0,0.0,0.0,10.0,0.0,0.0,0.0,10.0,3.32575556929,-0.0185089695761,0.362988856578,1.0,0.0,0.0,0.0,1.0,0.0,0.0,0.0,1.0,-2.07049438477,1.00710571289,8.29994018555,0.1,0.0,0.0,0.0,0.1,0.0,0.0,0.0,0.1
1446040752069173323,1617,1446040752066001892,robocape,-21.8109963997,26.0350143006,-32.6487157322,0.0,10.0,0.0,0.0,0.0,10.0,0.0,0.0,0.0,10.0,3.49739630155,0.00892158965177,0.522645363928,1.0,0.0,0.0,0.0,1.0,0.0,0.0,0.0,1.0,-1.9124230957,1.15679443359,7.73471557617,0.1,0.0,0.0,0.0,0.1,0.0,0.0,0.0,0.1
1446040752099981323,1618,1446040752096843004,robocape,-14.1694431469,26.6151215482,-31.4933228588,0.0,10.0,0.0,0.0,0.0,10.0,0.0,0.0,0.0,10.0,3.75838608837,0.0245010820287,0.690557670658,1.0,0.0,0.0,0.0,1.0,0.0,0.0,0.0,1.0,-1.93517578125,1.48610961914,6.96232177734,0.1,0.0,0.0,0.0,0.1,0.0,0.0,0.0,0.1
1446040752130961240,1619,1446040752127698898,robocape,-5.53918538886,27.1759176215,-29.4433163308,0.0,10.0,0.0,0.0,0.0,10.0,0.0,0.0,0.0,10.0,4.0369527384,0.0640490242164,1.04888599533,1.0,0.0,0.0,0.0,1.0,0.0,0.0,0.0,1.0,-1.88727539063,0.724493408203,5.76481201172,0.1,0.0,0.0,0.0,0.1,0.0,0.0,0.0,0.1
1446040752160299198,1620,1446040752157241106,robocape,4.30413972028,27.322542413,-26.1487920883,0.0,10.0,0.0,0.0,0.0,10.0,0.0,0.0,0.0,10.0,4.36318997193,0.0358195166616,1.56034608268,1.0,0.0,0.0,0.0,1.0,0.0,0.0,0.0,1.0,-0.896934814453,-0.332907714844,3.17459838867,0.1,0.0,0.0,0.0,0.1,0.0,0.0,0.0,0.1
1446040752193869198,1621,1446040752190577030,robocape,10.3226358348,26.2658135338,-21.1665980142,0.0,10.0,0.0,0.0,0.0,10.0,0.0,0.0,0.0,10.0,1.94424075381,-0.308793528395,2.43199870746,1.0,0.0,0.0,0.0,1.0,0.0,0.0,0.0,1.0,-1.14122680664,19.6194012451,2.07887695312,0.1,0.0,0.0,0.0,0.1,0.0,0.0,0.0,0.1
1446040752227643531,1622,1446040752224292039,robocape,9.92229049399,26.5069356099,-19.7087368034,0.0,10.0,0.0,0.0,0.0,10.0,0.0,0.0,0.0,10.0,-0.544749600976,0.251801881067,0.644484983799,1.0,0.0,0.0,0.0,1.0,0.0,0.0,0.0,1.0,-0.524509277344,19.6194012451,5.41753417969,0.1,0.0,0.0,0.0,0.1,0.0,0.0,0.0,0.1
1446040752257416490,1623,1446040752254317998,robocape,6.68675499713,28.3705869399,-20.0788441576,0.0,10.0,0.0,0.0,0.0,10.0,0.0,0.0,0.0,10.0,-1.58005347474,0.99988383127,-0.360858327706,1.0,0.0,0.0,0.0,1.0,0.0,0.0,0.0,1.0,1.70046386719,8.07361083984,4.03081787109,0.1,0.0,0.0,0.0,0.1,0.0,0.0,0.0,0.1
1446040752293315907,1624,1446040752290220022,robocape,5.93725533751,29.2062108091,-19.3484514468,0.0,10.0,0.0,0.0,0.0,10.0,0.0,0.0,0.0,10.0,-0.558997512808,0.518916938402,0.249804510249,1.0,0.0,0.0,0.0,1.0,0.0,0.0,0.0,1.0,0.463436279297,1.79626464844,11.1919262695,0.1,0.0,0.0,0.0,0.1,0.0,0.0,0.0,0.1
1446040752324519657,1625,1446040752321436882,robocape,6.09383337685,29.3957987358,-18.3545027901,0.0,10.0,0.0,0.0,0.0,10.0,0.0,0.0,0.0,10.0,-0.160854929841,0.17856495109,0.418515765306,1.0,0.0,0.0,0.0,1.0,0.0,0.0,0.0,1.0,0.461041259766,5.33849853516,7.29522949219,0.1,0.0,0.0,0.0,0.1,0.0,0.0,0.0,0.1
1446040752361102740,1626,1446040752357903957,robocape,6.40190824502,29.5624142214,-18.048461963,0.0,10.0,0.0,0.0,0.0,10.0,0.0,0.0,0.0,10.0,0.101599595587,0.152332814353,0.0949416928613,1.0,0.0,0.0,0.0,1.0,0.0,0.0,0.0,1.0,0.445473632813,8.6987109375,7.44731323242,0.1,0.0,0.0,0.0,0.1,0.0,0.0,0.0,0.1
1446040752394120990,1627,1446040752390563964,robocape,6.48642847415,29.3717525986,-18.3290849886,0.0,10.0,0.0,0.0,0.0,10.0,0.0,0.0,0.0,10.0,0.135421741431,-0.0656469208705,-0.149137021044,1.0,0.0,0.0,0.0,1.0,0.0,0.0,0.0,1.0,-1.23104003906,7.86284912109,7.38264770508,0.1,0.0,0.0,0.0,0.1,0.0,0.0,0.0,0.1
1446040752430622240,1628,1446040752427333116,robocape,6.75749237469,29.1739572553,-18.73498516,0.0,10.0,0.0,0.0,0.0,10.0,0.0,0.0,0.0,10.0,0.267514531498,-0.0715058752686,-0.209857093898,1.0,0.0,0.0,0.0,1.0,0.0,0.0,0.0,1.0,-1.96032348633,8.09277099609,7.73232055664,0.1,0.0,0.0,0.0,0.1,0.0,0.0,0.0,0.1
1446040752463973615,1629,1446040752460895061,robocape,6.79418392052,29.0670104407,-18.7233044427,0.0,10.0,0.0,0.0,0.0,10.0,0.0,0.0,0.0,10.0,0.0339553038985,-0.0117179087963,-0.0193079179031,1.0,0.0,0.0,0.0,1.0,0.0,0.0,0.0,1.0,-2.4908203125,7.82213378906,7.30480957031,0.1,0.0,0.0,0.0,0.1,0.0,0.0,0.0,0.1
1446040752498572532,1630,1446040752494858026,robocape,6.6636556092,29.0841185034,-18.4616563258,0.0,10.0,0.0,0.0,0.0,10.0,0.0,0.0,0.0,10.0,-0.119176458781,0.0623179695079,0.0897485287357,1.0,0.0,0.0,0.0,1.0,0.0,0.0,0.0,1.0,-2.63571899414,8.06642578125,7.56107666016,0.1,0.0,0.0,0.0,0.1,0.0,0.0,0.0,0.1
1446040752533387365,1631,1446040752530148983,robocape,6.70846628198,29.1641061267,-18.0639068337,0.0,10.0,0.0,0.0,0.0,10.0,0.0,0.0,0.0,10.0,-0.0617853372898,0.103596966404,0.147405966336,1.0,0.0,0.0,0.0,1.0,0.0,0.0,0.0,1.0,-1.93158325195,8.13827636719,7.4688684082,0.1,0.0,0.0,0.0,0.1,0.0,0.0,0.0,0.1
1446040752564844240,1632,1446040752561564922,robocape,6.67769576371,29.2150227876,-17.8013490124,0.0,10.0,0.0,0.0,0.0,10.0,0.0,0.0,0.0,10.0,-0.0667121853065,0.082424835738,0.0873516837546,1.0,0.0,0.0,0.0,1.0,0.0,0.0,0.0,1.0,-0.665815429688,7.65328491211,7.50239868164,0.1,0.0,0.0,0.0,0.1,0.0,0.0,0.0,0.1
1446040752595611573,1633,1446040752592562913,robocape,6.65673055609,29.160892935,-17.7891351853,0.0,10.0,0.0,0.0,0.0,10.0,0.0,0.0,0.0,10.0,0.0031957933081,0.016378440704,-0.0211721306661,1.0,0.0,0.0,0.0,1.0,0.0,0.0,0.0,1.0,-1.04422851562,7.98020507813,7.2461315918,0.1,0.0,0.0,0.0,0.1,0.0,0.0,0.0,0.1
1446040752627178032,1634,1446040752624085903,robocape,6.67811680158,29.0375768387,-17.9049680145,0.0,10.0,0.0,0.0,0.0,10.0,0.0,0.0,0.0,10.0,0.0584563859272,-0.0256995045193,-0.0759000910673,1.0,0.0,0.0,0.0,1.0,0.0,0.0,0.0,1.0,-1.62741577148,7.93469970703,7.54311401367,0.1,0.0,0.0,0.0,0.1,0.0,0.0,0.0,0.1
1446040752655803448,1635,1446040752652714967,robocape,6.68048259317,28.9371819825,-17.9908865086,0.0,10.0,0.0,0.0,0.0,10.0,0.0,0.0,0.0,10.0,0.0407463646782,-0.0125168571234,-0.0637827081074,1.0,0.0,0.0,0.0,1.0,0.0,0.0,0.0,1.0,-2.18904785156,7.71675292969,7.57664428711,0.1,0.0,0.0,0.0,0.1,0.0,0.0,0.0,0.1
1446040752684735365,1636,1446040752681550979,robocape,6.72685228051,28.8939642018,-17.8728103288,0.0,10.0,0.0,0.0,0.0,10.0,0.0,0.0,0.0,10.0,0.0111852765783,0.0259658206283,0.0271642431188,1.0,0.0,0.0,0.0,1.0,0.0,0.0,0.0,1.0,-2.21180053711,7.95505737305,7.55987915039,0.1,0.0,0.0,0.0,0.1,0.0,0.0,0.0,0.1
1446040752724450782,1637,1446040752721327066,robocape,6.75701969889,28.9070627731,-17.6644018849,0.0,10.0,0.0,0.0,0.0,10.0,0.0,0.0,0.0,10.0,-0.0203731823391,0.0597879664723,0.0653806047614,1.0,0.0,0.0,0.0,1.0,0.0,0.0,0.0,1.0,-1.50646728516,7.90236694336,7.51078125,0.1,0.0,0.0,0.0,0.1,0.0,0.0,0.0,0.1
1446040752760052490,1638,1446040752756942987,robocape,6.77872705398,28.8797512942,-17.5616340924,0.0,10.0,0.0,0.0,0.0,10.0,0.0,0.0,0.0,10.0,0.00226368692657,0.033822145844,0.0194410759576,1.0,0.0,0.0,0.0,1.0,0.0,0.0,0.0,1.0,-1.17595458984,7.90236694336,7.44970825195,0.1,0.0,0.0,0.0,0.1,0.0,0.0,0.0,0.1
1446040752788902948,1639,1446040752785542964,robocape,6.77772739005,28.820883502,-17.5628819689,0.0,10.0,0.0,0.0,0.0,10.0,0.0,0.0,0.0,10.0,0.0170442309765,0.0125168571234,-0.0264984528463,1.0,0.0,0.0,0.0,1.0,0.0,0.0,0.0,1.0,-1.3376184082,7.86644165039,7.47844848633,0.1,0.0,0.0,0.0,0.1,0.0,0.0,0.0,0.1
1446040752819315782,1640,1446040752816251039,robocape,6.78400446083,28.7469445717,-17.582913884,0.0,10.0,0.0,0.0,0.0,10.0,0.0,0.0,0.0,10.0,0.0255663464648,0.0034621094171,-0.034088461953,1.0,0.0,0.0,0.0,1.0,0.0,0.0,0.0,1.0,-1.79386962891,7.79099853516,7.53113891602,0.1,0.0,0.0,0.0,0.1,0.0,0.0,0.0,0.1
1446040752849259198,1641,1446040752845820903,robocape,6.79564988364,28.7023865722,-17.5279302717,0.0,10.0,0.0,0.0,0.0,10.0,0.0,0.0,0.0,10.0,0.00918790576077,0.0221042370477,-0.00119842249054,1.0,0.0,0.0,0.0,1.0,0.0,0.0,0.0,1.0,-1.98427368164,7.83051635742,7.52754638672,0.1,0.0,0.0,0.0,0.1,0.0,0.0,0.0,0.1
1446040752882554573,1642,1446040752879336118,robocape,6.81823283441,28.6868183519,-17.3993112193,0.0,10.0,0.0,0.0,0.0,10.0,0.0,0.0,0.0,10.0,-0.00386158358061,0.0406132066237,0.0311589847539,1.0,0.0,0.0,0.0,1.0,0.0,0.0,0.0,1.0,-1.77949951172,7.79698608398,7.52275634766,0.1,0.0,0.0,0.0,0.1,0.0,0.0,0.0,0.1
1446040752912649948,1643,1446040752909607887,robocape,6.83525490125,28.6670114624,-17.2833888936,0.0,10.0,0.0,0.0,0.0,10.0,0.0,0.0,0.0,10.0,-0.00359526747161,0.0376837294246,0.0258326625738,1.0,0.0,0.0,0.0,1.0,0.0,0.0,0.0,1.0,-1.45377685547,7.81135620117,7.49162109375,0.1,0.0,0.0,0.0,0.1,0.0,0.0,0.0,0.1
1446040752942095949,1644,1446040752939100027,robocape,6.89606937953,28.6198433469,-17.3089277507,0.0,10.0,0.0,0.0,0.0,10.0,0.0,0.0,0.0,10.0,0.0560595409462,0.018242653467,-0.0387489938607,1.0,0.0,0.0,0.0,1.0,0.0,0.0,0.0,1.0,-1.20110229492,7.7371105957,7.6293347168,0.1,0.0,0.0,0.0,0.1,0.0,0.0,0.0,0.1
1446040752976909240,1645,1446040752973392009,robocape,7.13404980958,28.5347479585,-17.4683720301,0.0,10.0,0.0,0.0,0.0,10.0,0.0,0.0,0.0,10.0,0.184423905488,-0.00532632218016,-0.100268015041,1.0,0.0,0.0,0.0,1.0,0.0,0.0,0.0,1.0,-1.41186401367,7.79459106445,7.66286499023,0.1,0.0,0.0,0.0,0.1,0.0,0.0,0.0,0.1
1446040753008985532,1646,1446040753005832910,robocape,7.37824691577,28.4350586289,-17.6921281807,0.0,10.0,0.0,0.0,0.0,10.0,0.0,0.0,0.0,10.0,0.204663929773,-0.0159789665405,-0.129829103141,1.0,0.0,0.0,0.0,1.0,0.0,0.0,0.0,1.0,-1.53401000977,8.2807800293,7.41977050781,0.1,0.0,0.0,0.0,0.1,0.0,0.0,0.0,0.1
1446040753043592615,1647,1446040753040529966,robocape,7.25422438754,28.3633540657,-17.6788442175,0.0,10.0,0.0,0.0,0.0,10.0,0.0,0.0,0.0,10.0,-0.0513990090385,0.0033289513626,-0.0173105470855,1.0,0.0,0.0,0.0,1.0,0.0,0.0,0.0,1.0,-2.20461547852,8.02571044922,7.2078112793,0.1,0.0,0.0,0.0,0.1,0.0,0.0,0.0,0.1
1446040753075848740,1648,1446040753072448968,robocape,7.07597109358,28.3363053083,-17.4332623549,0.0,10.0,0.0,0.0,0.0,10.0,0.0,0.0,0.0,10.0,-0.139815957229,0.0354200424981,0.0893490545722,1.0,0.0,0.0,0.0,1.0,0.0,0.0,0.0,1.0,-2.47525268555,7.43893066406,7.83051635742,0.1,0.0,0.0,0.0,0.1,0.0,0.0,0.0,0.1
1446040753112732490,1649,1446040753109563112,robocape,7.1834736846,28.3675687576,-17.2062341415,0.0,10.0,0.0,0.0,0.0,10.0,0.0,0.0,0.0,10.0,0.016911072922,0.0705737688871,0.0733700880317,1.0,0.0,0.0,0.0,1.0,0.0,0.0,0.0,1.0,-1.61424316406,7.59939697266,7.44372070313,0.1,0.0,0.0,0.0,0.1,0.0,0.0,0.0,0.1
1446040753144376365,1650,1446040753141285896,robocape,7.28786215971,28.3370415087,-17.123761655,0.0,10.0,0.0,0.0,0.0,10.0,0.0,0.0,0.0,10.0,0.051798483202,0.0311589847539,0.0107858024148,1.0,0.0,0.0,0.0,1.0,0.0,0.0,0.0,1.0,-0.749641113281,8.33466796875,7.24014404297,0.1,0.0,0.0,0.0,0.1,0.0,0.0,0.0,0.1
1446040753175901615,1651,1446040753172497987,robocape,7.09638539066,28.269507163,-17.0523663196,0.0,10.0,0.0,0.0,0.0,10.0,0.0,0.0,0.0,10.0,-0.102664860023,0.00625842856169,0.0115847507418,1.0,0.0,0.0,0.0,1.0,0.0,0.0,0.0,1.0,-1.15080688477,8.02930297852,7.34193237305,0.1,0.0,0.0,0.0,0.1,0.0,0.0,0.0,0.1
1446040753209170574,1652,1446040753206018924,robocape,6.90193524915,28.2066594552,-16.9611592802,0.0,10.0,0.0,0.0,0.0,10.0,0.0,0.0,0.0,10.0,-0.109589078857,0.00918790576077,0.0207726565026,1.0,0.0,0.0,0.0,1.0,0.0,0.0,0.0,1.0,-2.29802124023,7.36708007813,7.65448242188,0.1,0.0,0.0,0.0,0.1,0.0,0.0,0.0,0.1
1446040753242020824,1653,1446040753238934040,robocape,6.88205627894,28.2201321928,-16.7813332599,0.0,10.0,0.0,0.0,0.0,10.0,0.0,0.0,0.0,10.0,-0.0391484680242,0.0564590151097,0.0549942765101,1.0,0.0,0.0,0.0,1.0,0.0,0.0,0.0,1.0,-2.02618652344,7.76944335938,7.52634887695,0.1,0.0,0.0,0.0,0.1,0.0,0.0,0.0,0.1
1446040753275539490,1654,1446040753272264957,robocape,6.90563849772,28.2597502005,-16.5271436946,0.0,10.0,0.0,0.0,0.0,10.0,0.0,0.0,0.0,10.0,-0.0350205683345,0.0740358783042,0.0878843159726,1.0,0.0,0.0,0.0,1.0,0.0,0.0,0.0,1.0,-1.34959350586,7.97900756836,7.47365844727,0.1,0.0,0.0,0.0,0.1,0.0,0.0,0.0,0.1
1446040753309040574,1655,1446040753305948972,robocape,6.89023562533,28.2598058339,-16.4243741975,0.0,10.0,0.0,0.0,0.0,10.0,0.0,0.0,0.0,10.0,-0.01744370514,0.0463390029674,0.0203731823391,1.0,0.0,0.0,0.0,1.0,0.0,0.0,0.0,1.0,-1.09572143555,7.78501098633,7.45330078125,0.1,0.0,0.0,0.0,0.1,0.0,0.0,0.0,0.1
1446040753342210324,1656,1446040753339138031,robocape,6.88454590153,28.1835198264,-16.4677212343,0.0,10.0,0.0,0.0,0.0,10.0,0.0,0.0,0.0,10.0,0.0241016078652,-0.00106526443603,-0.0420779452233,1.0,0.0,0.0,0.0,1.0,0.0,0.0,0.0,1.0,-1.31606323242,7.92152709961,7.48204101563,0.1,0.0,0.0,0.0,0.1,0.0,0.0,0.0,0.1
1446040753380797949,1657,1446040753376892089,robocape,6.89953382991,28.1119639003,-16.4931895034,0.0,10.0,0.0,0.0,0.0,10.0,0.0,0.0,0.0,10.0,0.0304931944814,0.00226368692657,-0.0342216200075,1.0,0.0,0.0,0.0,1.0,0.0,0.0,0.0,1.0,-1.97828613281,7.92511962891,7.56347167969,0.1,0.0,0.0,0.0,0.1,0.0,0.0,0.0,0.1
1446040753416350824,1658,1446040753413184881,robocape,6.95095050975,28.0745186606,-16.4137342721,0.0,10.0,0.0,0.0,0.0,10.0,0.0,0.0,0.0,10.0,0.0234358175927,0.0251668723012,0.0122505410144,1.0,0.0,0.0,0.0,1.0,0.0,0.0,0.0,1.0,-2.05732177734,7.63292724609,7.49401611328,0.1,0.0,0.0,0.0,0.1,0.0,0.0,0.0,0.1
1446040753446594115,1659,1446040753443453073,robocape,6.98612438158,28.0586823866,-16.281205721,0.0,10.0,0.0,0.0,0.0,10.0,0.0,0.0,0.0,10.0,0.00159789665405,0.0387489938607,0.0358195166616,1.0,0.0,0.0,0.0,1.0,0.0,0.0,0.0,1.0,-1.32803833008,8.0125378418,7.22218139648,0.1,0.0,0.0,0.0,0.1,0.0,0.0,0.0,0.1
1446040753484153824,1660,1446040753480120897,robocape,6.97519532292,28.0310399514,-16.2148750036,0.0,10.0,0.0,0.0,0.0,10.0,0.0,0.0,0.0,10.0,-0.00612527050718,0.0291616139364,0.00612527050718,1.0,0.0,0.0,0.0,1.0,0.0,0.0,0.0,1.0,-1.82380737305,7.63172973633,7.4724609375,0.1,0.0,0.0,0.0,0.1,0.0,0.0,0.0,0.1
1446040753518857907,1661,1446040753515762090,robocape,6.99618844294,27.9886940355,-16.1594442842,0.0,10.0,0.0,0.0,0.0,10.0,0.0,0.0,0.0,10.0,0.0133158054504,0.0209058145571,0.00213052887206,1.0,0.0,0.0,0.0,1.0,0.0,0.0,0.0,1.0,-1.39988891602,7.893984375,7.48443603516,0.1,0.0,0.0,0.0,0.1,0.0,0.0,0.0,0.1
1446040753554328074,1662,1446040753550970077,robocape,7.00449289092,27.9558770086,-16.0949246334,0.0,10.0,0.0,0.0,0.0,10.0,0.0,0.0,0.0,10.0,0.00439421579863,0.0262321367373,0.00585895439817,1.0,0.0,0.0,0.0,1.0,0.0,0.0,0.0,1.0,-1.73040161133,7.58981689453,7.55748413086,0.1,0.0,0.0,0.0,0.1,0.0,0.0,0.0,0.1
1446040753587010782,1663,1446040753583818912,robocape,6.98889993654,27.9274444083,-16.0345534922,0.0,10.0,0.0,0.0,0.0,10.0,0.0,0.0,0.0,10.0,-0.00719053494321,0.0280963495003,0.00386158358061,1.0,0.0,0.0,0.0,1.0,0.0,0.0,0.0,1.0,-1.58550292969,7.84009643555,7.54191650391,0.1,0.0,0.0,0.0,0.1,0.0,0.0,0.0,0.1
1446040753619017282,1664,1446040753615890026,robocape,7.02241377698,27.894413361,-15.9618570987,0.0,10.0,0.0,0.0,0.0,10.0,0.0,0.0,0.0,10.0,0.015579492377,0.0264984528463,0.00985369603329,1.0,0.0,0.0,0.0,1.0,0.0,0.0,0.0,1.0,-1.48730712891,8.22210205078,7.49281860352,0.1,0.0,0.0,0.0,0.1,0.0,0.0,0.0,0.1
1446040753648220532,1665,1446040753645136117,robocape,7.05379417423,27.8610087272,-15.8946613621,0.0,10.0,0.0,0.0,0.0,10.0,0.0,0.0,0.0,10.0,0.015845808486,0.0259658206283,0.00745685105222,1.0,0.0,0.0,0.0,1.0,0.0,0.0,0.0,1.0,-1.67890869141,7.63891479492,7.50239868164,0.1,0.0,0.0,0.0,0.1,0.0,0.0,0.0,0.1
1446040753681431782,1666,1446040753677912950,robocape,7.04168511921,27.8301803058,-15.8378703936,0.0,10.0,0.0,0.0,0.0,10.0,0.0,0.0,0.0,10.0,-0.00452737385313,0.0263652947918,0.00279631914458,1.0,0.0,0.0,0.0,1.0,0.0,0.0,0.0,1.0,-1.67172363281,7.81015869141,7.39701782227,0.1,0.0,0.0,0.0,0.1,0.0,0.0,0.0,0.1
1446040753723857866,1667,1446040753720170974,robocape,7.04928485517,27.8004125263,-15.7752416232,0.0,10.0,0.0,0.0,0.0,10.0,0.0,0.0,0.0,10.0,0.00439421579863,0.0272974011733,0.00545948023466,1.0,0.0,0.0,0.0,1.0,0.0,0.0,0.0,1.0,-1.62981079102,7.61975463867,7.50239868164,0.1,0.0,0.0,0.0,0.1,0.0,0.0,0.0,0.1
1446040753760097866,1668,1446040753756973028,robocape,7.22402770108,27.7465483299,-15.8498732718,0.0,10.0,0.0,0.0,0.0,10.0,0.0,0.0,0.0,10.0,0.127299100106,0.0106526443603,-0.0585895439817,1.0,0.0,0.0,0.0,1.0,0.0,0.0,0.0,1.0,-1.65855102539,7.71914794922,7.39103027344,0.1,0.0,0.0,0.0,0.1,0.0,0.0,0.0,0.1
1446040753789408199,1669,1446040753786139011,robocape,7.43008041456,27.6683344176,-16.0071071506,0.0,10.0,0.0,0.0,0.0,10.0,0.0,0.0,0.0,10.0,0.164716513421,-0.00585895439817,-0.0960069572974,1.0,0.0,0.0,0.0,1.0,0.0,0.0,0.0,1.0,-1.3064831543,7.96583496094,7.44012817383,0.1,0.0,0.0,0.0,0.1,0.0,0.0,0.0,0.1
1446040753819851949,1670,1446040753816575050,robocape,7.68543756815,27.5461739137,-16.2317819575,0.0,10.0,0.0,0.0,0.0,10.0,0.0,0.0,0.0,10.0,0.207593406972,-0.0326237233535,-0.12476909707,1.0,0.0,0.0,0.0,1.0,0.0,0.0,0.0,1.0,-1.59628051758,8.1658190918,7.42096801758,0.1,0.0,0.0,0.0,0.1,0.0,0.0,0.0,0.1
1446040753850617116,1671,1446040753847079038,robocape,7.88114871165,27.4449340422,-16.4477024878,0.0,10.0,0.0,0.0,0.0,10.0,0.0,0.0,0.0,10.0,0.1744370514,-0.0218379209386,-0.122505410144,1.0,0.0,0.0,0.0,1.0,0.0,0.0,0.0,1.0,-1.72920410156,8.04846313477,7.40300537109,0.1,0.0,0.0,0.0,0.1,0.0,0.0,0.0,0.1
1446040753881489741,1672,1446040753878097057,robocape,7.99134650874,27.3763288031,-16.5919046756,0.0,10.0,0.0,0.0,0.0,10.0,0.0,0.0,0.0,10.0,0.111852765783,-0.00199737081756,-0.0912132673352,1.0,0.0,0.0,0.0,1.0,0.0,0.0,0.0,1.0,-1.83697998047,8.15983154297,7.3191796875,0.1,0.0,0.0,0.0,0.1,0.0,0.0,0.0,0.1
1446040753910736532,1673,1446040753907692909,robocape,8.03990067252,27.3264649775,-16.5932190823,0.0,10.0,0.0,0.0,0.0,10.0,0.0,0.0,0.0,10.0,0.0438089999318,0.0138484376684,-0.0247673981377,1.0,0.0,0.0,0.0,1.0,0.0,0.0,0.0,1.0,-2.05851928711,7.97541503906,7.3155871582,0.1,0.0,0.0,0.0,0.1,0.0,0.0,0.0,0.1
1446040753943546991,1674,1446040753940387964,robocape,8.05394006731,27.2966923653,-16.5179009787,0.0,10.0,0.0,0.0,0.0,10.0,0.0,0.0,0.0,10.0,0.0066579027252,0.0278300333913,0.0101200121423,1.0,0.0,0.0,0.0,1.0,0.0,0.0,0.0,1.0,-1.92799072266,7.95026733398,7.3155871582,0.1,0.0,0.0,0.0,0.1,0.0,0.0,0.0,0.1
1446040753976617407,1675,1446040753973431110,robocape,8.06199446171,27.2732156334,-16.4124078797,0.0,10.0,0.0,0.0,0.0,10.0,0.0,0.0,0.0,10.0,-0.00399474163512,0.032490565299,0.0241016078652,1.0,0.0,0.0,0.0,1.0,0.0,0.0,0.0,1.0,-1.76752441406,8.0819934082,7.30600708008,0.1,0.0,0.0,0.0,0.1,0.0,0.0,0.0,0.1
1446040754011877657,1676,1446040754008652925,robocape,8.07146134599,27.2476183755,-16.3058164928,0.0,10.0,0.0,0.0,0.0,10.0,0.0,0.0,0.0,10.0,-0.00359526747161,0.0312921428084,0.0250337142467,1.0,0.0,0.0,0.0,1.0,0.0,0.0,0.0,1.0,-1.68010620117,8.0508581543,7.36708007813,0.1,0.0,0.0,0.0,0.1,0.0,0.0,0.0,0.1
1446040754042022241,1677,1446040754038985013,robocape,8.06532970421,27.21632913,-16.2431091605,0.0,10.0,0.0,0.0,0.0,10.0,0.0,0.0,0.0,10.0,-0.00106526443603,0.0258326625738,0.00506000607115,1.0,0.0,0.0,0.0,1.0,0.0,0.0,0.0,1.0,-1.56155273438,7.94787231445,7.36827758789,0.1,0.0,0.0,0.0,0.1,0.0,0.0,0.0,0.1
1446040754075759282,1678,1446040754072544097,robocape,8.06421831613,27.1820146383,-16.1952310982,0.0,10.0,0.0,0.0,0.0,10.0,0.0,0.0,0.0,10.0,0.00519316412565,0.0234358175927,-0.00159789665405,1.0,0.0,0.0,0.0,1.0,0.0,0.0,0.0,1.0,-1.69806884766,8.02331542969,7.36229003906,0.1,0.0,0.0,0.0,0.1,0.0,0.0,0.0,0.1
1446040754109198782,1679,1446040754105597972,robocape,8.07752123941,27.1491052912,-16.1311235891,0.0,10.0,0.0,0.0,0.0,10.0,0.0,0.0,0.0,10.0,0.00878843159726,0.0250337142467,0.00599211245268,1.0,0.0,0.0,0.0,1.0,0.0,0.0,0.0,1.0,-1.76512939453,7.98978515625,7.33953735352,0.1,0.0,0.0,0.0,0.1,0.0,0.0,0.0,0.1
1446040754142250949,1680,1446040754139142036,robocape,8.08654860216,27.1216452365,-16.0593256361,0.0,10.0,0.0,0.0,0.0,10.0,0.0,0.0,0.0,10.0,0.00466053190764,0.0282295075548,0.00932106381528,1.0,0.0,0.0,0.0,1.0,0.0,0.0,0.0,1.0,-1.69567382813,7.95745239258,7.33714233398,0.1,0.0,0.0,0.0,0.1,0.0,0.0,0.0,0.1
1446040754175820949,1681,1446040754172316074,robocape,8.09252553588,27.092929775,-15.9926463442,0.0,10.0,0.0,0.0,0.0,10.0,0.0,0.0,0.0,10.0,0.00426105774413,0.0271642431188,0.00719053494321,1.0,0.0,0.0,0.0,1.0,0.0,0.0,0.0,1.0,-1.6477734375,8.02930297852,7.34552490234,0.1,0.0,0.0,0.0,0.1,0.0,0.0,0.0,0.1
1446040754213064741,1682,1446040754208484888,robocape,8.10311083639,27.061799927,-15.9308826882,0.0,10.0,0.0,0.0,0.0,10.0,0.0,0.0,0.0,10.0,0.00785632521573,0.0255663464648,0.00519316412565,1.0,0.0,0.0,0.0,1.0,0.0,0.0,0.0,1.0,-1.65615600586,8.03169799805,7.33714233398,0.1,0.0,0.0,0.0,0.1,0.0,0.0,0.0,0.1
1446040754244926199,1683,1446040754241884946,robocape,8.11106791517,27.0304164567,-15.8689578971,0.0,10.0,0.0,0.0,0.0,10.0,0.0,0.0,0.0,10.0,0.00639158661619,0.0253000303558,0.00545948023466,1.0,0.0,0.0,0.0,1.0,0.0,0.0,0.0,1.0,-1.71483398438,7.98260009766,7.34193237305,0.1,0.0,0.0,0.0,0.1,0.0,0.0,0.0,0.1
1446040754275426991,1684,1446040754272288084,robocape,8.11594692601,26.9995085187,-15.8067369119,0.0,10.0,0.0,0.0,0.0,10.0,0.0,0.0,0.0,10.0,0.00466053190764,0.0254331884103,0.00572579634367,1.0,0.0,0.0,0.0,1.0,0.0,0.0,0.0,1.0,-1.67411865234,7.99816772461,7.3610925293,0.1,0.0,0.0,0.0,0.1,0.0,0.0,0.0,0.1
1446040754308827616,1685,1446040754305670022,robocape,8.12585782991,26.9694485209,-15.7451222723,0.0,10.0,0.0,0.0,0.0,10.0,0.0,0.0,0.0,10.0,0.00745685105222,0.0258326625738,0.00545948023466,1.0,0.0,0.0,0.0,1.0,0.0,0.0,0.0,1.0,-1.64537841797,8.02690795898,7.35510498047,0.1,0.0,0.0,0.0,0.1,0.0,0.0,0.0,0.1
1446040754345837616,1686,1446040754342694997,robocape,8.13703352103,26.9404133405,-15.6824577466,0.0,10.0,0.0,0.0,0.0,10.0,0.0,0.0,0.0,10.0,0.00785632521573,0.0263652947918,0.00599211245268,1.0,0.0,0.0,0.0,1.0,0.0,0.0,0.0,1.0,-1.70166137695,8.01493286133,7.33833984375,0.1,0.0,0.0,0.0,0.1,0.0,0.0,0.0,0.1
1446040754380738283,1687,1446040754377336978,robocape,7.90717036065,26.9701522496,-15.4986092479,0.0,10.0,0.0,0.0,0.0,10.0,0.0,0.0,0.0,10.0,-0.149137021044,0.0611195470173,0.0603205986903,1.0,0.0,0.0,0.0,1.0,0.0,0.0,0.0,1.0,-1.59029296875,8.65799560547,7.27966186523,0.1,0.0,0.0,0.0,0.1,0.0,0.0,0.0,0.1
1446040754413139324,1688,1446040754409244060,robocape,7.5397203805,26.9971195822,-15.1568097823,0.0,10.0,0.0,0.0,0.0,10.0,0.0,0.0,0.0,10.0,-0.261389260991,0.0644484983799,0.137285954194,1.0,0.0,0.0,0.0,1.0,0.0,0.0,0.0,1.0,-2.44172241211,8.02690795898,7.32636474609,0.1,0.0,0.0,0.0,0.1,0.0,0.0,0.0,0.1
1446040754442251408,1689,1446040754439229965,robocape,7.22337898128,27.0517383559,-14.6512709145,0.0,10.0,0.0,0.0,0.0,10.0,0.0,0.0,0.0,10.0,-0.274838224496,0.0862864193186,0.212919729152,1.0,0.0,0.0,0.0,1.0,0.0,0.0,0.0,1.0,-1.63939086914,7.17907104492,7.75267822266,0.1,0.0,0.0,0.0,0.1,0.0,0.0,0.0,0.1
1446040754479396491,1690,1446040754475337982,robocape,7.15316434314,27.1441516953,-14.3242501212,0.0,10.0,0.0,0.0,0.0,10.0,0.0,0.0,0.0,10.0,-0.100933805314,0.102132227805,0.123970148743,1.0,0.0,0.0,0.0,1.0,0.0,0.0,0.0,1.0,-0.949625244141,7.83171386719,7.43294311523,0.1,0.0,0.0,0.0,0.1,0.0,0.0,0.0,0.1
1446040754514133574,1691,1446040754509851932,robocape,7.10902988914,27.1317101094,-14.2335007672,0.0,10.0,0.0,0.0,0.0,10.0,0.0,0.0,0.0,10.0,-0.0304931944814,0.0350205683345,0.0210389726116,1.0,0.0,0.0,0.0,1.0,0.0,0.0,0.0,1.0,-0.886157226563,8.36700073242,7.30720458984,0.1,0.0,0.0,0.0,0.1,0.0,0.0,0.0,0.1
1446040754548757949,1692,1446040754545595884,robocape,7.19514636433,27.0217729969,-14.34025427,0.0,10.0,0.0,0.0,0.0,10.0,0.0,0.0,0.0,10.0,0.0857537871006,-0.0254331884103,-0.0651142886524,1.0,0.0,0.0,0.0,1.0,0.0,0.0,0.0,1.0,-1.37833374023,7.82931884766,7.35989501953,0.1,0.0,0.0,0.0,0.1,0.0,0.0,0.0,0.1
1446040754583709949,1693,1446040754580179929,robocape,7.15187593935,26.927042085,-14.4550258694,0.0,10.0,0.0,0.0,0.0,10.0,0.0,0.0,0.0,10.0,0.0194410759576,-0.0190416017941,-0.0695085044511,1.0,0.0,0.0,0.0,1.0,0.0,0.0,0.0,1.0,-1.93397827148,7.38145019531,7.587421875,0.1,0.0,0.0,0.0,0.1,0.0,0.0,0.0,0.1
1446040754616421033,1694,1446040754613075017,robocape,7.18699010409,26.9066518288,-14.3886797442,0.0,10.0,0.0,0.0,0.0,10.0,0.0,0.0,0.0,10.0,0.01744370514,0.0300937203179,0.00958737992429,1.0,0.0,0.0,0.0,1.0,0.0,0.0,0.0,1.0,-2.31119384766,8.1969543457,7.55029907227,0.1,0.0,0.0,0.0,0.1,0.0,0.0,0.0,0.1
1446040754649371283,1695,1446040754646274089,robocape,7.21993608008,26.940605004,-14.162652963,0.0,10.0,0.0,0.0,0.0,10.0,0.0,0.0,0.0,10.0,-0.0221042370477,0.066579027252,0.0809600971384,1.0,0.0,0.0,0.0,1.0,0.0,0.0,0.0,1.0,-1.85733764648,7.88200927734,7.55748413086,0.1,0.0,0.0,0.0,0.1,0.0,0.0,0.0,0.1
1446040754678660991,1696,1446040754675215005,robocape,7.22276189899,26.9519909489,-14.0337199005,0.0,10.0,0.0,0.0,0.0,10.0,0.0,0.0,0.0,10.0,-0.0146473859954,0.0498011123845,0.0372842552611,1.0,0.0,0.0,0.0,1.0,0.0,0.0,0.0,1.0,-1.12805419922,7.52515136719,7.50239868164,0.1,0.0,0.0,0.0,0.1,0.0,0.0,0.0,0.1
1446040754721261741,1697,1446040754718195915,robocape,7.4021045837,26.8746175096,-14.2202891219,0.0,10.0,0.0,0.0,0.0,10.0,0.0,0.0,0.0,10.0,0.154862817388,-0.0105194863058,-0.105860653331,1.0,0.0,0.0,0.0,1.0,0.0,0.0,0.0,1.0,-0.978365478516,8.02690795898,7.50599121094,0.1,0.0,0.0,0.0,0.1,0.0,0.0,0.0,0.1
1446040754754581116,1698,1446040754751508951,robocape,7.69343451317,26.7592018121,-14.5404340012,0.0,10.0,0.0,0.0,0.0,10.0,0.0,0.0,0.0,10.0,0.246608716941,-0.0364853069341,-0.167113358402,1.0,0.0,0.0,0.0,1.0,0.0,0.0,0.0,1.0,-1.40587646484,8.21970703125,7.39821533203,0.1,0.0,0.0,0.0,0.1,0.0,0.0,0.0,0.1
1446040754785808949,1699,1446040754782428026,robocape,7.65093176628,26.6601921644,-14.6938246984,0.0,10.0,0.0,0.0,0.0,10.0,0.0,0.0,0.0,10.0,0.0296942461544,-0.0239684498107,-0.0876179998636,1.0,0.0,0.0,0.0,1.0,0.0,0.0,0.0,1.0,-1.81063476563,7.95505737305,7.24972412109,0.1,0.0,0.0,0.0,0.1,0.0,0.0,0.0,0.1
1446040754816753033,1700,1446040754813571929,robocape,7.43488558856,26.6098614984,-14.5118555236,0.0,10.0,0.0,0.0,0.0,10.0,0.0,0.0,0.0,10.0,-0.143144908592,0.015579492377,0.068709556124,1.0,0.0,0.0,0.0,1.0,0.0,0.0,0.0,1.0,-2.72193969727,8.1586340332,7.30480957031,0.1,0.0,0.0,0.0,0.1,0.0,0.0,0.0,0.1
1446040754849881574,1701,1446040754846741914,robocape,7.20527573634,26.6612714686,-14.0833685611,0.0,10.0,0.0,0.0,0.0,10.0,0.0,0.0,0.0,10.0,-0.209191303626,0.0813595713019,0.177766002763,1.0,0.0,0.0,0.0,1.0,0.0,0.0,0.0,1.0,-2.37705688477,7.63412475586,7.66645751953,0.1,0.0,0.0,0.0,0.1,0.0,0.0,0.0,0.1
1446040754883507574,1702,1446040754880043029,robocape,7.18565999852,26.7760372588,-13.6811653677,0.0,10.0,0.0,0.0,0.0,10.0,0.0,0.0,0.0,10.0,-0.0916127414987,0.117179087963,0.159123875132,1.0,0.0,0.0,0.0,1.0,0.0,0.0,0.0,1.0,-1.98068115234,8.22090454102,7.33594482422,0.1,0.0,0.0,0.0,0.1,0.0,0.0,0.0,0.1
1446040754914866116,1703,1446040754911287069,robocape,7.18097484073,26.8563296737,-13.3933280046,0.0,10.0,0.0,0.0,0.0,10.0,0.0,0.0,0.0,10.0,-0.0567253312187,0.0937432703708,0.107991182203,1.0,0.0,0.0,0.0,1.0,0.0,0.0,0.0,1.0,-0.540076904297,8.07241333008,7.38743774414,0.1,0.0,0.0,0.0,0.1,0.0,0.0,0.0,0.1
1446040754949557574,1704,1446040754946244001,robocape,7.16345326161,26.7946352391,-13.4812456498,0.0,10.0,0.0,0.0,0.0,10.0,0.0,0.0,0.0,10.0,0.0260989786828,-0.000399474163512,-0.0579237537092,1.0,0.0,0.0,0.0,1.0,0.0,0.0,0.0,1.0,-0.6514453125,7.79339355469,7.43533813477,0.1,0.0,0.0,0.0,0.1,0.0,0.0,0.0,0.1
1446040754981067949,1705,1446040754977442979,robocape,7.18716047554,26.672255834,-13.6745940106,0.0,10.0,0.0,0.0,0.0,10.0,0.0,0.0,0.0,10.0,0.0727042977592,-0.0379500455336,-0.103330650295,1.0,0.0,0.0,0.0,1.0,0.0,0.0,0.0,1.0,-1.66453857422,7.89877441406,7.49760864258,0.1,0.0,0.0,0.0,0.1,0.0,0.0,0.0,0.1
1446040755021340533,1706,1446040755017942905,robocape,7.2395387565,26.607656578,-13.7073617059,0.0,10.0,0.0,0.0,0.0,10.0,0.0,0.0,0.0,10.0,0.04966795433,0.000798948327024,-0.0323574072445,1.0,0.0,0.0,0.0,1.0,0.0,0.0,0.0,1.0,-2.31239135742,7.73591308594,7.51796630859,0.1,0.0,0.0,0.0,0.1,0.0,0.0,0.0,0.1
1446040755051911908,1707,1446040755048870086,robocape,7.34574004869,26.6068637554,-13.6695435269,0.0,10.0,0.0,0.0,0.0,10.0,0.0,0.0,0.0,10.0,0.0619184953443,0.0394147841332,-0.00452737385313,1.0,0.0,0.0,0.0,1.0,0.0,0.0,0.0,1.0,-1.96631103516,8.06882080078,7.42096801758,0.1,0.0,0.0,0.0,0.1,0.0,0.0,0.0,0.1
1446040755083026866,1708,1446040755079566001,robocape,7.27566153251,26.6378544024,-13.403698768,0.0,10.0,0.0,0.0,0.0,10.0,0.0,0.0,0.0,10.0,-0.0860201032096,0.0648479725434,0.102265385859,1.0,0.0,0.0,0.0,1.0,0.0,0.0,0.0,1.0,-1.39509887695,8.00774780273,7.48563354492,0.1,0.0,0.0,0.0,0.1,0.0,0.0,0.0,0.1
1446040755116210408,1709,1446040755112993955,robocape,7.25409430628,26.6283093174,-13.3160307422,0.0,10.0,0.0,0.0,0.0,10.0,0.0,0.0,0.0,10.0,-0.017976337358,0.0352868844435,0.0211721306661,1.0,0.0,0.0,0.0,1.0,0.0,0.0,0.0,1.0,-1.48012207031,7.88679931641,7.3922277832,0.1,0.0,0.0,0.0,0.1,0.0,0.0,0.0,0.1
1446040755145690075,1710,1446040755141753911,robocape,7.27355944579,26.5847109423,-13.3118466471,0.0,10.0,0.0,0.0,0.0,10.0,0.0,0.0,0.0,10.0,0.0234358175927,0.0133158054504,-0.0157126504315,1.0,0.0,0.0,0.0,1.0,0.0,0.0,0.0,1.0,-1.5292199707,7.72034545898,7.46407836914,0.1,0.0,0.0,0.0,0.1,0.0,0.0,0.0,0.1
1446040755176596950,1711,1446040755173521995,robocape,7.47560004205,26.5216152537,-13.4417382879,0.0,10.0,0.0,0.0,0.0,10.0,0.0,0.0,0.0,10.0,0.152199656298,-0.00146473859954,-0.0788295682663,1.0,0.0,0.0,0.0,1.0,0.0,0.0,0.0,1.0,-1.62382324219,7.6221496582,7.64011230469,0.1,0.0,0.0,0.0,0.1,0.0,0.0,0.0,0.1
1446040755210968491,1712,1446040755207704067,robocape,7.66971939317,26.4587155397,-13.6230081633,0.0,10.0,0.0,0.0,0.0,10.0,0.0,0.0,0.0,10.0,0.160721771786,-0.00399474163512,-0.10346380835,1.0,0.0,0.0,0.0,1.0,0.0,0.0,0.0,1.0,-1.58310791016,7.98739013672,7.41737548828,0.1,0.0,0.0,0.0,0.1,0.0,0.0,0.0,0.1
1446040755246036366,1713,1446040755242714881,robocape,7.59989933806,26.4050991173,-13.5183757005,0.0,10.0,0.0,0.0,0.0,10.0,0.0,0.0,0.0,10.0,-0.0474042674034,0.0113184346328,0.033023197517,1.0,0.0,0.0,0.0,1.0,0.0,0.0,0.0,1.0,-2.08366699219,8.21850952148,7.24852661133,0.1,0.0,0.0,0.0,0.1,0.0,0.0,0.0,0.1
1446040755275451700,1714,1446040755272365093,robocape,7.38140110632,26.3911694811,-13.2897724328,0.0,10.0,0.0,0.0,0.0,10.0,0.0,0.0,0.0,10.0,-0.155528607661,0.0367516230431,0.0897485287357,1.0,0.0,0.0,0.0,1.0,0.0,0.0,0.0,1.0,-2.32676147461,7.81015869141,7.68322265625,0.1,0.0,0.0,0.0,0.1,0.0,0.0,0.0,0.1
1446040755311281325,1715,1446040755308067083,robocape,7.36940444223,26.4500916616,-13.0300988153,0.0,10.0,0.0,0.0,0.0,10.0,0.0,0.0,0.0,10.0,-0.0532632218016,0.0801611488114,0.0974716958969,1.0,0.0,0.0,0.0,1.0,0.0,0.0,0.0,1.0,-1.72561157227,7.92392211914,7.53473144531,0.1,0.0,0.0,0.0,0.1,0.0,0.0,0.0,0.1
1446040755342371200,1716,1446040755339009046,robocape,7.34744442935,26.4845336001,-12.8226437259,0.0,10.0,0.0,0.0,0.0,10.0,0.0,0.0,0.0,10.0,-0.0464721610219,0.0643153403254,0.0751011427402,1.0,0.0,0.0,0.0,1.0,0.0,0.0,0.0,1.0,-1.1532019043,7.61855712891,7.4760534668,0.1,0.0,0.0,0.0,0.1,0.0,0.0,0.0,0.1
1446040755375490825,1717,1446040755372466087,robocape,7.40090558783,26.4409874003,-12.8774554123,0.0,10.0,0.0,0.0,0.0,10.0,0.0,0.0,0.0,10.0,0.0553937506736,0.0105194863058,-0.0430100516048,1.0,0.0,0.0,0.0,1.0,0.0,0.0,0.0,1.0,-0.778381347656,7.75387573242,7.36708007813,0.1,0.0,0.0,0.0,0.1,0.0,0.0,0.0,0.1
1446040755413630366,1718,1446040755409323930,robocape,7.64002102211,26.3367745643,-13.1676932964,0.0,10.0,0.0,0.0,0.0,10.0,0.0,0.0,0.0,10.0,0.209457619735,-0.0318247750264,-0.150868075753,1.0,0.0,0.0,0.0,1.0,0.0,0.0,0.0,1.0,-1.29690307617,8.09636352539,7.47365844727,0.1,0.0,0.0,0.0,0.1,0.0,0.0,0.0,0.1
1446040755444553991,1719,1446040755441392898,robocape,7.96874259742,26.2211309599,-13.4745764423,0.0,10.0,0.0,0.0,0.0,10.0,0.0,0.0,0.0,10.0,0.261122944882,-0.0384826777516,-0.158857559023,1.0,0.0,0.0,0.0,1.0,0.0,0.0,0.0,1.0,-1.75315429688,8.31071777344,7.38504272461,0.1,0.0,0.0,0.0,0.1,0.0,0.0,0.0,0.1
1446040755477513491,1720,1446040755474212884,robocape,7.91449899423,26.1717931132,-13.408193431,0.0,10.0,0.0,0.0,0.0,10.0,0.0,0.0,0.0,10.0,-0.0295610880999,0.0117179087963,0.0147805440499,1.0,0.0,0.0,0.0,1.0,0.0,0.0,0.0,1.0,-2.27287353516,7.73471557617,7.28205688477,0.1,0.0,0.0,0.0,0.1,0.0,0.0,0.0,0.1
1446040755511527533,1721,1446040755507946014,robocape,7.659707924,26.1533023323,-13.0977715278,0.0,10.0,0.0,0.0,0.0,10.0,0.0,0.0,0.0,10.0,-0.193611811249,0.0378168874791,0.129695945087,1.0,0.0,0.0,0.0,1.0,0.0,0.0,0.0,1.0,-2.66924926758,8.13348632813,7.38145019531,0.1,0.0,0.0,0.0,0.1,0.0,0.0,0.0,0.1
1446040755547046950,1722,1446040755543519973,robocape,7.52256051183,26.2931411252,-12.6161829061,0.0,10.0,0.0,0.0,0.0,10.0,0.0,0.0,0.0,10.0,-0.170841783929,0.133424370613,0.19720707872,1.0,0.0,0.0,0.0,1.0,0.0,0.0,0.0,1.0,-1.74117919922,7.64011230469,7.78022094727,0.1,0.0,0.0,0.0,0.1,0.0,0.0,0.0,0.1
1446040755579236241,1723,1446040755576045036,robocape,7.52455819673,26.3781328174,-12.2950557829,0.0,10.0,0.0,0.0,0.0,10.0,0.0,0.0,0.0,10.0,-0.0601874406358,0.0974716958969,0.125301729288,1.0,0.0,0.0,0.0,1.0,0.0,0.0,0.0,1.0,-0.584384765625,7.77064086914,7.40420288086,0.1,0.0,0.0,0.0,0.1,0.0,0.0,0.0,0.1
1446040755608908408,1724,1446040755605829954,robocape,7.49910825486,26.3729452197,-12.2269287942,0.0,10.0,0.0,0.0,0.0,10.0,0.0,0.0,0.0,10.0,-0.0154463343225,0.0359526747161,0.0134489635049,1.0,0.0,0.0,0.0,1.0,0.0,0.0,0.0,1.0,-0.537681884766,8.00295776367,7.31798217773,0.1,0.0,0.0,0.0,0.1,0.0,0.0,0.0,0.1
1446040755646800950,1725,1446040755643086910,robocape,7.53096215329,26.2699847067,-12.3775711289,0.0,10.0,0.0,0.0,0.0,10.0,0.0,0.0,0.0,10.0,0.0659132369795,-0.0274305592278,-0.0822916776834,1.0,0.0,0.0,0.0,1.0,0.0,0.0,0.0,1.0,-1.36635864258,7.91913208008,7.52994140625,0.1,0.0,0.0,0.0,0.1,0.0,0.0,0.0,0.1
1446040755678790825,1726,1446040755675367116,robocape,7.54918405935,26.1792524173,-12.5026864398,0.0,10.0,0.0,0.0,0.0,10.0,0.0,0.0,0.0,10.0,0.0527305895836,-0.0198405501211,-0.0713727172141,1.0,0.0,0.0,0.0,1.0,0.0,0.0,0.0,1.0,-2.20701049805,7.67244506836,7.56826171875,0.1,0.0,0.0,0.0,0.1,0.0,0.0,0.0,0.1
1446040755717028325,1727,1446040755713816881,robocape,7.67413615374,26.1740783211,-12.4872410094,0.0,10.0,0.0,0.0,0.0,10.0,0.0,0.0,0.0,10.0,0.0768321974488,0.0347542522255,-0.0126500151779,1.0,0.0,0.0,0.0,1.0,0.0,0.0,0.0,1.0,-2.26209594727,7.71555541992,7.66526000977,0.1,0.0,0.0,0.0,0.1,0.0,0.0,0.0,0.1
1446040755747562825,1728,1446040755744204998,robocape,7.90046089153,26.1716019967,-12.455060551,0.0,10.0,0.0,0.0,0.0,10.0,0.0,0.0,0.0,10.0,0.126766467888,0.0382163616426,-0.00559263828917,1.0,0.0,0.0,0.0,1.0,0.0,0.0,0.0,1.0,-1.4944921875,8.00655029297,7.41138793945,0.1,0.0,0.0,0.0,0.1,0.0,0.0,0.0,0.1
1446040755778114658,1729,1446040755775029897,robocape,8.05823665533,26.1278288123,-12.5364213771,0.0,10.0,0.0,0.0,0.0,10.0,0.0,0.0,0.0,10.0,0.117312246018,0.00918790576077,-0.0555269087282,1.0,0.0,0.0,0.0,1.0,0.0,0.0,0.0,1.0,-1.01908081055,8.10235107422,7.34911743164,0.1,0.0,0.0,0.0,0.1,0.0,0.0,0.0,0.1
1446040755812911742,1730,1446040755809617996,robocape,8.22924931368,26.0575174414,-12.7769728689,0.0,10.0,0.0,0.0,0.0,10.0,0.0,0.0,0.0,10.0,0.162053352331,-0.0135821215594,-0.129030154814,1.0,0.0,0.0,0.0,1.0,0.0,0.0,0.0,1.0,-1.48012207031,7.88919433594,7.45449829102,0.1,0.0,0.0,0.0,0.1,0.0,0.0,0.0,0.1
1446040755843737408,1731,1446040755840516090,robocape,8.38218935361,25.9436582792,-13.0187414741,0.0,10.0,0.0,0.0,0.0,10.0,0.0,0.0,0.0,10.0,0.152465972407,-0.0379500455336,-0.125967519561,1.0,0.0,0.0,0.0,1.0,0.0,0.0,0.0,1.0,-1.916015625,8.01134033203,7.42096801758,0.1,0.0,0.0,0.0,0.1,0.0,0.0,0.0,0.1
1446040755875642950,1732,1446040755872524976,robocape,8.47906342409,25.8760218213,-13.1199222755,0.0,10.0,0.0,0.0,0.0,10.0,0.0,0.0,0.0,10.0,0.0902811609537,-0.00599211245268,-0.0633832339439,1.0,0.0,0.0,0.0,1.0,0.0,0.0,0.0,1.0,-2.07528442383,8.06522827148,7.3191796875,0.1,0.0,0.0,0.0,0.1,0.0,0.0,0.0,0.1
1446040755912872992,1733,1446040755909797906,robocape,8.50377961917,25.8534058895,-13.0563703303,0.0,10.0,0.0,0.0,0.0,10.0,0.0,0.0,0.0,10.0,0.0138484376684,0.0266316109008,0.0111852765783,1.0,0.0,0.0,0.0,1.0,0.0,0.0,0.0,1.0,-2.08845703125,7.95745239258,7.34911743164,0.1,0.0,0.0,0.0,0.1,0.0,0.0,0.0,0.1
1446040755947614742,1734,1446040755944257974,robocape,8.50741722859,25.8439122751,-12.94295849,0.0,10.0,0.0,0.0,0.0,10.0,0.0,0.0,0.0,10.0,-0.00892158965177,0.0362189908251,0.0339553038985,1.0,0.0,0.0,0.0,1.0,0.0,0.0,0.0,1.0,-1.81183227539,8.0125378418,7.3539074707,0.1,0.0,0.0,0.0,0.1,0.0,0.0,0.0,0.1
1446040755979294450,1735,1446040755976275920,robocape,8.27369552761,25.8880656202,-12.7208101726,0.0,10.0,0.0,0.0,0.0,10.0,0.0,0.0,0.0,10.0,-0.159789665405,0.068443240015,0.0825579937925,1.0,0.0,0.0,0.0,1.0,0.0,0.0,0.0,1.0,-1.43701171875,8.57536743164,7.27367431641,0.1,0.0,0.0,0.0,0.1,0.0,0.0,0.0,0.1
1446040756008590700,1736,1446040756005567073,robocape,7.91605791385,25.9066670475,-12.3246452243,0.0,10.0,0.0,0.0,0.0,10.0,0.0,0.0,0.0,10.0,-0.267115057335,0.0615190211808,0.168977571166,1.0,0.0,0.0,0.0,1.0,0.0,0.0,0.0,1.0,-2.08127197266,7.96942749023,7.32396972656,0.1,0.0,0.0,0.0,0.1,0.0,0.0,0.0,0.1
1446040756042079742,1737,1446040756039016962,robocape,7.60042516567,25.9470682954,-11.8793982818,0.0,10.0,0.0,0.0,0.0,10.0,0.0,0.0,0.0,10.0,-0.256728729084,0.0753674588492,0.190815492104,1.0,0.0,0.0,0.0,1.0,0.0,0.0,0.0,1.0,-1.51844238281,7.24373657227,7.7059753418,0.1,0.0,0.0,0.0,0.1,0.0,0.0,0.0,0.1
1446040756079409367,1738,1446040756075715065,robocape,7.52675368755,26.0184837816,-11.6207524957,0.0,10.0,0.0,0.0,0.0,10.0,0.0,0.0,0.0,10.0,-0.085087996828,0.0854874709915,0.0988032764419,1.0,0.0,0.0,0.0,1.0,0.0,0.0,0.0,1.0,-1.04422851562,7.70118530273,7.48443603516,0.1,0.0,0.0,0.0,0.1,0.0,0.0,0.0,0.1
1446040756111850575,1739,1446040756108824968,robocape,7.52530753536,26.0073499483,-11.5568176172,0.0,10.0,0.0,0.0,0.0,10.0,0.0,0.0,0.0,10.0,-0.00213052887206,0.0316916169719,0.0131826473959,1.0,0.0,0.0,0.0,1.0,0.0,0.0,0.0,1.0,-0.997525634766,8.34185302734,7.29762451172,0.1,0.0,0.0,0.0,0.1,0.0,0.0,0.0,0.1
1446040756142433783,1740,1446040756139331102,robocape,7.50662778821,25.9321038838,-11.637722062,0.0,10.0,0.0,0.0,0.0,10.0,0.0,0.0,0.0,10.0,0.0221042370477,-0.0106526443603,-0.0500674284935,1.0,0.0,0.0,0.0,1.0,0.0,0.0,0.0,1.0,-1.1843371582,7.55868164063,7.56826171875,0.1,0.0,0.0,0.0,0.1,0.0,0.0,0.0,0.1
1446040756175589158,1741,1446040756172454118,robocape,7.49433534334,25.8559472561,-11.7624426813,0.0,10.0,0.0,0.0,0.0,10.0,0.0,0.0,0.0,10.0,0.0356863586071,-0.0133158054504,-0.0709732430506,1.0,0.0,0.0,0.0,1.0,0.0,0.0,0.0,1.0,-2.02498901367,7.85326904297,7.57065673828,0.1,0.0,0.0,0.0,0.1,0.0,0.0,0.0,0.1
1446040756211703700,1742,1446040756208676099,robocape,7.61671690906,25.8326975951,-11.7852922033,0.0,10.0,0.0,0.0,0.0,10.0,0.0,0.0,0.0,10.0,0.0836232582285,0.0218379209386,-0.0278300333913,1.0,0.0,0.0,0.0,1.0,0.0,0.0,0.0,1.0,-2.04654418945,8.20892944336,7.63771728516,0.1,0.0,0.0,0.0,0.1,0.0,0.0,0.0,0.1
1446040756242275450,1743,1446040756239183902,robocape,7.58038272548,25.8474846844,-11.6076965108,0.0,10.0,0.0,0.0,0.0,10.0,0.0,0.0,0.0,10.0,-0.0467384771309,0.050733218766,0.0651142886524,1.0,0.0,0.0,0.0,1.0,0.0,0.0,0.0,1.0,-1.72201904297,7.8209362793,7.55987915039,0.1,0.0,0.0,0.0,0.1,0.0,0.0,0.0,0.1
1446040756277251033,1744,1446040756274113893,robocape,7.53217480197,25.8621392997,-11.5126089359,0.0,10.0,0.0,0.0,0.0,10.0,0.0,0.0,0.0,10.0,-0.033822145844,0.0464721610219,0.0262321367373,1.0,0.0,0.0,0.0,1.0,0.0,0.0,0.0,1.0,-1.55436767578,7.63771728516,7.52994140625,0.1,0.0,0.0,0.0,0.1,0.0,0.0,0.0,0.1
1446040756312602158,1745,1446040756309482097,robocape,7.51977674492,25.8417692954,-11.4740045387,0.0,10.0,0.0,0.0,0.0,10.0,0.0,0.0,0.0,10.0,-0.00213052887206,0.0249005561922,0.00226368692657,1.0,0.0,0.0,0.0,1.0,0.0,0.0,0.0,1.0,-1.47772705078,8.21012695313,7.47365844727,0.1,0.0,0.0,0.0,0.1,0.0,0.0,0.0,0.1
1446040756344618408,1746,1446040756341567039,robocape,7.57235334192,25.7997068561,-11.4666487866,0.0,10.0,0.0,0.0,0.0,10.0,0.0,0.0,0.0,10.0,0.0392816260787,0.0121173829599,-0.0110521185238,1.0,0.0,0.0,0.0,1.0,0.0,0.0,0.0,1.0,-1.69088378906,7.69759277344,7.49521362305,0.1,0.0,0.0,0.0,0.1,0.0,0.0,0.0,0.1
1446040756376098408,1747,1446040756372843027,robocape,7.73714303312,25.7618008916,-11.570504971,0.0,10.0,0.0,0.0,0.0,10.0,0.0,0.0,0.0,10.0,0.12476909707,0.0099868540878,-0.0648479725434,1.0,0.0,0.0,0.0,1.0,0.0,0.0,0.0,1.0,-1.71243896484,7.70358032227,7.61735961914,0.1,0.0,0.0,0.0,0.1,0.0,0.0,0.0,0.1
1446040756416663367,1748,1446040756412991046,robocape,7.93689071302,25.7091445662,-11.7246245279,0.0,10.0,0.0,0.0,0.0,10.0,0.0,0.0,0.0,10.0,0.155129133497,-0.000399474163512,-0.0878843159726,1.0,0.0,0.0,0.0,1.0,0.0,0.0,0.0,1.0,-1.45018432617,7.95385986328,7.43174560547,0.1,0.0,0.0,0.0,0.1,0.0,0.0,0.0,0.1
1446040756447458117,1749,1446040756444384098,robocape,8.10420010994,25.6400356785,-11.9232331365,0.0,10.0,0.0,0.0,0.0,10.0,0.0,0.0,0.0,10.0,0.148471230772,-0.0122505410144,-0.107724866094,1.0,0.0,0.0,0.0,1.0,0.0,0.0,0.0,1.0,-1.44898681641,8.23766967773,7.47365844727,0.1,0.0,0.0,0.0,0.1,0.0,0.0,0.0,0.1
1446040756475368034,1750,1446040756472345113,robocape,7.99150712167,25.5917981644,-11.9377375755,0.0,10.0,0.0,0.0,0.0,10.0,0.0,0.0,0.0,10.0,-0.0422111032778,0.00572579634367,-0.0206394984481,1.0,0.0,0.0,0.0,1.0,0.0,0.0,0.0,1.0,-2.06330932617,8.11552368164,7.26768676758,0.1,0.0,0.0,0.0,0.1,0.0,0.0,0.0,0.1
1446040756508867284,1751,1446040756505795955,robocape,7.74917784863,25.556232581,-11.6608353642,0.0,10.0,0.0,0.0,0.0,10.0,0.0,0.0,0.0,10.0,-0.17856495109,0.0259658206283,0.117844878236,1.0,0.0,0.0,0.0,1.0,0.0,0.0,0.0,1.0,-2.53632568359,7.82333129883,7.38624023438,0.1,0.0,0.0,0.0,0.1,0.0,0.0,0.0,0.1
1446040756545266325,1752,1446040756542156934,robocape,7.61095660322,25.6755474851,-11.2757708586,0.0,10.0,0.0,0.0,0.0,10.0,0.0,0.0,0.0,10.0,-0.147405966336,0.116646455745,0.156061239879,1.0,0.0,0.0,0.0,1.0,0.0,0.0,0.0,1.0,-1.75794433594,7.63292724609,7.6676550293,0.1,0.0,0.0,0.0,0.1,0.0,0.0,0.0,0.1
1446040756579013284,1753,1446040756575649976,robocape,7.59125380141,25.7564045133,-10.9566705952,0.0,10.0,0.0,0.0,0.0,10.0,0.0,0.0,0.0,10.0,-0.0703074527781,0.0936101123163,0.127698574269,1.0,0.0,0.0,0.0,1.0,0.0,0.0,0.0,1.0,-1.11967163086,7.67843261719,7.49281860352,0.1,0.0,0.0,0.0,0.1,0.0,0.0,0.0,0.1
1446040756612953659,1754,1446040756609222888,robocape,7.58859021207,25.7565669047,-10.8918790135,0.0,10.0,0.0,0.0,0.0,10.0,0.0,0.0,0.0,10.0,-0.00306263525359,0.0371510972066,0.0138484376684,1.0,0.0,0.0,0.0,1.0,0.0,0.0,0.0,1.0,-0.502954101562,8.11672119141,7.29283447266,0.1,0.0,0.0,0.0,0.1,0.0,0.0,0.0,0.1
1446040756644287034,1755,1446040756641160011,robocape,7.62142494417,25.6704413015,-11.0112827223,0.0,10.0,0.0,0.0,0.0,10.0,0.0,0.0,0.0,10.0,0.0576574376002,-0.0189084437396,-0.066579027252,1.0,0.0,0.0,0.0,1.0,0.0,0.0,0.0,1.0,-1.40348144531,7.97182250977,7.44012817383,0.1,0.0,0.0,0.0,0.1,0.0,0.0,0.0,0.1
1446040756677073075,1756,1446040756674005031,robocape,7.63711929796,25.5746473233,-11.1221077239,0.0,10.0,0.0,0.0,0.0,10.0,0.0,0.0,0.0,10.0,0.0464721610219,-0.0241016078652,-0.0617853372898,1.0,0.0,0.0,0.0,1.0,0.0,0.0,0.0,1.0,-2.12198730469,7.73112304688,7.58502685547,0.1,0.0,0.0,0.0,0.1,0.0,0.0,0.0,0.1
1446040756721587867,1757,1446040756718316078,robocape,7.62597563289,25.587583886,-11.0048164173,0.0,10.0,0.0,0.0,0.0,10.0,0.0,0.0,0.0,10.0,-0.0194410759576,0.0463390029674,0.0376837294246,1.0,0.0,0.0,0.0,1.0,0.0,0.0,0.0,1.0,-2.21778808594,7.86404663086,7.57305175781,0.1,0.0,0.0,0.0,0.1,0.0,0.0,0.0,0.1
1446040756756073117,1758,1446040756752969026,robocape,7.63391899881,25.628617745,-10.8046141488,0.0,10.0,0.0,0.0,0.0,10.0,0.0,0.0,0.0,10.0,-0.0283626656093,0.066046395034,0.0748348266312,1.0,0.0,0.0,0.0,1.0,0.0,0.0,0.0,1.0,-1.6058605957,7.87362670898,7.42575805664,0.1,0.0,0.0,0.0,0.1,0.0,0.0,0.0,0.1
1446040756789574117,1759,1446040756786322116,robocape,7.69212737586,25.6303305633,-10.7501883982,0.0,10.0,0.0,0.0,0.0,10.0,0.0,0.0,0.0,10.0,0.0315584589174,0.0378168874791,0.00878843159726,1.0,0.0,0.0,0.0,1.0,0.0,0.0,0.0,1.0,-1.03704345703,8.25084228516,7.30720458984,0.1,0.0,0.0,0.0,0.1,0.0,0.0,0.0,0.1
1446040756824027242,1760,1446040756820754051,robocape,7.70655419068,25.5743553584,-10.8129557604,0.0,10.0,0.0,0.0,0.0,10.0,0.0,0.0,0.0,10.0,0.0350205683345,-0.000133158054504,-0.0418116291142,1.0,0.0,0.0,0.0,1.0,0.0,0.0,0.0,1.0,-1.62023071289,8.01134033203,7.63292724609,0.1,0.0,0.0,0.0,0.1,0.0,0.0,0.0,0.1
1446040756853837617,1761,1446040756850193977,robocape,7.69095107669,25.5264751983,-10.823764656,0.0,10.0,0.0,0.0,0.0,10.0,0.0,0.0,0.0,10.0,0.00719053494321,0.00652474467069,-0.017710021249,1.0,0.0,0.0,0.0,1.0,0.0,0.0,0.0,1.0,-1.94954589844,7.70837036133,7.59580444336,0.1,0.0,0.0,0.0,0.1,0.0,0.0,0.0,0.1
1446040756891225784,1762,1446040756887860059,robocape,7.67362407866,25.5252444012,-10.7443999294,0.0,10.0,0.0,0.0,0.0,10.0,0.0,0.0,0.0,10.0,-0.0141147537774,0.0364853069341,0.0213052887206,1.0,0.0,0.0,0.0,1.0,0.0,0.0,0.0,1.0,-1.87889282227,7.82812133789,7.58263183594,0.1,0.0,0.0,0.0,0.1,0.0,0.0,0.0,0.1
1446040756922324492,1763,1446040756918992042,robocape,7.68855475558,25.5349799193,-10.6238309929,0.0,10.0,0.0,0.0,0.0,10.0,0.0,0.0,0.0,10.0,-0.00652474467069,0.0448742643678,0.0399474163512,1.0,0.0,0.0,0.0,1.0,0.0,0.0,0.0,1.0,-1.62981079102,8.03169799805,7.45569580078,0.1,0.0,0.0,0.0,0.1,0.0,0.0,0.0,0.1
1446040756953517367,1764,1446040756950067996,robocape,7.70393007547,25.5217127823,-10.5650395895,0.0,10.0,0.0,0.0,0.0,10.0,0.0,0.0,0.0,10.0,0.00772316716123,0.0291616139364,0.0126500151779,1.0,0.0,0.0,0.0,1.0,0.0,0.0,0.0,1.0,-1.38072875977,7.76944335938,7.44012817383,0.1,0.0,0.0,0.0,0.1,0.0,0.0,0.0,0.1
1446040756986403825,1765,1446040756983098983,robocape,7.7158908416,25.4885183617,-10.5651450443,0.0,10.0,0.0,0.0,0.0,10.0,0.0,0.0,0.0,10.0,0.0193079179031,0.0151800182135,-0.0135821215594,1.0,0.0,0.0,0.0,1.0,0.0,0.0,0.0,1.0,-1.56634277344,7.63412475586,7.45330078125,0.1,0.0,0.0,0.0,0.1,0.0,0.0,0.0,0.1
1446040757018677617,1766,1446040757015492916,robocape,7.85302840957,25.4568892174,-10.6463102963,0.0,10.0,0.0,0.0,0.0,10.0,0.0,0.0,0.0,10.0,0.104262756677,0.0130494893414,-0.0528637476381,1.0,0.0,0.0,0.0,1.0,0.0,0.0,0.0,1.0,-1.7591418457,7.71076538086,7.5071887207,0.1,0.0,0.0,0.0,0.1,0.0,0.0,0.0,0.1
1446040757049908284,1767,1446040757046885967,robocape,8.07832075535,25.4104270298,-10.7904828522,0.0,10.0,0.0,0.0,0.0,10.0,0.0,0.0,0.0,10.0,0.165515461748,0.00239684498107,-0.0821585196289,1.0,0.0,0.0,0.0,1.0,0.0,0.0,0.0,1.0,-1.43461669922,7.95864990234,7.46527587891,0.1,0.0,0.0,0.0,0.1,0.0,0.0,0.0,0.1
1446040757082010617,1768,1446040757077802896,robocape,8.31201099176,25.3476020798,-10.9809579605,0.0,10.0,0.0,0.0,0.0,10.0,0.0,0.0,0.0,10.0,0.180828638016,-0.00918790576077,-0.103064334186,1.0,0.0,0.0,0.0,1.0,0.0,0.0,0.0,1.0,-1.49329467773,7.92751464844,7.43533813477,0.1,0.0,0.0,0.0,0.1,0.0,0.0,0.0,0.1
1446040757117316909,1769,1446040757114243030,robocape,8.48711500254,25.2720948342,-11.1444350869,0.0,10.0,0.0,0.0,0.0,10.0,0.0,0.0,0.0,10.0,0.143810698864,-0.0154463343225,-0.0890827384632,1.0,0.0,0.0,0.0,1.0,0.0,0.0,0.0,1.0,-1.68369873047,8.32508789063,7.30001953125,0.1,0.0,0.0,0.0,0.1,0.0,0.0,0.0,0.1
1446040757146711367,1770,1446040757143630981,robocape,8.32230433994,25.2242560125,-11.1008566074,0.0,10.0,0.0,0.0,0.0,10.0,0.0,0.0,0.0,10.0,-0.083223784065,0.00759000910673,0.00865527354276,1.0,0.0,0.0,0.0,1.0,0.0,0.0,0.0,1.0,-2.13276489258,8.09516601563,7.15033081055,0.1,0.0,0.0,0.0,0.1,0.0,0.0,0.0,0.1
1446040757177839326,1771,1446040757174763917,robocape,8.02460920291,25.2113950878,-10.8102626809,0.0,10.0,0.0,0.0,0.0,10.0,0.0,0.0,0.0,10.0,-0.209990251953,0.0384826777516,0.124103306798,1.0,0.0,0.0,0.0,1.0,0.0,0.0,0.0,1.0,-2.54111572266,7.9287121582,7.38863525391,0.1,0.0,0.0,0.0,0.1,0.0,0.0,0.0,0.1
1446040757212377576,1772,1446040757209250926,robocape,7.78140469285,25.2937963804,-10.3600417152,0.0,10.0,0.0,0.0,0.0,10.0,0.0,0.0,0.0,10.0,-0.217180786896,0.0988032764419,0.192147072649,1.0,0.0,0.0,0.0,1.0,0.0,0.0,0.0,1.0,-2.20102294922,7.36827758789,8.21012695313,0.1,0.0,0.0,0.0,0.1,0.0,0.0,0.0,0.1
1446040757242384951,1773,1446040757239290952,robocape,7.72911694187,25.3963134692,-10.010418438,0.0,10.0,0.0,0.0,0.0,10.0,0.0,0.0,0.0,10.0,-0.0936101123163,0.106260127494,0.14221280221,1.0,0.0,0.0,0.0,1.0,0.0,0.0,0.0,1.0,-0.926872558594,7.80057861328,7.35630249023,0.1,0.0,0.0,0.0,0.1,0.0,0.0,0.0,0.1
1446040757275763992,1774,1446040757272593021,robocape,7.75810937855,25.4015829657,-9.90241465379,0.0,10.0,0.0,0.0,0.0,10.0,0.0,0.0,0.0,10.0,0.00359526747161,0.0415453130052,0.0354200424981,1.0,0.0,0.0,0.0,1.0,0.0,0.0,0.0,1.0,-0.529299316406,7.95146484375,7.29403198242,0.1,0.0,0.0,0.0,0.1,0.0,0.0,0.0,0.1
1446040757308755617,1775,1446040757305699110,robocape,7.93556495705,25.3027899318,-10.2076850232,0.0,10.0,0.0,0.0,0.0,10.0,0.0,0.0,0.0,10.0,0.17590179,-0.0356863586071,-0.152865446571,1.0,0.0,0.0,0.0,1.0,0.0,0.0,0.0,1.0,-0.86220703125,7.87721923828,7.39701782227,0.1,0.0,0.0,0.0,0.1,0.0,0.0,0.0,0.1
1446040757342302201,1776,1446040757339056015,robocape,8.22531239404,25.1688704606,-10.6696393516,0.0,10.0,0.0,0.0,0.0,10.0,0.0,0.0,0.0,10.0,0.270976640916,-0.0628506017259,-0.225436586275,1.0,0.0,0.0,0.0,1.0,0.0,0.0,0.0,1.0,-1.75554931641,7.76824584961,7.5910144043,0.1,0.0,0.0,0.0,0.1,0.0,0.0,0.0,0.1
1446040757378755159,1777,1446040757375433921,robocape,8.50548814187,25.051658929,-10.9992852386,0.0,10.0,0.0,0.0,0.0,10.0,0.0,0.0,0.0,10.0,0.23622238869,-0.0471379512944,-0.164583355367,1.0,0.0,0.0,0.0,1.0,0.0,0.0,0.0,1.0,-2.27766357422,8.07361083984,7.33953735352,0.1,0.0,0.0,0.0,0.1,0.0,0.0,0.0,0.1
1446040757408896034,1778,1446040757405842065,robocape,8.54162640073,24.9869682175,-11.0941395684,0.0,10.0,0.0,0.0,0.0,10.0,0.0,0.0,0.0,10.0,0.0544616442921,-0.00785632521573,-0.0565921731642,1.0,0.0,0.0,0.0,1.0,0.0,0.0,0.0,1.0,-2.04893920898,8.58494750977,7.19942871094,0.1,0.0,0.0,0.0,0.1,0.0,0.0,0.0,0.1
1446040757446126409,1779,1446040757443022012,robocape,8.26700267983,25.006857535,-10.7418327016,0.0,10.0,0.0,0.0,0.0,10.0,0.0,0.0,0.0,10.0,-0.21078920028,0.0601874406358,0.150734917698,1.0,0.0,0.0,0.0,1.0,0.0,0.0,0.0,1.0,-2.63452148438,7.90356445313,7.2425390625,0.1,0.0,0.0,0.0,0.1,0.0,0.0,0.0,0.1
1446040757478327451,1780,1446040757475157022,robocape,8.2063736618,25.0718016046,-10.462482963,0.0,10.0,0.0,0.0,0.0,10.0,0.0,0.0,0.0,10.0,-0.0809600971384,0.0825579937925,0.111320133565,1.0,0.0,0.0,0.0,1.0,0.0,0.0,0.0,1.0,-2.25850341797,7.85087402344,7.53832397461,0.1,0.0,0.0,0.0,0.1,0.0,0.0,0.0,0.1
1446040757512359742,1781,1446040757509248971,robocape,7.88370633611,25.1749148094,-9.87132292136,0.0,10.0,0.0,0.0,0.0,10.0,0.0,0.0,0.0,10.0,-0.290550874928,0.117179087963,0.258326625738,1.0,0.0,0.0,0.0,1.0,0.0,0.0,0.0,1.0,-1.17834960938,7.94906982422,7.40300537109,0.1,0.0,0.0,0.0,0.1,0.0,0.0,0.0,0.1
1446040757542495034,1782,1446040757539308071,robocape,7.64778488465,25.2480439302,-9.64086041765,0.0,10.0,0.0,0.0,0.0,10.0,0.0,0.0,0.0,10.0,-0.163518090931,0.0818922035199,0.0896153706812,1.0,0.0,0.0,0.0,1.0,0.0,0.0,0.0,1.0,-1.12925170898,7.03536987305,7.91194702148,0.1,0.0,0.0,0.0,0.1,0.0,0.0,0.0,0.1
1446040757577226159,1783,1446040757574158906,robocape,7.74288570111,25.2185571421,-9.6673888747,0.0,10.0,0.0,0.0,0.0,10.0,0.0,0.0,0.0,10.0,0.068709556124,0.0157126504315,-0.0253000303558,1.0,0.0,0.0,0.0,1.0,0.0,0.0,0.0,1.0,-0.731678466797,7.85805908203,7.48084350586,0.1,0.0,0.0,0.0,0.1,0.0,0.0,0.0,0.1
1446040757612353284,1784,1446040757609281063,robocape,7.99264511305,25.1152396903,-9.95721295495,0.0,10.0,0.0,0.0,0.0,10.0,0.0,0.0,0.0,10.0,0.209857093898,-0.0372842552611,-0.145142279409,1.0,0.0,0.0,0.0,1.0,0.0,0.0,0.0,1.0,-1.09691894531,7.80057861328,7.55987915039,0.1,0.0,0.0,0.0,0.1,0.0,0.0,0.0,0.1
1446040757646288034,1785,1446040757643132925,robocape,8.15914003942,25.0081173693,-10.1796720427,0.0,10.0,0.0,0.0,0.0,10.0,0.0,0.0,0.0,10.0,0.150734917698,-0.0368847810976,-0.112784872165,1.0,0.0,0.0,0.0,1.0,0.0,0.0,0.0,1.0,-1.87649780273,8.57656494141,7.21619384766,0.1,0.0,0.0,0.0,0.1,0.0,0.0,0.0,0.1
1446040757675828742,1786,1446040757672759056,robocape,8.03314773466,24.9454220833,-10.1409496394,0.0,10.0,0.0,0.0,0.0,10.0,0.0,0.0,0.0,10.0,-0.0625842856169,-0.00133158054504,0.00892158965177,1.0,0.0,0.0,0.0,1.0,0.0,0.0,0.0,1.0,-2.72672973633,7.95266235352,7.26289672852,0.1,0.0,0.0,0.0,0.1,0.0,0.0,0.0,0.1
1446040757717032951,1787,1446040757713917970,robocape,7.80910353753,24.9877499785,-9.7601504528,0.0,10.0,0.0,0.0,0.0,10.0,0.0,0.0,0.0,10.0,-0.190948650159,0.0731037719227,0.163651248985,1.0,0.0,0.0,0.0,1.0,0.0,0.0,0.0,1.0,-2.55189331055,7.42575805664,7.85686157227,0.1,0.0,0.0,0.0,0.1,0.0,0.0,0.0,0.1
1446040757751544742,1788,1446040757748411893,robocape,7.73485954119,25.1080529835,-9.38267030016,0.0,10.0,0.0,0.0,0.0,10.0,0.0,0.0,0.0,10.0,-0.110787501347,0.116646455745,0.155395449606,1.0,0.0,0.0,0.0,1.0,0.0,0.0,0.0,1.0,-1.55676269531,7.74788818359,7.48922607422,0.1,0.0,0.0,0.0,0.1,0.0,0.0,0.0,0.1
1446040757783376534,1789,1446040757780304908,robocape,7.7149668828,25.1568042045,-9.20367514865,0.0,10.0,0.0,0.0,0.0,10.0,0.0,0.0,0.0,10.0,-0.0380832035881,0.0677774497425,0.0669785014155,1.0,0.0,0.0,0.0,1.0,0.0,0.0,0.0,1.0,-0.74724609375,8.27958251953,7.21020629883,0.1,0.0,0.0,0.0,0.1,0.0,0.0,0.0,0.1
1446040757817613201,1790,1446040757814541101,robocape,7.67808871276,25.0868875152,-9.29319808841,0.0,10.0,0.0,0.0,0.0,10.0,0.0,0.0,0.0,10.0,0.0126500151779,-0.0113184346328,-0.050733218766,1.0,0.0,0.0,0.0,1.0,0.0,0.0,0.0,1.0,-0.809516601563,7.73351806641,7.48204101563,0.1,0.0,0.0,0.0,0.1,0.0,0.0,0.0,0.1
1446040757849136034,1791,1446040757845983028,robocape,7.70755020328,24.9831143571,-9.50151235455,0.0,10.0,0.0,0.0,0.0,10.0,0.0,0.0,0.0,10.0,0.0741690363587,-0.0355532005526,-0.104928546949,1.0,0.0,0.0,0.0,1.0,0.0,0.0,0.0,1.0,-1.85135009766,7.64729736328,7.48683105469,0.1,0.0,0.0,0.0,0.1,0.0,0.0,0.0,0.1
1446040757878900701,1792,1446040757875648975,robocape,7.8612742235,24.9354156852,-9.64223494402,0.0,10.0,0.0,0.0,0.0,10.0,0.0,0.0,0.0,10.0,0.125168571234,-0.000399474163512,-0.0781637779938,1.0,0.0,0.0,0.0,1.0,0.0,0.0,0.0,1.0,-2.01900146484,7.73950561523,7.87602172852,0.1,0.0,0.0,0.0,0.1,0.0,0.0,0.0,0.1
1446040757908711743,1793,1446040757905687093,robocape,8.12686845862,24.909209225,-9.73631656823,0.0,10.0,0.0,0.0,0.0,10.0,0.0,0.0,0.0,10.0,0.174303893346,0.0147805440499,-0.0584563859272,1.0,0.0,0.0,0.0,1.0,0.0,0.0,0.0,1.0,-1.89206542969,7.95625488281,7.43653564453,0.1,0.0,0.0,0.0,0.1,0.0,0.0,0.0,0.1
1446040757945949493,1794,1446040757942114114,robocape,8.34458676969,24.8817136698,-9.78732868084,0.0,10.0,0.0,0.0,0.0,10.0,0.0,0.0,0.0,10.0,0.139682799175,0.0159789665405,-0.0378168874791,1.0,0.0,0.0,0.0,1.0,0.0,0.0,0.0,1.0,-1.37833374023,7.85446655273,7.35630249023,0.1,0.0,0.0,0.0,0.1,0.0,0.0,0.0,0.1
1446040757976615284,1795,1446040757973541021,robocape,8.48373965902,24.8320853784,-9.93488720458,0.0,10.0,0.0,0.0,0.0,10.0,0.0,0.0,0.0,10.0,0.119975407108,-0.00253000303558,-0.0816258874109,1.0,0.0,0.0,0.0,1.0,0.0,0.0,0.0,1.0,-1.30049560547,7.82333129883,7.32875976563,0.1,0.0,0.0,0.0,0.1,0.0,0.0,0.0,0.1
1446040758008846201,1796,1446040758005759954,robocape,8.60039021291,24.7431139306,-10.0921244084,0.0,10.0,0.0,0.0,0.0,10.0,0.0,0.0,0.0,10.0,0.10998855302,-0.0249005561922,-0.0828243099015,1.0,0.0,0.0,0.0,1.0,0.0,0.0,0.0,1.0,-1.57712036133,8.17420166016,7.38743774414,0.1,0.0,0.0,0.0,0.1,0.0,0.0,0.0,0.1
1446040758042124409,1797,1446040758039076089,robocape,8.6663448661,24.6912752966,-10.1767700287,0.0,10.0,0.0,0.0,0.0,10.0,0.0,0.0,0.0,10.0,0.067377975579,-0.00106526443603,-0.051532167093,1.0,0.0,0.0,0.0,1.0,0.0,0.0,0.0,1.0,-1.97828613281,7.96224243164,7.36229003906,0.1,0.0,0.0,0.0,0.1,0.0,0.0,0.0,0.1
1446040758075509909,1798,1446040758072436094,robocape,8.69651754971,24.667122527,-10.1809138903,0.0,10.0,0.0,0.0,0.0,10.0,0.0,0.0,0.0,10.0,0.0307595105904,0.0183758115215,-0.015579492377,1.0,0.0,0.0,0.0,1.0,0.0,0.0,0.0,1.0,-2.01900146484,7.95385986328,7.32636474609,0.1,0.0,0.0,0.0,0.1,0.0,0.0,0.0,0.1
1446040758108693618,1799,1446040758105638027,robocape,8.71064732127,24.6561769739,-10.0998377501,0.0,10.0,0.0,0.0,0.0,10.0,0.0,0.0,0.0,10.0,0.0033289513626,0.0304931944814,0.0239684498107,1.0,0.0,0.0,0.0,1.0,0.0,0.0,0.0,1.0,-1.78548706055,8.05325317383,7.33594482422,0.1,0.0,0.0,0.0,0.1,0.0,0.0,0.0,0.1
1446040758142370868,1800,1446040758139221906,robocape,8.71762382642,24.6491173222,-10.0188961182,0.0,10.0,0.0,0.0,0.0,10.0,0.0,0.0,0.0,10.0,-0.000399474163512,0.032490565299,0.0237021337017,1.0,0.0,0.0,0.0,1.0,0.0,0.0,0.0,1.0,-1.5747253418,8.0125378418,7.34073486328,0.1,0.0,0.0,0.0,0.1,0.0,0.0,0.0,0.1
1446040758178011743,1801,1446040758174706935,robocape,8.71560911759,24.6360990304,-9.97683606772,0.0,10.0,0.0,0.0,0.0,10.0,0.0,0.0,0.0,10.0,0.0034621094171,0.0267647689553,0.00585895439817,1.0,0.0,0.0,0.0,1.0,0.0,0.0,0.0,1.0,-1.49688720703,8.047265625,7.35869750977,0.1,0.0,0.0,0.0,0.1,0.0,0.0,0.0,0.1
1446040758208841534,1802,1446040758205735921,robocape,8.71554634089,24.616399637,-9.95795010306,0.0,10.0,0.0,0.0,0.0,10.0,0.0,0.0,0.0,10.0,0.00958737992429,0.0217047628841,-0.00452737385313,1.0,0.0,0.0,0.0,1.0,0.0,0.0,0.0,1.0,-1.63579833984,8.01972290039,7.35510498047,0.1,0.0,0.0,0.0,0.1,0.0,0.0,0.0,0.1
1446040758242738576,1803,1446040758239204883,robocape,8.7173498467,24.597641926,-9.93169191173,0.0,10.0,0.0,0.0,0.0,10.0,0.0,0.0,0.0,10.0,0.00892158965177,0.0226368692657,-0.00106526443603,1.0,0.0,0.0,0.0,1.0,0.0,0.0,0.0,1.0,-1.76872192383,7.9742175293,7.35151245117,0.1,0.0,0.0,0.0,0.1,0.0,0.0,0.0,0.1
1446040758278435868,1804,1446040758275398015,robocape,8.72661051751,24.5862976037,-9.88031930857,0.0,10.0,0.0,0.0,0.0,10.0,0.0,0.0,0.0,10.0,0.00732369299772,0.0282295075548,0.0102531701968,1.0,0.0,0.0,0.0,1.0,0.0,0.0,0.0,1.0,-1.74596923828,7.97661254883,7.3539074707,0.1,0.0,0.0,0.0,0.1,0.0,0.0,0.0,0.1
1446040758308981034,1805,1446040758305896043,robocape,8.73008435698,24.5735803281,-9.82608878933,0.0,10.0,0.0,0.0,0.0,10.0,0.0,0.0,0.0,10.0,0.00359526747161,0.0275637172823,0.0118510668509,1.0,0.0,0.0,0.0,1.0,0.0,0.0,0.0,1.0,-1.61903320313,8.02451293945,7.35989501953,0.1,0.0,0.0,0.0,0.1,0.0,0.0,0.0,0.1
1446040758342467076,1806,1446040758339044094,robocape,8.73276976638,24.5609706081,-9.78513570942,0.0,10.0,0.0,0.0,0.0,10.0,0.0,0.0,0.0,10.0,0.00612527050718,0.0267647689553,0.00559263828917,1.0,0.0,0.0,0.0,1.0,0.0,0.0,0.0,1.0,-1.60107055664,8.01732788086,7.35869750977,0.1,0.0,0.0,0.0,0.1,0.0,0.0,0.0,0.1
1446040758375908493,1807,1446040758372694015,robocape,8.73582116657,24.5463184034,-9.74945245349,0.0,10.0,0.0,0.0,0.0,10.0,0.0,0.0,0.0,10.0,0.00745685105222,0.0253000303558,0.0033289513626,1.0,0.0,0.0,0.0,1.0,0.0,0.0,0.0,1.0,-1.69088378906,7.98978515625,7.33474731445,0.1,0.0,0.0,0.0,0.1,0.0,0.0,0.0,0.1
1446040758409505368,1808,1446040758406430006,robocape,8.73702829379,24.5321998472,-9.71102132469,0.0,10.0,0.0,0.0,0.0,10.0,0.0,0.0,0.0,10.0,0.00585895439817,0.0256995045193,0.00466053190764,1.0,0.0,0.0,0.0,1.0,0.0,0.0,0.0,1.0,-1.73399414063,7.99457519531,7.30959960938,0.1,0.0,0.0,0.0,0.1,0.0,0.0,0.0,0.1
1446040758443641201,1809,1446040758440298080,robocape,8.73780523333,24.5169090509,-9.67016405514,0.0,10.0,0.0,0.0,0.0,10.0,0.0,0.0,0.0,10.0,0.00506000607115,0.0251668723012,0.00599211245268,1.0,0.0,0.0,0.0,1.0,0.0,0.0,0.0,1.0,-1.62502075195,8.29754516602,7.29882202148,0.1,0.0,0.0,0.0,0.1,0.0,0.0,0.0,0.1
1446040758477766451,1810,1446040758474539995,robocape,8.45656019943,24.5947055753,-9.35223348701,0.0,10.0,0.0,0.0,0.0,10.0,0.0,0.0,0.0,10.0,-0.205063403936,0.0893490545722,0.131293841741,1.0,0.0,0.0,0.0,1.0,0.0,0.0,0.0,1.0,-2.25850341797,7.92272460938,7.09404785156,0.1,0.0,0.0,0.0,0.1,0.0,0.0,0.0,0.1
1446040758509553284,1811,1446040758505825042,robocape,8.10035765634,24.6104618531,-8.96509504635,0.0,10.0,0.0,0.0,0.0,10.0,0.0,0.0,0.0,10.0,-0.261256102937,0.0581900698182,0.170708625874,1.0,0.0,0.0,0.0,1.0,0.0,0.0,0.0,1.0,-2.11001220703,7.88200927734,7.54431152344,0.1,0.0,0.0,0.0,0.1,0.0,0.0,0.0,0.1
1446040758542144910,1812,1446040758539060115,robocape,7.8918038743,24.7325414086,-8.5902917293,0.0,10.0,0.0,0.0,0.0,10.0,0.0,0.0,0.0,10.0,-0.180029689689,0.116113823527,0.15579492377,1.0,0.0,0.0,0.0,1.0,0.0,0.0,0.0,1.0,-2.07767944336,7.24493408203,7.88799682617,0.1,0.0,0.0,0.0,0.1,0.0,0.0,0.0,0.1
1446040758575785868,1813,1446040758572670936,robocape,7.87027735496,24.8087310031,-8.31091029695,0.0,10.0,0.0,0.0,0.0,10.0,0.0,0.0,0.0,10.0,-0.0608532309083,0.0876179998636,0.113850136601,1.0,0.0,0.0,0.0,1.0,0.0,0.0,0.0,1.0,-0.863404541016,7.47844848633,7.47725097656,0.1,0.0,0.0,0.0,0.1,0.0,0.0,0.0,0.1
1446040758610135660,1814,1446040758607069015,robocape,7.83069672989,24.784227605,-8.34316004529,0.0,10.0,0.0,0.0,0.0,10.0,0.0,0.0,0.0,10.0,-0.00173105470855,0.0154463343225,-0.0258326625738,1.0,0.0,0.0,0.0,1.0,0.0,0.0,0.0,1.0,-0.749641113281,7.70477783203,7.38264770508,0.1,0.0,0.0,0.0,0.1,0.0,0.0,0.0,0.1
1446040758642523743,1815,1446040758639405965,robocape,7.88038795393,24.6961562035,-8.48791960241,0.0,10.0,0.0,0.0,0.0,10.0,0.0,0.0,0.0,10.0,0.0699079786146,-0.0246342400832,-0.0745685105222,1.0,0.0,0.0,0.0,1.0,0.0,0.0,0.0,1.0,-1.67890869141,8.1969543457,7.45210327148,0.1,0.0,0.0,0.0,0.1,0.0,0.0,0.0,0.1
1446040758675361576,1816,1446040758672250032,robocape,7.90929074275,24.6220970074,-8.59591871306,0.0,10.0,0.0,0.0,0.0,10.0,0.0,0.0,0.0,10.0,0.0508663768205,-0.015313176268,-0.0583232278727,1.0,0.0,0.0,0.0,1.0,0.0,0.0,0.0,1.0,-2.13156738281,7.70358032227,7.59939697266,0.1,0.0,0.0,0.0,0.1,0.0,0.0,0.0,0.1
1446040758717654035,1817,1446040758714562892,robocape,7.92229343335,24.6449161694,-8.46519746132,0.0,10.0,0.0,0.0,0.0,10.0,0.0,0.0,0.0,10.0,-0.00972053797879,0.050466902657,0.0474042674034,1.0,0.0,0.0,0.0,1.0,0.0,0.0,0.0,1.0,-2.21060302734,7.73471557617,7.55149658203,0.1,0.0,0.0,0.0,0.1,0.0,0.0,0.0,0.1
1446040758748723618,1818,1446040758745637893,robocape,7.91660676455,24.6811090389,-8.32646328968,0.0,10.0,0.0,0.0,0.0,10.0,0.0,0.0,0.0,10.0,-0.0213052887206,0.0580569117637,0.0503337446025,1.0,0.0,0.0,0.0,1.0,0.0,0.0,0.0,1.0,-1.65016845703,7.72633300781,7.42096801758,0.1,0.0,0.0,0.0,0.1,0.0,0.0,0.0,0.1
1446040758779463576,1819,1446040758776396036,robocape,8.05278726597,24.6795810134,-8.31726078668,0.0,10.0,0.0,0.0,0.0,10.0,0.0,0.0,0.0,10.0,0.0821585196289,0.0316916169719,-0.00865527354276,1.0,0.0,0.0,0.0,1.0,0.0,0.0,0.0,1.0,-1.16996704102,7.92152709961,7.34911743164,0.1,0.0,0.0,0.0,0.1,0.0,0.0,0.0,0.1
1446040758808766618,1820,1446040758805668115,robocape,8.23485698709,24.620236964,-8.53001504979,0.0,10.0,0.0,0.0,0.0,10.0,0.0,0.0,0.0,10.0,0.155528607661,-0.0121173829599,-0.109722236911,1.0,0.0,0.0,0.0,1.0,0.0,0.0,0.0,1.0,-1.06338867188,7.68561767578,7.51916381836,0.1,0.0,0.0,0.0,0.1,0.0,0.0,0.0,0.1
1446040758843082201,1821,1446040758839886903,robocape,8.51242064105,24.5280788842,-8.86434697601,0.0,10.0,0.0,0.0,0.0,10.0,0.0,0.0,0.0,10.0,0.233026595382,-0.0366184649886,-0.165515461748,1.0,0.0,0.0,0.0,1.0,0.0,0.0,0.0,1.0,-1.58191040039,8.10833862305,7.45330078125,0.1,0.0,0.0,0.0,0.1,0.0,0.0,0.0,0.1
1446040758875553785,1822,1446040758872545957,robocape,8.7574596114,24.4166916404,-9.16162877566,0.0,10.0,0.0,0.0,0.0,10.0,0.0,0.0,0.0,10.0,0.207726565026,-0.0456732126949,-0.146473859954,1.0,0.0,0.0,0.0,1.0,0.0,0.0,0.0,1.0,-1.84895507813,8.14426391602,7.32756225586,0.1,0.0,0.0,0.0,0.1,0.0,0.0,0.0,0.1
1446040758908999201,1823,1446040758905940055,robocape,8.89216026201,24.3407253773,-9.28074472718,0.0,10.0,0.0,0.0,0.0,10.0,0.0,0.0,0.0,10.0,0.110521185238,-0.0167779148675,-0.0645816564344,1.0,0.0,0.0,0.0,1.0,0.0,0.0,0.0,1.0,-2.03337158203,7.98140258789,7.32995727539,0.1,0.0,0.0,0.0,0.1,0.0,0.0,0.0,0.1
1446040758945842285,1824,1446040758941967964,robocape,8.97407143858,24.3160812135,-9.28023005535,0.0,10.0,0.0,0.0,0.0,10.0,0.0,0.0,0.0,10.0,0.0568584892732,0.017976337358,-0.0121173829599,1.0,0.0,0.0,0.0,1.0,0.0,0.0,0.0,1.0,-2.06091430664,8.02690795898,7.30600708008,0.1,0.0,0.0,0.0,0.1,0.0,0.0,0.0,0.1
1446040758977694743,1825,1446040758974452018,robocape,8.97105359488,24.3077669536,-9.20179260182,0.0,10.0,0.0,0.0,0.0,10.0,0.0,0.0,0.0,10.0,-0.00506000607115,0.0308926686449,0.0239684498107,1.0,0.0,0.0,0.0,1.0,0.0,0.0,0.0,1.0,-1.93876831055,8.40771606445,7.27487182617,0.1,0.0,0.0,0.0,0.1,0.0,0.0,0.0,0.1
1446040759011604076,1826,1446040759008460044,robocape,8.64580602664,24.3588417636,-8.86416062352,0.0,10.0,0.0,0.0,0.0,10.0,0.0,0.0,0.0,10.0,-0.232360805109,0.0757669330128,0.143943856919,1.0,0.0,0.0,0.0,1.0,0.0,0.0,0.0,1.0,-2.13875244141,8.12510375977,7.15991088867,0.1,0.0,0.0,0.0,0.1,0.0,0.0,0.0,0.1
1446040759047421785,1827,1446040759044095039,robocape,8.23634765413,24.4072519202,-8.3954937141,0.0,10.0,0.0,0.0,0.0,10.0,0.0,0.0,0.0,10.0,-0.306396683414,0.0804274649204,0.207726565026,1.0,0.0,0.0,0.0,1.0,0.0,0.0,0.0,1.0,-2.15072753906,7.87961425781,7.51317626953,0.1,0.0,0.0,0.0,0.1,0.0,0.0,0.0,0.1
1446040759079780493,1828,1446040759076581954,robocape,8.17478147357,24.5410786181,-7.98661765355,0.0,10.0,0.0,0.0,0.0,10.0,0.0,0.0,0.0,10.0,-0.109189604693,0.12623383567,0.171108100038,1.0,0.0,0.0,0.0,1.0,0.0,0.0,0.0,1.0,-1.9890637207,7.52395385742,7.68561767578,0.1,0.0,0.0,0.0,0.1,0.0,0.0,0.0,0.1
1446040759113513660,1829,1446040759110321998,robocape,8.15687154272,24.5972867668,-7.77308568847,0.0,10.0,0.0,0.0,0.0,10.0,0.0,0.0,0.0,10.0,-0.0439421579863,0.0732369299772,0.084821680719,1.0,0.0,0.0,0.0,1.0,0.0,0.0,0.0,1.0,-0.467028808594,7.51078125,7.49760864258,0.1,0.0,0.0,0.0,0.1,0.0,0.0,0.0,0.1
1446040759144109993,1830,1446040759140969991,robocape,8.30728272413,24.5313834591,-7.97842414194,0.0,10.0,0.0,0.0,0.0,10.0,0.0,0.0,0.0,10.0,0.136753321976,-0.016112124595,-0.10466223084,1.0,0.0,0.0,0.0,1.0,0.0,0.0,0.0,1.0,-0.70892578125,7.90835449219,7.23415649414,0.1,0.0,0.0,0.0,0.1,0.0,0.0,0.0,0.1
1446040759175350910,1831,1446040759172255039,robocape,8.58888860997,24.4064193662,-8.39132989862,0.0,10.0,0.0,0.0,0.0,10.0,0.0,0.0,0.0,10.0,0.251668723012,-0.0599211245268,-0.199204449538,1.0,0.0,0.0,0.0,1.0,0.0,0.0,0.0,1.0,-1.30049560547,7.96463745117,7.65807495117,0.1,0.0,0.0,0.0,0.1,0.0,0.0,0.0,0.1
1446040759210050243,1832,1446040759206969022,robocape,8.85905075402,24.2917517594,-8.81598447004,0.0,10.0,0.0,0.0,0.0,10.0,0.0,0.0,0.0,10.0,0.248606087759,-0.0559263828917,-0.206261826427,1.0,0.0,0.0,0.0,1.0,0.0,0.0,0.0,1.0,-2.09085205078,7.94906982422,7.38264770508,0.1,0.0,0.0,0.0,0.1,0.0,0.0,0.0,0.1
1446040759247200452,1833,1446040759243812084,robocape,9.07349393184,24.1997552885,-9.00144185773,0.0,10.0,0.0,0.0,0.0,10.0,0.0,0.0,0.0,10.0,0.166980200348,-0.0294279300454,-0.0945422186978,1.0,0.0,0.0,0.0,1.0,0.0,0.0,0.0,1.0,-2.19503540039,8.13588134766,7.31079711914,0.1,0.0,0.0,0.0,0.1,0.0,0.0,0.0,0.1
1446040759280037702,1834,1446040759276654958,robocape,9.09159367282,24.1615378032,-8.9278976153,0.0,10.0,0.0,0.0,0.0,10.0,0.0,0.0,0.0,10.0,0.00692421883421,0.0143810698864,0.0247673981377,1.0,0.0,0.0,0.0,1.0,0.0,0.0,0.0,1.0,-2.01900146484,8.41609863281,7.27127929688,0.1,0.0,0.0,0.0,0.1,0.0,0.0,0.0,0.1
1446040759309086118,1835,1446040759306065082,robocape,8.77491108283,24.1852081137,-8.51488662719,0.0,10.0,0.0,0.0,0.0,10.0,0.0,0.0,0.0,10.0,-0.24421187196,0.0659132369795,0.182826008834,1.0,0.0,0.0,0.0,1.0,0.0,0.0,0.0,1.0,-2.41657470703,8.04606811523,7.18625610352,0.1,0.0,0.0,0.0,0.1,0.0,0.0,0.0,0.1
1446040759346912952,1836,1446040759343724966,robocape,8.38704403953,24.2744339694,-7.95381071797,0.0,10.0,0.0,0.0,0.0,10.0,0.0,0.0,0.0,10.0,-0.314253008629,0.10879013053,0.248606087759,1.0,0.0,0.0,0.0,1.0,0.0,0.0,0.0,1.0,-1.94475585938,7.70118530273,7.72633300781,0.1,0.0,0.0,0.0,0.1,0.0,0.0,0.0,0.1
1446040759377188577,1837,1446040759373701095,robocape,8.28896886138,24.4254066346,-7.48285621993,0.0,10.0,0.0,0.0,0.0,10.0,0.0,0.0,0.0,10.0,-0.141547011938,0.139150166957,0.19987023981,1.0,0.0,0.0,0.0,1.0,0.0,0.0,0.0,1.0,-1.58310791016,7.64490234375,7.72872802734,0.1,0.0,0.0,0.0,0.1,0.0,0.0,0.0,0.1
1446040759409223452,1838,1446040759406004905,robocape,8.26646387792,24.4997352068,-7.2367203897,0.0,10.0,0.0,0.0,0.0,10.0,0.0,0.0,0.0,10.0,-0.0532632218016,0.0849548387735,0.0994690667145,1.0,0.0,0.0,0.0,1.0,0.0,0.0,0.0,1.0,-0.438288574219,7.89877441406,7.30840209961,0.1,0.0,0.0,0.0,0.1,0.0,0.0,0.0,0.1
1446040759445841285,1839,1446040759442476034,robocape,8.22547618223,24.4115158203,-7.39700587737,0.0,10.0,0.0,0.0,0.0,10.0,0.0,0.0,0.0,10.0,0.0250337142467,-0.0278300333913,-0.0798948327024,1.0,0.0,0.0,0.0,1.0,0.0,0.0,0.0,1.0,-0.743653564453,7.75627075195,7.41737548828,0.1,0.0,0.0,0.0,0.1,0.0,0.0,0.0,0.1
1446040759482205243,1840,1446040759478996038,robocape,8.26237619576,24.2845921913,-7.66979833068,0.0,10.0,0.0,0.0,0.0,10.0,0.0,0.0,0.0,10.0,0.0904143190082,-0.0549942765101,-0.130761209523,1.0,0.0,0.0,0.0,1.0,0.0,0.0,0.0,1.0,-2.11959228516,7.81734375,7.49760864258,0.1,0.0,0.0,0.0,0.1,0.0,0.0,0.0,0.1
1446040759513964535,1841,1446040759510904073,robocape,8.34392874939,24.2211525191,-7.75285737785,0.0,10.0,0.0,0.0,0.0,10.0,0.0,0.0,0.0,10.0,0.0729706138682,-0.00892158965177,-0.0462058449129,1.0,0.0,0.0,0.0,1.0,0.0,0.0,0.0,1.0,-2.53153564453,7.48802856445,7.64729736328,0.1,0.0,0.0,0.0,0.1,0.0,0.0,0.0,0.1
1446040759545510785,1842,1446040759542294025,robocape,8.5211868992,24.2395581103,-7.76771700869,0.0,10.0,0.0,0.0,0.0,10.0,0.0,0.0,0.0,10.0,0.109589078857,0.0404800485692,-0.0211721306661,1.0,0.0,0.0,0.0,1.0,0.0,0.0,0.0,1.0,-2.10282714844,7.79459106445,7.46647338867,0.1,0.0,0.0,0.0,0.1,0.0,0.0,0.0,0.1
1446040759581134368,1843,1446040759578057050,robocape,8.68349185324,24.2533351681,-7.73076649791,0.0,10.0,0.0,0.0,0.0,10.0,0.0,0.0,0.0,10.0,0.0905474770627,0.0411458388417,0.00386158358061,1.0,0.0,0.0,0.0,1.0,0.0,0.0,0.0,1.0,-1.11727661133,8.4268762207,7.2844519043,0.1,0.0,0.0,0.0,0.1,0.0,0.0,0.0,0.1
1446040759613999160,1844,1446040759610975027,robocape,8.51919041178,24.2186064151,-7.60685680924,0.0,10.0,0.0,0.0,0.0,10.0,0.0,0.0,0.0,10.0,-0.101599595587,0.0170442309765,0.0508663768205,1.0,0.0,0.0,0.0,1.0,0.0,0.0,0.0,1.0,-1.44778930664,7.94787231445,7.3155871582,0.1,0.0,0.0,0.0,0.1,0.0,0.0,0.0,0.1
1446040759645931452,1845,1446040759642420053,robocape,8.27367987291,24.1680057831,-7.50919402954,0.0,10.0,0.0,0.0,0.0,10.0,0.0,0.0,0.0,10.0,-0.139150166957,0.00572579634367,0.0402137324602,1.0,0.0,0.0,0.0,1.0,0.0,0.0,0.0,1.0,-1.98068115234,7.62095214844,7.59340942383,0.1,0.0,0.0,0.0,0.1,0.0,0.0,0.0,0.1
1446040759676513660,1846,1446040759673331975,robocape,8.25951511483,24.1906317866,-7.37531783991,0.0,10.0,0.0,0.0,0.0,10.0,0.0,0.0,0.0,10.0,-0.0243679239742,0.04966795433,0.0506000607115,1.0,0.0,0.0,0.0,1.0,0.0,0.0,0.0,1.0,-1.74477172852,7.81255371094,7.51676879883,0.1,0.0,0.0,0.0,0.1,0.0,0.0,0.0,0.1
1446040759719208785,1847,1446040759716085910,robocape,8.27422754197,24.2162739143,-7.25831980944,0.0,10.0,0.0,0.0,0.0,10.0,0.0,0.0,0.0,10.0,-0.00545948023466,0.0506000607115,0.0423442613323,1.0,0.0,0.0,0.0,1.0,0.0,0.0,0.0,1.0,-1.39749389648,7.88320678711,7.38743774414,0.1,0.0,0.0,0.0,0.1,0.0,0.0,0.0,0.1
1446040759752394327,1848,1446040759749308109,robocape,8.28589156513,24.1951062332,-7.26104053821,0.0,10.0,0.0,0.0,0.0,10.0,0.0,0.0,0.0,10.0,0.0186421276306,0.017976337358,-0.0106526443603,1.0,0.0,0.0,0.0,1.0,0.0,0.0,0.0,1.0,-1.31486572266,7.91673706055,7.42096801758,0.1,0.0,0.0,0.0,0.1,0.0,0.0,0.0,0.1
1446040759783656910,1849,1446040759780355930,robocape,8.40434300006,24.1649536805,-7.37680792706,0.0,10.0,0.0,0.0,0.0,10.0,0.0,0.0,0.0,10.0,0.0997353828235,0.00719053494321,-0.0641821822709,1.0,0.0,0.0,0.0,1.0,0.0,0.0,0.0,1.0,-1.4178515625,7.64490234375,7.80297363281,0.1,0.0,0.0,0.0,0.1,0.0,0.0,0.0,0.1
1446040759818042993,1850,1446040759814883947,robocape,8.64180624072,24.1189418565,-7.57124740161,0.0,10.0,0.0,0.0,0.0,10.0,0.0,0.0,0.0,10.0,0.179896531635,-0.00532632218016,-0.100933805314,1.0,0.0,0.0,0.0,1.0,0.0,0.0,0.0,1.0,-1.62142822266,8.0855859375,7.48802856445,0.1,0.0,0.0,0.0,0.1,0.0,0.0,0.0,0.1
1446040759850300743,1851,1446040759847153902,robocape,8.64837083966,24.0711313089,-7.61789091469,0.0,10.0,0.0,0.0,0.0,10.0,0.0,0.0,0.0,10.0,0.0258326625738,0.00066579027252,-0.0296942461544,1.0,0.0,0.0,0.0,1.0,0.0,0.0,0.0,1.0,-1.44898681641,8.32748291016,7.3191796875,0.1,0.0,0.0,0.0,0.1,0.0,0.0,0.0,0.1
1446040759888137327,1852,1446040759884196043,robocape,8.42535375358,24.0668106826,-7.42838678899,0.0,10.0,0.0,0.0,0.0,10.0,0.0,0.0,0.0,10.0,-0.146607018009,0.0366184649886,0.0800279907569,1.0,0.0,0.0,0.0,1.0,0.0,0.0,0.0,1.0,-2.23455322266,7.69040771484,7.52036132813,0.1,0.0,0.0,0.0,0.1,0.0,0.0,0.0,0.1
1446040759918994202,1853,1446040759915601015,robocape,8.30130442034,24.1259829924,-7.20587764819,0.0,10.0,0.0,0.0,0.0,10.0,0.0,0.0,0.0,10.0,-0.101200121423,0.0737695621952,0.0902811609537,1.0,0.0,0.0,0.0,1.0,0.0,0.0,0.0,1.0,-2.3375390625,8.04966064453,7.51916381836,0.1,0.0,0.0,0.0,0.1,0.0,0.0,0.0,0.1
1446040759949001077,1854,1446040759945491075,robocape,8.25508889012,24.1907985116,-6.97292901604,0.0,10.0,0.0,0.0,0.0,10.0,0.0,0.0,0.0,10.0,-0.0625842856169,0.0781637779938,0.0948085348068,1.0,0.0,0.0,0.0,1.0,0.0,0.0,0.0,1.0,-1.04183349609,7.54431152344,7.60418701172,0.1,0.0,0.0,0.0,0.1,0.0,0.0,0.0,0.1
1446040759987121869,1855,1446040759983802080,robocape,8.2245535393,24.1832490543,-6.95286594788,0.0,10.0,0.0,0.0,0.0,10.0,0.0,0.0,0.0,10.0,-0.00865527354276,0.0262321367373,-0.000399474163512,1.0,0.0,0.0,0.0,1.0,0.0,0.0,0.0,1.0,-1.00830322266,7.79099853516,7.40779541016,0.1,0.0,0.0,0.0,0.1,0.0,0.0,0.0,0.1
1446040760018093910,1856,1446040760015043973,robocape,8.24714522353,24.1271209638,-7.03291238095,0.0,10.0,0.0,0.0,0.0,10.0,0.0,0.0,0.0,10.0,0.0407463646782,-0.00572579634367,-0.0442084740953,1.0,0.0,0.0,0.0,1.0,0.0,0.0,0.0,1.0,-1.59628051758,8.06522827148,7.43893066406,0.1,0.0,0.0,0.0,0.1,0.0,0.0,0.0,0.1
1446040760049258035,1857,1446040760045835971,robocape,8.2675738242,24.0797340687,-7.09699593642,0.0,10.0,0.0,0.0,0.0,10.0,0.0,0.0,0.0,10.0,0.0362189908251,-0.000133158054504,-0.0374174133156,1.0,0.0,0.0,0.0,1.0,0.0,0.0,0.0,1.0,-2.00223632812,7.69639526367,7.55987915039,0.1,0.0,0.0,0.0,0.1,0.0,0.0,0.0,0.1
1446040760078173160,1858,1446040760075088977,robocape,8.26767113416,24.0804342152,-7.04237466258,0.0,10.0,0.0,0.0,0.0,10.0,0.0,0.0,0.0,10.0,0.000133158054504,0.0328900394625,0.0151800182135,1.0,0.0,0.0,0.0,1.0,0.0,0.0,0.0,1.0,-2.08366699219,7.77423339844,7.54431152344,0.1,0.0,0.0,0.0,0.1,0.0,0.0,0.0,0.1
1446040760109436702,1859,1446040760106307029,robocape,8.26746503791,24.1008562278,-6.92470408663,0.0,10.0,0.0,0.0,0.0,10.0,0.0,0.0,0.0,10.0,-0.0135821215594,0.0474042674034,0.0436758418773,1.0,0.0,0.0,0.0,1.0,0.0,0.0,0.0,1.0,-1.62981079102,7.95385986328,7.47126342773,0.1,0.0,0.0,0.0,0.1,0.0,0.0,0.0,0.1
1446040760145651994,1860,1446040760142219066,robocape,8.27161862238,24.103726832,-6.85308609225,0.0,10.0,0.0,0.0,0.0,10.0,0.0,0.0,0.0,10.0,-0.00146473859954,0.035153726389,0.0233026595382,1.0,0.0,0.0,0.0,1.0,0.0,0.0,0.0,1.0,-1.29331054688,7.89518188477,7.42456054688,0.1,0.0,0.0,0.0,0.1,0.0,0.0,0.0,0.1
1446040760177359202,1861,1446040760174246072,robocape,8.27687058416,24.0774500189,-6.86522372958,0.0,10.0,0.0,0.0,0.0,10.0,0.0,0.0,0.0,10.0,0.0170442309765,0.0142479118319,-0.0141147537774,1.0,0.0,0.0,0.0,1.0,0.0,0.0,0.0,1.0,-1.49209716797,7.82572631836,7.44491821289,0.1,0.0,0.0,0.0,0.1,0.0,0.0,0.0,0.1
1446040760209063119,1862,1446040760205785989,robocape,8.38420573303,24.0469207422,-6.9435400924,0.0,10.0,0.0,0.0,0.0,10.0,0.0,0.0,0.0,10.0,0.085354312937,0.00878843159726,-0.0456732126949,1.0,0.0,0.0,0.0,1.0,0.0,0.0,0.0,1.0,-1.55077514648,7.80177612305,7.70358032227,0.1,0.0,0.0,0.0,0.1,0.0,0.0,0.0,0.1
1446040760242159577,1863,1446040760238945960,robocape,8.61563618832,24.0162290535,-7.07575976456,0.0,10.0,0.0,0.0,0.0,10.0,0.0,0.0,0.0,10.0,0.162852300658,0.00639158661619,-0.0719053494321,1.0,0.0,0.0,0.0,1.0,0.0,0.0,0.0,1.0,-1.55676269531,7.96583496094,7.49760864258,0.1,0.0,0.0,0.0,0.1,0.0,0.0,0.0,0.1
1446040760275424119,1864,1446040760272352933,robocape,8.83952355975,23.978748506,-7.23841640182,0.0,10.0,0.0,0.0,0.0,10.0,0.0,0.0,0.0,10.0,0.165781777857,0.000532632218016,-0.0860201032096,1.0,0.0,0.0,0.0,1.0,0.0,0.0,0.0,1.0,-1.47054199219,7.84009643555,7.39701782227,0.1,0.0,0.0,0.0,0.1,0.0,0.0,0.0,0.1
1446040760309532285,1865,1446040760305926084,robocape,9.02899177417,23.9292490317,-7.46614032918,0.0,10.0,0.0,0.0,0.0,10.0,0.0,0.0,0.0,10.0,0.161920194277,-0.0107858024148,-0.116113823527,1.0,0.0,0.0,0.0,1.0,0.0,0.0,0.0,1.0,-1.61663818359,7.89637939453,7.34791992188,0.1,0.0,0.0,0.0,0.1,0.0,0.0,0.0,0.1
1446040760344818910,1866,1446040760341506004,robocape,9.13850647022,23.8566879986,-7.6315734341,0.0,10.0,0.0,0.0,0.0,10.0,0.0,0.0,0.0,10.0,0.10612696944,-0.0201068662301,-0.084289048501,1.0,0.0,0.0,0.0,1.0,0.0,0.0,0.0,1.0,-1.69926635742,8.12989379883,7.35151245117,0.1,0.0,0.0,0.0,0.1,0.0,0.0,0.0,0.1
1446040760375797827,1867,1446040760372756958,robocape,9.06682862714,23.8452877937,-7.65262095789,0.0,10.0,0.0,0.0,0.0,10.0,0.0,0.0,0.0,10.0,-0.0202400242846,0.0207726565026,-0.0205063403936,1.0,0.0,0.0,0.0,1.0,0.0,0.0,0.0,1.0,-1.85614013672,8.38017333984,7.33235229492,0.1,0.0,0.0,0.0,0.1,0.0,0.0,0.0,0.1
1446040760409315869,1868,1446040760406111955,robocape,8.72700140437,23.8528471705,-7.35819717131,0.0,10.0,0.0,0.0,0.0,10.0,0.0,0.0,0.0,10.0,-0.230230276237,0.048869006003,0.129562787032,1.0,0.0,0.0,0.0,1.0,0.0,0.0,0.0,1.0,-2.50519042969,7.970625,7.16470092773,0.1,0.0,0.0,0.0,0.1,0.0,0.0,0.0,0.1
1446040760444090619,1869,1446040760440877914,robocape,8.35847200516,23.906491418,-6.8924184359,0.0,10.0,0.0,0.0,0.0,10.0,0.0,0.0,0.0,10.0,-0.282428233603,0.083490100174,0.207992881135,1.0,0.0,0.0,0.0,1.0,0.0,0.0,0.0,1.0,-2.18186279297,7.73591308594,7.67244506836,0.1,0.0,0.0,0.0,0.1,0.0,0.0,0.0,0.1
1446040760475422410,1870,1446040760472378969,robocape,8.24320570271,24.0564790244,-6.45063392041,0.0,10.0,0.0,0.0,0.0,10.0,0.0,0.0,0.0,10.0,-0.143278066646,0.136087531703,0.188152331014,1.0,0.0,0.0,0.0,1.0,0.0,0.0,0.0,1.0,-1.59149047852,7.28804443359,7.81135620117,0.1,0.0,0.0,0.0,0.1,0.0,0.0,0.0,0.1
1446040760509263160,1871,1446040760505930900,robocape,8.18864276956,24.1646932417,-6.23893465159,0.0,10.0,0.0,0.0,0.0,10.0,0.0,0.0,0.0,10.0,-0.0621848114534,0.100134856987,0.0821585196289,1.0,0.0,0.0,0.0,1.0,0.0,0.0,0.0,1.0,-0.676593017578,7.98739013672,7.32037719727,0.1,0.0,0.0,0.0,0.1,0.0,0.0,0.0,0.1
1446040760542654744,1872,1446040760539179086,robocape,8.14451762395,24.1006530027,-6.34897290223,0.0,10.0,0.0,0.0,0.0,10.0,0.0,0.0,0.0,10.0,0.0115847507418,-0.0126500151779,-0.0567253312187,1.0,0.0,0.0,0.0,1.0,0.0,0.0,0.0,1.0,-0.700543212891,7.77423339844,7.33953735352,0.1,0.0,0.0,0.0,0.1,0.0,0.0,0.0,0.1
1446040760579851119,1873,1446040760576561927,robocape,8.16975087772,23.9882049726,-6.59475417386,0.0,10.0,0.0,0.0,0.0,10.0,0.0,0.0,0.0,10.0,0.0770985135578,-0.0466053190764,-0.117844878236,1.0,0.0,0.0,0.0,1.0,0.0,0.0,0.0,1.0,-2.01181640625,7.86404663086,7.51317626953,0.1,0.0,0.0,0.0,0.1,0.0,0.0,0.0,0.1
1446040760610850160,1874,1446040760607223987,robocape,8.19820439298,23.9269410614,-6.68976696821,0.0,10.0,0.0,0.0,0.0,10.0,0.0,0.0,0.0,10.0,0.0466053190764,-0.00985369603329,-0.050466902657,1.0,0.0,0.0,0.0,1.0,0.0,0.0,0.0,1.0,-2.30640380859,7.86524414063,7.63532226563,0.1,0.0,0.0,0.0,0.1,0.0,0.0,0.0,0.1
1446040760642611911,1875,1446040760639178037,robocape,8.19874696152,23.9536694204,-6.57117236074,0.0,10.0,0.0,0.0,0.0,10.0,0.0,0.0,0.0,10.0,-0.0134489635049,0.050466902657,0.0442084740953,1.0,0.0,0.0,0.0,1.0,0.0,0.0,0.0,1.0,-2.20341796875,7.82812133789,7.58622436523,0.1,0.0,0.0,0.0,0.1,0.0,0.0,0.0,0.1
1446040760676549536,1876,1446040760673378944,robocape,8.17458442627,24.0175017146,-6.36398514684,0.0,10.0,0.0,0.0,0.0,10.0,0.0,0.0,0.0,10.0,-0.0454068965859,0.0757669330128,0.0836232582285,1.0,0.0,0.0,0.0,1.0,0.0,0.0,0.0,1.0,-1.44419677734,7.740703125,7.45090576172,0.1,0.0,0.0,0.0,0.1,0.0,0.0,0.0,0.1
1446040760721054869,1877,1446040760717910051,robocape,8.22636485176,24.0239013341,-6.39864119762,0.0,10.0,0.0,0.0,0.0,10.0,0.0,0.0,0.0,10.0,0.0464721610219,0.0307595105904,-0.0270310850643,1.0,0.0,0.0,0.0,1.0,0.0,0.0,0.0,1.0,-0.888552246094,7.79339355469,7.39462280273,0.1,0.0,0.0,0.0,0.1,0.0,0.0,0.0,0.1
1446040760758351827,1878,1446040760755043029,robocape,8.39133383593,23.9911782118,-6.66114600523,0.0,10.0,0.0,0.0,0.0,10.0,0.0,0.0,0.0,10.0,0.155395449606,-0.0034621094171,-0.132891738395,1.0,0.0,0.0,0.0,1.0,0.0,0.0,0.0,1.0,-1.37234619141,8.93342285156,8.047265625,0.1,0.0,0.0,0.0,0.1,0.0,0.0,0.0,0.1
1446040760793327994,1879,1446040760789819955,robocape,8.53270415243,23.9232704648,-6.91587412745,0.0,10.0,0.0,0.0,0.0,10.0,0.0,0.0,0.0,10.0,0.141147537774,-0.0225037112112,-0.126500151779,1.0,0.0,0.0,0.0,1.0,0.0,0.0,0.0,1.0,-1.76991943359,8.93102783203,7.73112304688,0.1,0.0,0.0,0.0,0.1,0.0,0.0,0.0,0.1
1446040760824129869,1880,1446040760820736885,robocape,8.30164838038,23.6292411416,-6.99108529967,0.0,10.0,0.0,0.0,0.0,10.0,0.0,0.0,0.0,10.0,-0.0966727475699,-0.137419112248,-0.0206394984481,1.0,0.0,0.0,0.0,1.0,0.0,0.0,0.0,1.0,-2.40220458984,7.9287121582,7.35151245117,0.1,0.0,0.0,0.0,0.1,0.0,0.0,0.0,0.1
1446040760854323077,1881,1446040760850506067,robocape,7.74166944483,23.5506706473,-6.81805838512,0.0,10.0,0.0,0.0,0.0,10.0,0.0,0.0,0.0,10.0,-0.321709859682,-0.00932106381528,0.0806937810294,1.0,0.0,0.0,0.0,1.0,0.0,0.0,0.0,1.0,-2.05133422852,9.60762084961,7.01501220703,0.1,0.0,0.0,0.0,0.1,0.0,0.0,0.0,0.1
1446040760891889452,1882,1446040760888824939,robocape,6.34095619687,23.6984425047,-6.78435730543,0.0,10.0,0.0,0.0,0.0,10.0,0.0,0.0,0.0,10.0,-0.734233512535,0.0978711700604,-0.000266316109008,1.0,0.0,0.0,0.0,1.0,0.0,0.0,0.0,1.0,-2.18545532227,10.709329834,7.70358032227,0.1,0.0,0.0,0.0,0.1,0.0,0.0,0.0,0.1
1446040760922242786,1883,1446040760918981075,robocape,3.87727299365,23.736253061,-6.96718506817,0.0,10.0,0.0,0.0,0.0,10.0,0.0,0.0,0.0,10.0,-1.24888939319,0.0241016078652,-0.0933437962073,1.0,0.0,0.0,0.0,1.0,0.0,0.0,0.0,1.0,-2.27886108398,11.8110388184,7.95385986328,0.1,0.0,0.0,0.0,0.1,0.0,0.0,0.0,0.1
1446040760954095827,1884,1446040760950361013,robocape,-0.0226326535009,23.8703202815,-7.94474354058,0.0,10.0,0.0,0.0,0.0,10.0,0.0,0.0,0.0,10.0,-1.8345185169,0.0733700880317,-0.477504783451,1.0,0.0,0.0,0.0,1.0,0.0,0.0,0.0,1.0,-2.08246948242,11.4362182617,8.86995483398,0.1,0.0,0.0,0.0,0.1,0.0,0.0,0.0,0.1
1446040760989280786,1885,1446040760986206054,robocape,-5.01887408726,24.0127077006,-9.80471762894,0.0,10.0,0.0,0.0,0.0,10.0,0.0,0.0,0.0,10.0,-2.22600319714,0.153398078789,-0.902278977319,1.0,0.0,0.0,0.0,1.0,0.0,0.0,0.0,1.0,-2.84767822266,8.00655029297,10.7512426758,0.1,0.0,0.0,0.0,0.1,0.0,0.0,0.0,0.1
1446040761019691786,1886,1446040761016303062,robocape,-9.2141993418,23.623997639,-11.2607682941,0.0,10.0,0.0,0.0,0.0,10.0,0.0,0.0,0.0,10.0,-1.90163017637,-0.0696416625056,-0.736630357516,1.0,0.0,0.0,0.0,1.0,0.0,0.0,0.0,1.0,-3.72545288086,3.52067871094,12.7367138672,0.1,0.0,0.0,0.0,0.1,0.0,0.0,0.0,0.1
1446040761050493452,1887,1446040761047334909,robocape,-11.892593721,22.4443181832,-12.0645018671,0.0,10.0,0.0,0.0,0.0,10.0,0.0,0.0,0.0,10.0,-1.24902255125,-0.507731661824,-0.506400081279,1.0,0.0,0.0,0.0,1.0,0.0,0.0,0.0,1.0,-3.58534423828,4.50263671875,12.201427002,0.1,0.0,0.0,0.0,0.1,0.0,0.0,0.0,0.1
1446040761084920619,1888,1446040761081650972,robocape,-14.1671401475,20.9555333654,-12.4443974675,0.0,10.0,0.0,0.0,0.0,10.0,0.0,0.0,0.0,10.0,-1.12904714414,-0.695617676729,-0.366184649886,1.0,0.0,0.0,0.0,1.0,0.0,0.0,0.0,1.0,-2.32077392578,5.44866943359,12.0218005371,0.1,0.0,0.0,0.0,0.1,0.0,0.0,0.0,0.1
1446040761115366452,1889,1446040761112251996,robocape,-15.840055018,19.7381711741,-12.400953624,0.0,10.0,0.0,0.0,0.0,10.0,0.0,0.0,0.0,10.0,-0.898284235684,-0.598545454995,-0.155129133497,1.0,0.0,0.0,0.0,1.0,0.0,0.0,0.0,1.0,-2.20701049805,5.2462902832,12.6504931641,0.1,0.0,0.0,0.0,0.1,0.0,0.0,0.0,0.1
1446040761153621494,1890,1446040761150414943,robocape,-16.7587234434,18.7807882621,-12.1782164428,0.0,10.0,0.0,0.0,0.0,10.0,0.0,0.0,0.0,10.0,-0.533431166343,-0.49255164361,-0.0442084740953,1.0,0.0,0.0,0.0,1.0,0.0,0.0,0.0,1.0,-1.85015258789,7.81255371094,13.0157336426,0.1,0.0,0.0,0.0,0.1,0.0,0.0,0.0,0.1
1446040761191253952,1891,1446040761188077926,robocape,-18.209321665,17.9879072996,-12.0092224763,0.0,10.0,0.0,0.0,0.0,10.0,0.0,0.0,0.0,10.0,-0.811465184147,-0.39201731246,-0.0585895439817,1.0,0.0,0.0,0.0,1.0,0.0,0.0,0.0,1.0,-0.973575439453,8.05564819336,13.4216894531,0.1,0.0,0.0,0.0,0.1,0.0,0.0,0.0,0.1
1446040761226417244,1892,1446040761223254919,robocape,-19.9626097884,17.2193405601,-12.2437026364,0.0,10.0,0.0,0.0,0.0,10.0,0.0,0.0,0.0,10.0,-0.916660047205,-0.303866680378,-0.261122944882,1.0,0.0,0.0,0.0,1.0,0.0,0.0,0.0,1.0,-1.08135131836,6.19352050781,13.504317627,0.1,0.0,0.0,0.0,0.1,0.0,0.0,0.0,0.1
1446040761262941494,1893,1446040761259572982,robocape,-21.3789898981,16.310308492,-12.8563933288,0.0,10.0,0.0,0.0,0.0,10.0,0.0,0.0,0.0,10.0,-0.687628193458,-0.299738780688,-0.475374254579,1.0,0.0,0.0,0.0,1.0,0.0,0.0,0.0,1.0,-0.923280029297,6.64857421875,12.8744274902,0.1,0.0,0.0,0.0,0.1,0.0,0.0,0.0,0.1
1446040761294844577,1894,1446040761291670083,robocape,-22.8152390464,15.5026830753,-14.2714674842,0.0,10.0,0.0,0.0,0.0,10.0,0.0,0.0,0.0,10.0,-0.601741248303,-0.0765658813398,-0.84821680719,1.0,0.0,0.0,0.0,1.0,0.0,0.0,0.0,1.0,0.0838256835938,6.40907226563,12.4804467773,0.1,0.0,0.0,0.0,0.1,0.0,0.0,0.0,0.1
1446040761327412578,1895,1446040761323756933,robocape,-24.3875876984,15.0410884576,-16.0053835404,0.0,10.0,0.0,0.0,0.0,10.0,0.0,0.0,0.0,10.0,-0.655670260378,0.189350753505,-0.940894813125,1.0,0.0,0.0,0.0,1.0,0.0,0.0,0.0,1.0,0.146096191406,5.22353759766,13.02890625,0.1,0.0,0.0,0.0,0.1,0.0,0.0,0.0,0.1
1446040761361917453,1896,1446040761357618093,robocape,-25.3715736016,15.1711809268,-17.5281644111,0.0,10.0,0.0,0.0,0.0,10.0,0.0,0.0,0.0,10.0,-0.379766771445,0.445946324534,-0.713727172141,1.0,0.0,0.0,0.0,1.0,0.0,0.0,0.0,1.0,-0.723295898438,3.59013427734,12.4062011719,0.1,0.0,0.0,0.0,0.1,0.0,0.0,0.0,0.1
1446040761395162744,1897,1446040761392043113,robocape,-25.5444978062,15.566705449,-18.4167328444,0.0,10.0,0.0,0.0,0.0,10.0,0.0,0.0,0.0,10.0,-0.0206394984481,0.42543998414,-0.349939367236,1.0,0.0,0.0,0.0,1.0,0.0,0.0,0.0,1.0,-1.81542480469,4.04039794922,11.0985205078,0.1,0.0,0.0,0.0,0.1,0.0,0.0,0.0,0.1
1446040761425817494,1898,1446040761422735929,robocape,-25.36831756,16.1424449059,-18.8468382545,0.0,10.0,0.0,0.0,0.0,10.0,0.0,0.0,0.0,10.0,0.11145329162,0.402936272929,-0.0937432703708,1.0,0.0,0.0,0.0,1.0,0.0,0.0,0.0,1.0,-1.53161499023,3.4871484375,10.6338867188,0.1,0.0,0.0,0.0,0.1,0.0,0.0,0.0,0.1
1446040761459302286,1899,1446040761455920934,robocape,-24.5237235665,17.0295478498,-18.899410882,0.0,10.0,0.0,0.0,0.0,10.0,0.0,0.0,0.0,10.0,0.423975245541,0.457397917221,0.15433018517,1.0,0.0,0.0,0.0,1.0,0.0,0.0,0.0,1.0,-1.62262573242,3.54462890625,9.90220825195,0.1,0.0,0.0,0.0,0.1,0.0,0.0,0.0,0.1
1446040761490380703,1900,1446040761487328052,robocape,-22.7249451306,18.1820209646,-18.5621853412,0.0,10.0,0.0,0.0,0.0,10.0,0.0,0.0,0.0,10.0,0.88190579498,0.492684801665,0.391351522187,1.0,0.0,0.0,0.0,1.0,0.0,0.0,0.0,1.0,-1.57831787109,4.38528076172,7.98020507813,0.1,0.0,0.0,0.0,0.1,0.0,0.0,0.0,0.1
1446040761521799786,1901,1446040761518738985,robocape,-20.5725831103,19.8723751354,-17.8952579402,0.0,10.0,0.0,0.0,0.0,10.0,0.0,0.0,0.0,10.0,1.00667489205,0.709466114397,0.628506017259,1.0,0.0,0.0,0.0,1.0,0.0,0.0,0.0,1.0,-0.687370605469,5.27383300781,7.91434204102,0.1,0.0,0.0,0.0,0.1,0.0,0.0,0.0,0.1
1446040761555783411,1902,1446040761552553892,robocape,-18.2166639639,21.8547419962,-16.9086590157,0.0,10.0,0.0,0.0,0.0,10.0,0.0,0.0,0.0,10.0,1.04049703789,0.833569421195,0.792689898462,1.0,0.0,0.0,0.0,1.0,0.0,0.0,0.0,1.0,-1.31007568359,6.70365966797,6.86652099609,0.1,0.0,0.0,0.0,0.1,0.0,0.0,0.0,0.1
1446040761589776161,1903,1446040761586642026,robocape,-16.2156939084,23.3989516678,-15.6630981657,0.0,10.0,0.0,0.0,0.0,10.0,0.0,0.0,0.0,10.0,0.7864314699,0.614124947372,0.80533991364,1.0,0.0,0.0,0.0,1.0,0.0,0.0,0.0,1.0,-1.76153686523,7.71795043945,5.88815551758,0.1,0.0,0.0,0.0,0.1,0.0,0.0,0.0,0.1
1446040761623939411,1904,1446040761620872020,robocape,-15.8292559208,24.383536717,-14.8091820442,0.0,10.0,0.0,0.0,0.0,10.0,0.0,0.0,0.0,10.0,0.000399474163512,0.42543998414,0.517052725639,1.0,0.0,0.0,0.0,1.0,0.0,0.0,0.0,1.0,-1.16996704102,8.47597412109,4.981640625,0.1,0.0,0.0,0.0,0.1,0.0,0.0,0.0,0.1
1446040761659790744,1905,1446040761656258106,robocape,-16.5604743052,24.8841028618,-14.9331604328,0.0,10.0,0.0,0.0,0.0,10.0,0.0,0.0,0.0,10.0,-0.386025200007,0.329832501006,-0.00932106381528,1.0,0.0,0.0,0.0,1.0,0.0,0.0,0.0,1.0,-0.495769042969,6.50607055664,5.35885620117,0.1,0.0,0.0,0.0,0.1,0.0,0.0,0.0,0.1
1446040761696307994,1906,1446040761690550088,robocape,-17.9741442782,24.7874262034,-16.0584151083,0.0,10.0,0.0,0.0,0.0,10.0,0.0,0.0,0.0,10.0,-0.529835898871,0.182160218561,-0.557665932263,1.0,0.0,0.0,0.0,1.0,0.0,0.0,0.0,1.0,0.239501953125,7.31678466797,3.5290612793,0.1,0.0,0.0,0.0,0.1,0.0,0.0,0.0,0.1
1446040761730788369,1907,1446040761727530956,robocape,-20.5965407798,23.3154933797,-18.3411487023,0.0,10.0,0.0,0.0,0.0,10.0,0.0,0.0,0.0,10.0,-0.932239539582,-0.29001824271,-1.32678685508,1.0,0.0,0.0,0.0,1.0,0.0,0.0,0.0,1.0,-1.37713623047,6.1659777832,5.48698974609,0.1,0.0,0.0,0.0,0.1,0.0,0.0,0.0,0.1
1446040761764558203,1908,1446040761761467933,robocape,-23.0371960413,21.2484320344,-21.4153074046,0.0,10.0,0.0,0.0,0.0,10.0,0.0,0.0,0.0,10.0,-0.728907190355,-0.363255172687,-1.84490484515,1.0,0.0,0.0,0.0,1.0,0.0,0.0,0.0,1.0,0.439486083984,5.14689697266,5.54087768555,0.1,0.0,0.0,0.0,0.1,0.0,0.0,0.0,0.1
1446040761795111203,1909,1446040761792037010,robocape,-25.0928497209,19.2292945286,-24.6955355803,0.0,10.0,0.0,0.0,0.0,10.0,0.0,0.0,0.0,10.0,-0.566188047751,-0.202533400901,-1.99044659873,1.0,0.0,0.0,0.0,1.0,0.0,0.0,0.0,1.0,0.0694555664063,3.87633911133,6.78868286133,0.1,0.0,0.0,0.0,0.1,0.0,0.0,0.0,0.1
1446040761824390869,1910,1446040761821296930,robocape,-26.3274341354,17.7645551739,-27.2503928695,0.0,10.0,0.0,0.0,0.0,10.0,0.0,0.0,0.0,10.0,-0.310391425049,-0.0396811002422,-1.57233030758,1.0,0.0,0.0,0.0,1.0,0.0,0.0,0.0,1.0,-0.653840332031,4.29786254883,6.74317749023,0.1,0.0,0.0,0.0,0.1,0.0,0.0,0.0,0.1
1446040761858216578,1911,1446040761854990005,robocape,-26.8858527564,16.9802027544,-28.7419675174,0.0,10.0,0.0,0.0,0.0,10.0,0.0,0.0,0.0,10.0,-0.133957002831,0.0472711093489,-0.933970594291,1.0,0.0,0.0,0.0,1.0,0.0,0.0,0.0,1.0,-2.1495300293,4.02243530273,7.63053222656,0.1,0.0,0.0,0.0,0.1,0.0,0.0,0.0,0.1
1446040761889897536,1912,1446040761886895895,robocape,-27.0323157065,16.5989621878,-29.5096779416,0.0,10.0,0.0,0.0,0.0,10.0,0.0,0.0,0.0,10.0,-0.0194410759576,0.0584563859272,-0.50054112688,1.0,0.0,0.0,0.0,1.0,0.0,0.0,0.0,1.0,-1.30169311523,3.03329223633,8.11312866211,0.1,0.0,0.0,0.0,0.1,0.0,0.0,0.0,0.1
1446040761919976619,1913,1446040761916898965,robocape,-26.3165630837,16.6943990684,-30.1282418626,0.0,10.0,0.0,0.0,0.0,10.0,0.0,0.0,0.0,10.0,0.426105774413,0.229298169856,-0.304532470651,1.0,0.0,0.0,0.0,1.0,0.0,0.0,0.0,1.0,-1.23583007813,1.48730712891,8.83283203125,0.1,0.0,0.0,0.0,0.1,0.0,0.0,0.0,0.1
1446040761949401453,1914,1446040761946135044,robocape,-25.2430035322,16.740107017,-31.1752145308,0.0,10.0,0.0,0.0,0.0,10.0,0.0,0.0,0.0,10.0,0.677508181316,0.299605622634,-0.518783780347,1.0,0.0,0.0,0.0,1.0,0.0,0.0,0.0,1.0,-1.60346557617,3.93381958008,8.74301879883,0.1,0.0,0.0,0.0,0.1,0.0,0.0,0.0,0.1
1446040761980778453,1915,1446040761977696895,robocape,-24.1899112203,16.6418528934,-32.4775674212,0.0,10.0,0.0,0.0,0.0,10.0,0.0,0.0,0.0,10.0,0.7006776828,0.284825078584,-0.685098190423,1.0,0.0,0.0,0.0,1.0,0.0,0.0,0.0,1.0,-2.44770996094,3.50032104492,8.85318969727,0.1,0.0,0.0,0.0,0.1,0.0,0.0,0.0,0.1
1446040762009061869,1916,1446040762006031036,robocape,-23.084503542,16.2586020213,-33.9030206552,0.0,10.0,0.0,0.0,0.0,10.0,0.0,0.0,0.0,10.0,0.744087208568,0.164450197312,-0.815593083837,1.0,0.0,0.0,0.0,1.0,0.0,0.0,0.0,1.0,-3.22130126953,2.47285766602,8.80888183594,0.1,0.0,0.0,0.0,0.1,0.0,0.0,0.0,0.1
1446040762046319870,1917,1446040762042293071,robocape,-22.1348560965,15.6819927164,-35.0897953238,0.0,10.0,0.0,0.0,0.0,10.0,0.0,0.0,0.0,10.0,0.625842856169,0.00892158965177,-0.749014056585,1.0,0.0,0.0,0.0,1.0,0.0,0.0,0.0,1.0,-3.51349365234,4.7169909668,8.0125378418,0.1,0.0,0.0,0.0,0.1,0.0,0.0,0.0,0.1
1446040762078808078,1918,1446040762075764894,robocape,-22.7436274768,14.5354420948,-35.7732429131,0.0,10.0,0.0,0.0,0.0,10.0,0.0,0.0,0.0,10.0,-0.276569279205,-0.359926221324,-0.646349196562,1.0,0.0,0.0,0.0,1.0,0.0,0.0,0.0,1.0,-4.04279296875,4.5948449707,7.63891479492,0.1,0.0,0.0,0.0,0.1,0.0,0.0,0.0,0.1
1446040762110467870,1919,1446040762107378005,robocape,-23.6406078766,12.7874294061,-36.3597101587,0.0,10.0,0.0,0.0,0.0,10.0,0.0,0.0,0.0,10.0,-0.453136859477,-0.663260269484,-0.73822825417,1.0,0.0,0.0,0.0,1.0,0.0,0.0,0.0,1.0,-4.13380371094,2.49920288086,7.77303588867,0.1,0.0,0.0,0.0,0.1,0.0,0.0,0.0,0.1
1446040762146388453,1920,1446040762143156051,robocape,-24.5685974889,10.5069055928,-36.7150183737,0.0,10.0,0.0,0.0,0.0,10.0,0.0,0.0,0.0,10.0,-0.50613376517,-0.963132208227,-0.755538801255,1.0,0.0,0.0,0.0,1.0,0.0,0.0,0.0,1.0,-2.94108398438,2.40340209961,7.57903930664,0.1,0.0,0.0,0.0,0.1,0.0,0.0,0.0,0.1
1446040762181993578,1921,1446040762178695917,robocape,-24.8357511758,8.549283168,-36.542436452,0.0,10.0,0.0,0.0,0.0,10.0,0.0,0.0,0.0,10.0,-0.194943391794,-0.937299545653,-0.414521023671,1.0,0.0,0.0,0.0,1.0,0.0,0.0,0.0,1.0,-1.78069702148,1.16876953125,8.3502355957,0.1,0.0,0.0,0.0,0.1,0.0,0.0,0.0,0.1
1446040762217117995,1922,1446040762213984012,robocape,-24.6999912756,7.32214636255,-36.6806994706,0.0,10.0,0.0,0.0,0.0,10.0,0.0,0.0,0.0,10.0,0.0344879361165,-0.520248518947,-0.410925756199,1.0,0.0,0.0,0.0,1.0,0.0,0.0,0.0,1.0,-1.30049560547,2.99616943359,8.35861816406,0.1,0.0,0.0,0.0,0.1,0.0,0.0,0.0,0.1
1446040762250827953,1923,1446040762247543096,robocape,-24.3647464544,6.27021887277,-37.6461648936,0.0,10.0,0.0,0.0,0.0,10.0,0.0,0.0,0.0,10.0,0.164849671476,-0.244744504178,-0.805073597531,1.0,0.0,0.0,0.0,1.0,0.0,0.0,0.0,1.0,-1.41545654297,2.66805175781,9.21364013672,0.1,0.0,0.0,0.0,0.1,0.0,0.0,0.0,0.1
1446040762280337328,1924,1446040762277318000,robocape,-23.9239519619,5.38527679095,-39.065253024,0.0,10.0,0.0,0.0,0.0,10.0,0.0,0.0,0.0,10.0,0.220509738259,-0.0640490242164,-1.01746069446,1.0,0.0,0.0,0.0,1.0,0.0,0.0,0.0,1.0,-1.67771118164,3.97573242188,9.42440185547,0.1,0.0,0.0,0.0,0.1,0.0,0.0,0.0,0.1
1446040762308815328,1925,1446040762305749893,robocape,-24.2042140077,4.82736759619,-40.3030615685,0.0,10.0,0.0,0.0,0.0,10.0,0.0,0.0,0.0,10.0,-0.188818121287,0.0584563859272,-0.889495804086,1.0,0.0,0.0,0.0,1.0,0.0,0.0,0.0,1.0,-2.17827026367,6.70844970703,9.60642333984,0.1,0.0,0.0,0.0,0.1,0.0,0.0,0.0,0.1
1446040762342088286,1926,1446040762339032888,robocape,-24.707176764,4.20014413917,-41.6283478082,0.0,10.0,0.0,0.0,0.0,10.0,0.0,0.0,0.0,10.0,-0.324106704663,0.0561926990007,-0.976980645896,1.0,0.0,0.0,0.0,1.0,0.0,0.0,0.0,1.0,-2.74828491211,2.70517456055,10.382409668,0.1,0.0,0.0,0.0,0.1,0.0,0.0,0.0,0.1
1446040762376785495,1927,1446040762373174905,robocape,-24.059460413,3.38148189809,-43.4320056046,0.0,10.0,0.0,0.0,0.0,10.0,0.0,0.0,0.0,10.0,0.28855350411,0.0669785014155,-1.25727835063,1.0,0.0,0.0,0.0,1.0,0.0,0.0,0.0,1.0,-1.71842651367,1.51005981445,10.7787854004,0.1,0.0,0.0,0.0,0.1,0.0,0.0,0.0,0.1
1446040762409407911,1928,1446040762406117916,robocape,-22.0863813757,2.95082582895,-45.5770445191,0.0,10.0,0.0,0.0,0.0,10.0,0.0,0.0,0.0,10.0,0.999484357107,0.294012984345,-1.33530897057,1.0,0.0,0.0,0.0,1.0,0.0,0.0,0.0,1.0,-0.857416992188,3.11592041016,10.7045397949,0.1,0.0,0.0,0.0,0.1,0.0,0.0,0.0,0.1
1446040762442598328,1929,1446040762439541101,robocape,-20.4315124698,3.0144723892,-47.7550410625,0.0,10.0,0.0,0.0,0.0,10.0,0.0,0.0,0.0,10.0,0.824381515434,0.513324300113,-1.30960946605,1.0,0.0,0.0,0.0,1.0,0.0,0.0,0.0,1.0,-2.40938964844,5.40196655273,10.3656445313,0.1,0.0,0.0,0.0,0.1,0.0,0.0,0.0,0.1
1446040762475862828,1930,1446040762472579956,robocape,-18.9516644318,2.9532286803,-49.9630655999,0.0,10.0,0.0,0.0,0.0,10.0,0.0,0.0,0.0,10.0,0.730105612845,0.435027364064,-1.40788011027,1.0,0.0,0.0,0.0,1.0,0.0,0.0,0.0,1.0,-3.55660400391,4.79961914063,10.2315234375,0.1,0.0,0.0,0.0,0.1,0.0,0.0,0.0,0.1
1446040762508589786,1931,1446040762505567073,robocape,-17.7767677381,2.45861272201,-52.1713818527,0.0,10.0,0.0,0.0,0.0,10.0,0.0,0.0,0.0,10.0,0.559396986971,0.199204449538,-1.5476960675,1.0,0.0,0.0,0.0,1.0,0.0,0.0,0.0,1.0,-4.38767578125,5.01157836914,10.2482885742,0.1,0.0,0.0,0.0,0.1,0.0,0.0,0.0,0.1
1446040762547110578,1932,1446040762543092012,robocape,-16.6762981326,1.49861481862,-54.2008815126,0.0,10.0,0.0,0.0,0.0,10.0,0.0,0.0,0.0,10.0,0.505334816843,-0.0900148448447,-1.56447398237,1.0,0.0,0.0,0.0,1.0,0.0,0.0,0.0,1.0,-3.37098999023,4.78045898438,10.3752246094,0.1,0.0,0.0,0.0,0.1,0.0,0.0,0.0,0.1
1446040762577762286,1933,1446040762574239015,robocape,-16.0473139422,0.519461909962,-56.1082843524,0.0,10.0,0.0,0.0,0.0,10.0,0.0,0.0,0.0,10.0,0.233426069545,-0.139017008902,-1.54982659637,1.0,0.0,0.0,0.0,1.0,0.0,0.0,0.0,1.0,-2.87522094727,5.77439208984,10.0566870117,0.1,0.0,0.0,0.0,0.1,0.0,0.0,0.0,0.1
1446040762609295370,1934,1446040762606182098,robocape,-15.5364786343,-0.459722850478,-57.9812865204,0.0,10.0,0.0,0.0,0.0,10.0,0.0,0.0,0.0,10.0,0.148338072717,-0.158724400969,-1.57446083645,1.0,0.0,0.0,0.0,1.0,0.0,0.0,0.0,1.0,-1.97110107422,4.08710083008,9.75730957031,0.1,0.0,0.0,0.0,0.1,0.0,0.0,0.0,0.1
1446040762645716245,1935,1446040762641458034,robocape,-14.6858599329,-1.34349927857,-59.8484018616,0.0,10.0,0.0,0.0,0.0,10.0,0.0,0.0,0.0,10.0,0.310657741158,-0.129829103141,-1.58404821638,1.0,0.0,0.0,0.0,1.0,0.0,0.0,0.0,1.0,-1.88009033203,3.28237426758,9.20525756836,0.1,0.0,0.0,0.0,0.1,0.0,0.0,0.0,0.1
1446040762680508328,1936,1446040762676877021,robocape,-13.5330953339,-2.21205992487,-61.700477833,0.0,10.0,0.0,0.0,0.0,10.0,0.0,0.0,0.0,10.0,0.456732126949,-0.150069127426,-1.60189139568,1.0,0.0,0.0,0.0,1.0,0.0,0.0,0.0,1.0,-2.19024536133,3.02490966797,8.63404541016,0.1,0.0,0.0,0.0,0.1,0.0,0.0,0.0,0.1
1446040762720721162,1937,1446040762717457056,robocape,-12.3583087851,-2.93622087441,-63.4140580016,0.0,10.0,0.0,0.0,0.0,10.0,0.0,0.0,0.0,10.0,0.463789503837,-0.123836990689,-1.52532551434,1.0,0.0,0.0,0.0,1.0,0.0,0.0,0.0,1.0,-2.70277954102,3.02131713867,7.48563354492,0.1,0.0,0.0,0.0,0.1,0.0,0.0,0.0,0.1
