%time,field.header.seq,field.header.stamp,field.header.frame_id,field.orientation.x,field.orientation.y,field.orientation.z,field.orientation.w,field.orientation_covariance0,field.orientation_covariance1,field.orientation_covariance2,field.orientation_covariance3,field.orientation_covariance4,field.orientation_covariance5,field.orientation_covariance6,field.orientation_covariance7,field.orientation_covariance8,field.angular_velocity.x,field.angular_velocity.y,field.angular_velocity.z,field.angular_velocity_covariance0,field.angular_velocity_covariance1,field.angular_velocity_covariance2,field.angular_velocity_covariance3,field.angular_velocity_covariance4,field.angular_velocity_covariance5,field.angular_velocity_covariance6,field.angular_velocity_covariance7,field.angular_velocity_covariance8,field.linear_acceleration.x,field.linear_acceleration.y,field.linear_acceleration.z,field.linear_acceleration_covariance0,field.linear_acceleration_covariance1,field.linear_acceleration_covariance2,field.linear_acceleration_covariance3,field.linear_acceleration_covariance4,field.linear_acceleration_covariance5,field.linear_acceleration_covariance6,field.linear_acceleration_covariance7,field.linear_acceleration_covariance8
1464075973191713415,226,1464075972968683180,,-13.3051738739,3.60060739517,-178.236907959,0.00126900000032,1.0,0.0,0.0,0.0,1.0,0.0,0.0,0.0,1.0,3.35365867615,-54.7560997009,52.7439041138,1.0,0.0,0.0,0.0,1.0,0.0,0.0,0.0,1.0,4.16112219309,-1.23061965332,10.5775829346,1.0,0.0,0.0,0.0,1.0,0.0,0.0,0.0,1.0
1464075973191773988,227,1464075972991346974,,-14.5239534378,3.21493124962,-177.010620117,0.00181899999734,1.0,0.0,0.0,0.0,1.0,0.0,0.0,0.0,1.0,-0.12195122242,-40.1219520569,48.1097602844,1.0,0.0,0.0,0.0,1.0,0.0,0.0,0.0,1.0,4.40054265137,-0.885854614258,10.4530844482,1.0,0.0,0.0,0.0,1.0,0.0,0.0,0.0,1.0
1464075973191812165,228,1464075973011009525,,-15.4228048325,2.79935026169,-175.93661499,0.00231799995527,1.0,0.0,0.0,0.0,1.0,0.0,0.0,0.0,1.0,-2.92682933807,-26.5243911743,38.9024391174,1.0,0.0,0.0,0.0,1.0,0.0,0.0,0.0,1.0,4.60644399414,-0.995987890625,10.7643306641,1.0,0.0,0.0,0.0,1.0,0.0,0.0,0.0,1.0
1464075973191854144,229,1464075973033489881,,-15.9417476654,2.35895872116,-175.033004761,0.00333400000818,1.0,0.0,0.0,0.0,1.0,0.0,0.0,0.0,1.0,-5.54878091812,-11.4634151459,28.8414649963,1.0,0.0,0.0,0.0,1.0,0.0,0.0,0.0,1.0,4.06535441895,-1.16358193377,10.7499654541,1.0,0.0,0.0,0.0,1.0,0.0,0.0,0.0,1.0
1464075973192328362,230,1464075973055340604,,-16.1815128326,1.94123625755,-174.33480835,0.00212599989027,1.0,0.0,0.0,0.0,1.0,0.0,0.0,0.0,1.0,-5.85365867615,-0.731707334518,19.5121955872,1.0,0.0,0.0,0.0,1.0,0.0,0.0,0.0,1.0,3.97916315918,-0.909796630859,9.68693991699,1.0,0.0,0.0,0.0,1.0,0.0,0.0,0.0,1.0
1464075973192414039,231,1464075973077986585,,-16.257610321,1.58255207539,-173.84967041,0.00718099996448,1.0,0.0,0.0,0.0,1.0,0.0,0.0,0.0,1.0,-3.59756112099,7.56097555161,10.2439022064,1.0,0.0,0.0,0.0,1.0,0.0,0.0,0.0,1.0,4.15633378977,-1.35511813965,9.14106193848,1.0,0.0,0.0,0.0,1.0,0.0,0.0,0.0,1.0
1464075973192515757,232,1464075973109224418,,-16.1489200592,1.3493411541,-173.501098633,0.00220600003377,1.0,0.0,0.0,0.0,1.0,0.0,0.0,0.0,1.0,3.84146332741,15.0000009537,4.02439022064,1.0,0.0,0.0,0.0,1.0,0.0,0.0,0.0,1.0,3.7253777832,-1.36469494629,8.45153127583,1.0,0.0,0.0,0.0,1.0,0.0,0.0,0.0,1.0
1464075973192671278,233,1464075973123223860,,-15.9234018326,1.26710164547,-173.228866577,0.00432100007311,1.0,0.0,0.0,0.0,1.0,0.0,0.0,0.0,1.0,8.78048801422,16.158536911,2.37804889679,1.0,0.0,0.0,0.0,1.0,0.0,0.0,0.0,1.0,3.35188232422,-1.33117612305,8.31266757954,1.0,0.0,0.0,0.0,1.0,0.0,0.0,0.0,1.0
1464075973192815027,234,1464075973144026200,,-15.6953897476,1.3796132803,-173.053924561,0.00392699986696,1.0,0.0,0.0,0.0,1.0,0.0,0.0,0.0,1.0,14.8170728683,23.7195129395,0.304878056049,1.0,0.0,0.0,0.0,1.0,0.0,0.0,0.0,1.0,4.18027580637,-1.02950671387,8.17380446777,1.0,0.0,0.0,0.0,1.0,0.0,0.0,0.0,1.0
1464075973192985339,235,1464075973165663277,,-15.155629158,1.61469709873,-172.866546631,0.00233999988995,1.0,0.0,0.0,0.0,1.0,0.0,0.0,0.0,1.0,18.2317085266,44.5121955872,0.548780500889,1.0,0.0,0.0,0.0,1.0,0.0,0.0,0.0,1.0,4.84107575684,-0.823605371094,8.39885883931,1.0,0.0,0.0,0.0,1.0,0.0,0.0,0.0,1.0
1464075973203212968,236,1464075973188059832,,-14.1023464203,1.90301692486,-172.676010132,0.00552000012249,1.0,0.0,0.0,0.0,1.0,0.0,0.0,0.0,1.0,17.6829280853,77.6829299927,0.0609756112099,1.0,0.0,0.0,0.0,1.0,0.0,0.0,0.0,1.0,5.02303508301,-0.483628735352,8.8872765625,1.0,0.0,0.0,0.0,1.0,0.0,0.0,0.0,1.0
1464075973283334941,237,1464075973208268059,,-12.3039836884,2.21141314507,-172.572296143,0.00164000003133,1.0,0.0,0.0,0.0,1.0,0.0,0.0,0.0,1.0,16.341463089,104.207321167,-7.98780536652,1.0,0.0,0.0,0.0,1.0,0.0,0.0,0.0,1.0,4.53461794434,-0.531512805087,9.25119521484,1.0,0.0,0.0,0.0,1.0,0.0,0.0,0.0,1.0
1464075973283760721,238,1464075973232907263,,-9.93605709076,2.53202319145,-172.672714233,0.00211000000127,1.0,0.0,0.0,0.0,1.0,0.0,0.0,0.0,1.0,14.7560987473,132.926834106,-20.0609760284,1.0,0.0,0.0,0.0,1.0,0.0,0.0,0.0,1.0,4.62559760742,-0.435744702148,9.53371159526,1.0,0.0,0.0,0.0,1.0,0.0,0.0,0.0,1.0
1464075973283806294,239,1464075973251921327,,-6.97463846207,2.82301187515,-172.942977905,0.00325500010513,1.0,0.0,0.0,0.0,1.0,0.0,0.0,0.0,1.0,14.5121955872,164.146347046,-28.475610733,1.0,0.0,0.0,0.0,1.0,0.0,0.0,0.0,1.0,4.78361520925,-0.588973571866,9.60074924175,1.0,0.0,0.0,0.0,1.0,0.0,0.0,0.0,1.0
1464075973283842648,240,1464075973272884708,,-3.50467371941,3.11681652069,-173.438247681,0.00237799994648,1.0,0.0,0.0,0.0,1.0,0.0,0.0,0.0,1.0,13.9024391174,178.780487061,-46.0975646973,1.0,0.0,0.0,0.0,1.0,0.0,0.0,0.0,1.0,2.39420180629,-0.3064578125,9.34217429341,1.0,0.0,0.0,0.0,1.0,0.0,0.0,0.0,1.0
1464075973362574468,241,1464075973293256529,,0.105405002832,3.35516643524,-174.283752441,0.00293600000441,1.0,0.0,0.0,0.0,1.0,0.0,0.0,0.0,1.0,14.4512205124,181.34147644,-62.7439041138,1.0,0.0,0.0,0.0,1.0,0.0,0.0,0.0,1.0,1.20667770978,-0.660799658203,9.79707319336,1.0,0.0,0.0,0.0,1.0,0.0,0.0,0.0,1.0
1464075973362968217,242,1464075973315010220,,3.80018687248,3.51467442513,-175.357437134,0.0012300000526,1.0,0.0,0.0,0.0,1.0,0.0,0.0,0.0,1.0,15.7317075729,190.792678833,-67.8048782349,1.0,0.0,0.0,0.0,1.0,0.0,0.0,0.0,1.0,1.05823706072,-0.967257470703,10.8217915039,1.0,0.0,0.0,0.0,1.0,0.0,0.0,0.0,1.0
1464075973365680918,243,1464075973337112609,,8.1974811554,3.59788036346,-176.406890869,0.0027429999318,1.0,0.0,0.0,0.0,1.0,0.0,0.0,0.0,1.0,19.0243911743,205.243896484,-56.5243911743,1.0,0.0,0.0,0.0,1.0,0.0,0.0,0.0,1.0,1.25456166992,-1.33117612305,10.7212350342,1.0,0.0,0.0,0.0,1.0,0.0,0.0,0.0,1.0
1464075973396945365,244,1464075973363106706,,13.1468629837,3.83703422546,-177.087768555,0.00456900009885,1.0,0.0,0.0,0.0,1.0,0.0,0.0,0.0,1.0,23.3536586761,219.939025879,-44.8780479431,1.0,0.0,0.0,0.0,1.0,0.0,0.0,0.0,1.0,-0.828393774414,-0.785298144531,8.69574042969,1.0,0.0,0.0,0.0,1.0,0.0,0.0,0.0,1.0
1464075973397325416,245,1464075973384468732,,18.137928009,4.04848432541,-177.888122559,0.00302099995315,1.0,0.0,0.0,0.0,1.0,0.0,0.0,0.0,1.0,25.8536586761,207.500015259,-53.2926864624,1.0,0.0,0.0,0.0,1.0,0.0,0.0,0.0,1.0,-3.0406361084,-0.857124194336,8.82981572266,1.0,0.0,0.0,0.0,1.0,0.0,0.0,0.0,1.0
1464075973828668166,246,1464075973404470241,,22.3815917969,4.2547044754,-178.761657715,0.00433799996972,1.0,0.0,0.0,0.0,1.0,0.0,0.0,0.0,1.0,27.7439041138,185.731719971,-55.3048820496,1.0,0.0,0.0,0.0,1.0,0.0,0.0,0.0,1.0,-4.04141240234,-0.229843359375,9.88326445312,1.0,0.0,0.0,0.0,1.0,0.0,0.0,0.0,1.0
1464075973828721864,247,1464075973427263305,,26.030210495,4.38074541092,-179.549133301,0.00167999998666,1.0,0.0,0.0,0.0,1.0,0.0,0.0,0.0,1.0,23.5975627899,169.634155273,-47.5609779358,1.0,0.0,0.0,0.0,1.0,0.0,0.0,0.0,1.0,-3.78762702637,-0.660799658203,8.9112185791,1.0,0.0,0.0,0.0,1.0,0.0,0.0,0.0,1.0
1464075973828764676,248,1464075973446966637,,29.6409339905,4.45650291443,179.747665405,0.00212200009264,1.0,0.0,0.0,0.0,1.0,0.0,0.0,0.0,1.0,22.6219520569,158.475616455,-39.390247345,1.0,0.0,0.0,0.0,1.0,0.0,0.0,0.0,1.0,-4.48194550781,-0.646434448242,8.26478413086,1.0,0.0,0.0,0.0,1.0,0.0,0.0,0.0,1.0
1464075973828804520,249,1464075973471350739,,33.1036911011,4.50268602371,179.023574829,0.00331799988635,1.0,0.0,0.0,0.0,1.0,0.0,0.0,0.0,1.0,23.5365848541,131.158538818,-36.2195129395,1.0,0.0,0.0,0.0,1.0,0.0,0.0,0.0,1.0,-5.65510432129,-1.04387185076,8.14028564453,1.0,0.0,0.0,0.0,1.0,0.0,0.0,0.0,1.0
1464075973828841811,250,1464075973496032339,,35.9889602661,4.53102111816,178.159179688,0.00784900039434,1.0,0.0,0.0,0.0,1.0,0.0,0.0,0.0,1.0,24.1463432312,89.5731735229,-36.2195129395,1.0,0.0,0.0,0.0,1.0,0.0,0.0,0.0,1.0,-7.14429775391,-0.636857641602,8.90643017578,1.0,0.0,0.0,0.0,1.0,0.0,0.0,0.0,1.0
1464075973828879780,251,1464075973519081704,,37.4721717834,4.5568728447,177.398727417,0.00215999991633,1.0,0.0,0.0,0.0,1.0,0.0,0.0,0.0,1.0,19.6951236725,35.1829299927,-33.4146347046,1.0,0.0,0.0,0.0,1.0,0.0,0.0,0.0,1.0,-8.30787917622,0.225054956055,9.74918916016,1.0,0.0,0.0,0.0,1.0,0.0,0.0,0.0,1.0
1464075973828917019,252,1464075973540337064,,37.7986679077,4.47575950623,176.725326538,0.00228099990636,1.0,0.0,0.0,0.0,1.0,0.0,0.0,0.0,1.0,10.7926826477,-12.6829271317,-26.2804889679,1.0,0.0,0.0,0.0,1.0,0.0,0.0,0.0,1.0,-8.2743609375,0.339976635742,9.13627353516,1.0,0.0,0.0,0.0,1.0,0.0,0.0,0.0,1.0
1464075973828955457,253,1464075973562263776,,37.0499076843,4.31579494476,176.210327148,0.00270899990574,1.0,0.0,0.0,0.0,1.0,0.0,0.0,0.0,1.0,0.914634168148,-55.4878082275,-12.3170728683,1.0,0.0,0.0,0.0,1.0,0.0,0.0,0.0,1.0,-7.13950935059,0.167594116211,8.89206496582,1.0,0.0,0.0,0.0,1.0,0.0,0.0,0.0,1.0
1464075973828998373,254,1464075973583450959,,35.4447479248,4.27265024185,176.240646362,0.00257400004193,1.0,0.0,0.0,0.0,1.0,0.0,0.0,0.0,1.0,-8.65853691101,-76.4634170532,10.6097564697,1.0,0.0,0.0,0.0,1.0,0.0,0.0,0.0,1.0,-5.53060583496,0.531512805087,8.91600698242,1.0,0.0,0.0,0.0,1.0,0.0,0.0,0.0,1.0
1464075973838038141,255,1464075973605009547,,33.5567626953,4.3089261055,176.773498535,0.00150100002065,1.0,0.0,0.0,0.0,1.0,0.0,0.0,0.0,1.0,-19.6341457367,-97.0731735229,30.7317066193,1.0,0.0,0.0,0.0,1.0,0.0,0.0,0.0,1.0,-5.58327827148,0.660799658203,8.70052883301,1.0,0.0,0.0,0.0,1.0,0.0,0.0,0.0,1.0
1464075973840088500,256,1464075973629353023,,31.1849975586,4.29878997803,177.618133545,0.00191300001461,1.0,0.0,0.0,0.0,1.0,0.0,0.0,0.0,1.0,-28.4146347046,-128.10975647,42.0731697083,1.0,0.0,0.0,0.0,1.0,0.0,0.0,0.0,1.0,-5.64073911133,0.679953271484,8.27914934082,1.0,0.0,0.0,0.0,1.0,0.0,0.0,0.0,1.0
1464075973840142458,257,1464075973648378076,,27.9376182556,4.11112737656,178.623016357,0.00143599999137,1.0,0.0,0.0,0.0,1.0,0.0,0.0,0.0,1.0,-35.3658561707,-168.170730591,49.3292694092,1.0,0.0,0.0,0.0,1.0,0.0,0.0,0.0,1.0,-5.67904633789,0.435744702148,7.73805976562,1.0,0.0,0.0,0.0,1.0,0.0,0.0,0.0,1.0
1464075973840181052,258,1464075973673532124,,22.3791236877,3.63315701485,179.990020752,0.00932100042701,1.0,0.0,0.0,0.0,1.0,0.0,0.0,0.0,1.0,-37.8048782349,-219.817077637,59.390247345,1.0,0.0,0.0,0.0,1.0,0.0,0.0,0.0,1.0,-4.46279189453,-0.387860668945,8.02057556152,1.0,0.0,0.0,0.0,1.0,0.0,0.0,0.0,1.0
1464075973840224854,259,1464075973696035240,,17.1555080414,3.15995526314,-178.73626709,0.0017419999931,1.0,0.0,0.0,0.0,1.0,0.0,0.0,0.0,1.0,-33.3536605835,-256.40246582,73.2317123413,1.0,0.0,0.0,0.0,1.0,0.0,0.0,0.0,1.0,-3.31357509766,-1.0534486574,8.14028564453,1.0,0.0,0.0,0.0,1.0,0.0,0.0,0.0,1.0
1464075973840261676,260,1464075973718747888,,11.1503019333,2.70612573624,-177.082321167,0.00198800000362,1.0,0.0,0.0,0.0,1.0,0.0,0.0,0.0,1.0,-25.975610733,-278.780487061,93.9024429321,1.0,0.0,0.0,0.0,1.0,0.0,0.0,0.0,1.0,-1.85790048828,-1.69988317871,8.11155522461,1.0,0.0,0.0,0.0,1.0,0.0,0.0,0.0,1.0
1464075973840305426,261,1464075973738891740,,5.0638012886,2.28505468369,-175.063659668,0.00205400004052,1.0,0.0,0.0,0.0,1.0,0.0,0.0,0.0,1.0,-17.3780498505,-294.024414062,116.219512939,1.0,0.0,0.0,0.0,1.0,0.0,0.0,0.0,1.0,-0.0861912597656,-2.02070620117,8.68137521973,1.0,0.0,0.0,0.0,1.0,0.0,0.0,0.0,1.0
1464075973840344072,262,1464075973761101420,,-1.30818772316,1.81668567657,-172.483581543,0.00159600004554,1.0,0.0,0.0,0.0,1.0,0.0,0.0,0.0,1.0,-9.81707286835,-291.40246582,136.829269409,1.0,0.0,0.0,0.0,1.0,0.0,0.0,0.0,1.0,1.93930334473,-2.43250888672,8.63349177105,1.0,0.0,0.0,0.0,1.0,0.0,0.0,0.0,1.0
1464075973840382249,263,1464075973781629490,,-7.9668006897,1.18490958214,-169.410675049,0.00231499993242,1.0,0.0,0.0,0.0,1.0,0.0,0.0,0.0,1.0,-2.56097555161,-282.195129395,142.195129395,1.0,0.0,0.0,0.0,1.0,0.0,0.0,0.0,1.0,3.66791694336,-1.38863696289,8.0397291748,1.0,0.0,0.0,0.0,1.0,0.0,0.0,0.0,1.0
1464075973840478603,264,1464075973803944170,,-14.5486011505,0.398442417383,-166.158706665,0.00299099995755,1.0,0.0,0.0,0.0,1.0,0.0,0.0,0.0,1.0,0.792682945728,-264.512207031,135.304870605,1.0,0.0,0.0,0.0,1.0,0.0,0.0,0.0,1.0,5.79396801758,-1.03908344744,8.17859287109,1.0,0.0,0.0,0.0,1.0,0.0,0.0,0.0,1.0
1464075973940595418,265,1464075973829902433,,-21.3953323364,-0.839918792248,-162.35609436,0.0125339999795,1.0,0.0,0.0,0.0,1.0,0.0,0.0,0.0,1.0,5.73170757294,-219.024398804,119.573173523,1.0,0.0,0.0,0.0,1.0,0.0,0.0,0.0,1.0,7.80030900879,-2.03028300781,8.09719001465,1.0,0.0,0.0,0.0,1.0,0.0,0.0,0.0,1.0
1464075973940637657,266,1464075973851735812,,-25.635887146,-1.89309751987,-159.396469116,0.00154399999883,1.0,0.0,0.0,0.0,1.0,0.0,0.0,0.0,1.0,11.9512195587,-154.146331787,106.280487061,1.0,0.0,0.0,0.0,1.0,0.0,0.0,0.0,1.0,9.73003554687,-1.8626888916,10.0652237793,1.0,0.0,0.0,0.0,1.0,0.0,0.0,0.0,1.0
1464075973940682709,267,1464075973872428257,,-28.1738147736,-2.80631351471,-156.890075684,0.00144799996633,1.0,0.0,0.0,0.0,1.0,0.0,0.0,0.0,1.0,14.4512205124,-88.9634170532,86.2195129395,1.0,0.0,0.0,0.0,1.0,0.0,0.0,0.0,1.0,8.84418093262,-1.65678754883,10.4387192383,1.0,0.0,0.0,0.0,1.0,0.0,0.0,0.0,1.0
1464075973944911604,268,1464075973894284084,,-29.5268230438,-3.43724679947,-154.914276123,0.0014609999489,1.0,0.0,0.0,0.0,1.0,0.0,0.0,0.0,1.0,16.4634151459,-39.634147644,55.9756126404,1.0,0.0,0.0,0.0,1.0,0.0,0.0,0.0,1.0,7.80509741211,-1.10612116699,9.90241806641,1.0,0.0,0.0,0.0,1.0,0.0,0.0,0.0,1.0
1464075973946391756,269,1464075973917190689,,-30.0031471252,-3.61845469475,-153.82232666,0.00133700005244,1.0,0.0,0.0,0.0,1.0,0.0,0.0,0.0,1.0,20.8536586761,-9.02439117432,19.9390239716,1.0,0.0,0.0,0.0,1.0,0.0,0.0,0.0,1.0,6.32069238281,-1.73340200195,9.43315395649,1.0,0.0,0.0,0.0,1.0,0.0,0.0,0.0,1.0
1464075973946448788,270,1464075973938579798,,-30.0156288147,-3.27141165733,-153.554489136,0.00388299999759,1.0,0.0,0.0,0.0,1.0,0.0,0.0,0.0,1.0,24.0853652954,4.93902444839,-8.47560977936,1.0,0.0,0.0,0.0,1.0,0.0,0.0,0.0,1.0,5.65031591797,-1.31681091309,9.18415756836,1.0,0.0,0.0,0.0,1.0,0.0,0.0,0.0,1.0
1464075974315667537,271,1464075973962103746,,-29.7424468994,-2.6310095787,-153.866912842,0.00179799995385,1.0,0.0,0.0,0.0,1.0,0.0,0.0,0.0,1.0,25.4878044128,22.9878044128,-25.975610733,1.0,0.0,0.0,0.0,1.0,0.0,0.0,0.0,1.0,6.18661708984,-1.34554133301,9.04050546875,1.0,0.0,0.0,0.0,1.0,0.0,0.0,0.0,1.0
1464075974315986547,272,1464075973981397548,,-29.0742225647,-1.8481553793,-154.429290771,0.00138100003824,1.0,0.0,0.0,0.0,1.0,0.0,0.0,0.0,1.0,25.4268302917,43.0487823486,-28.6585388184,1.0,0.0,0.0,0.0,1.0,0.0,0.0,0.0,1.0,5.66946953125,-1.27850368652,8.5999729478,1.0,0.0,0.0,0.0,1.0,0.0,0.0,0.0,1.0
1464075974316320921,273,1464075974002872438,,-27.9825344086,-1.11359477043,-154.955535889,0.00162400002591,1.0,0.0,0.0,0.0,1.0,0.0,0.0,0.0,1.0,24.817073822,53.9634170532,-26.2804889679,1.0,0.0,0.0,0.0,1.0,0.0,0.0,0.0,1.0,4.52025273438,-1.09654436035,8.38449362935,1.0,0.0,0.0,0.0,1.0,0.0,0.0,0.0,1.0
1464075974316652066,274,1464075974023350404,,-26.8411808014,-0.474712193012,-155.357421875,0.00135300005786,1.0,0.0,0.0,0.0,1.0,0.0,0.0,0.0,1.0,23.7804889679,54.8780517578,-21.4634151459,1.0,0.0,0.0,0.0,1.0,0.0,0.0,0.0,1.0,3.9121255127,-0.837970581055,7.59440766602,1.0,0.0,0.0,0.0,1.0,0.0,0.0,0.0,1.0
1464075974316984721,275,1464075974044400556,,-25.7768440247,0.105620965362,-155.659515381,0.00125500001013,1.0,0.0,0.0,0.0,1.0,0.0,0.0,0.0,1.0,21.8292694092,47.317073822,-18.1707305908,1.0,0.0,0.0,0.0,1.0,0.0,0.0,0.0,1.0,3.63918652344,-0.593762048251,7.21133540039,1.0,0.0,0.0,0.0,1.0,0.0,0.0,0.0,1.0
1464075974317274825,276,1464075974065595499,,-24.8975944519,0.635875821114,-155.884674072,0.00130700005684,1.0,0.0,0.0,0.0,1.0,0.0,0.0,0.0,1.0,19.2682914734,36.8902435303,-14.6341466904,1.0,0.0,0.0,0.0,1.0,0.0,0.0,0.0,1.0,3.4428619873,-0.397437475586,7.39808312988,1.0,0.0,0.0,0.0,1.0,0.0,0.0,0.0,1.0
1464075974317633313,277,1464075974086563672,,-24.2438983917,1.05390787125,-156.00402832,0.00136800005566,1.0,0.0,0.0,0.0,1.0,0.0,0.0,0.0,1.0,16.0975608826,26.0975627899,-9.02439117432,1.0,0.0,0.0,0.0,1.0,0.0,0.0,0.0,1.0,3.7493197998,-0.430956298828,7.47948598633,1.0,0.0,0.0,0.0,1.0,0.0,0.0,0.0,1.0
1464075974317943625,278,1464075974108903456,,-23.7933292389,1.35216653347,-155.981323242,0.00243499991484,1.0,0.0,0.0,0.0,1.0,0.0,0.0,0.0,1.0,13.048781395,19.4512195587,-3.04878044128,1.0,0.0,0.0,0.0,1.0,0.0,0.0,0.0,1.0,4.28083286062,-0.191536132812,7.65186850586,1.0,0.0,0.0,0.0,1.0,0.0,0.0,0.0,1.0
1464075974318229301,279,1464075974133525734,,-23.4544525146,1.52329289913,-155.844970703,0.00143299996853,1.0,0.0,0.0,0.0,1.0,0.0,0.0,0.0,1.0,9.08536529541,24.9390239716,0.670731723309,1.0,0.0,0.0,0.0,1.0,0.0,0.0,0.0,1.0,4.52982954102,-0.320823022461,8.14028564453,1.0,0.0,0.0,0.0,1.0,0.0,0.0,0.0,1.0
1464075974318488207,280,1464075974151795685,,-23.0007305145,1.62878262997,-155.695144653,0.00136400002521,1.0,0.0,0.0,0.0,1.0,0.0,0.0,0.0,1.0,6.0365858078,28.4146347046,-0.731707334518,1.0,0.0,0.0,0.0,1.0,0.0,0.0,0.0,1.0,5.00388146973,-0.00478840332031,8.65264538433,1.0,0.0,0.0,0.0,1.0,0.0,0.0,0.0,1.0
1464075974318744508,281,1464075974173150888,,-22.4257736206,1.6817368269,-155.59753418,0.00131600000896,1.0,0.0,0.0,0.0,1.0,0.0,0.0,0.0,1.0,0.914634168148,38.1097564697,-4.14634132385,1.0,0.0,0.0,0.0,1.0,0.0,0.0,0.0,1.0,5.07091911621,0.0526724365234,8.93037219238,1.0,0.0,0.0,0.0,1.0,0.0,0.0,0.0,1.0
1464075974319001434,282,1464075974201038782,,-21.3707199097,1.69540846348,-155.716201782,0.011756000109,1.0,0.0,0.0,0.0,1.0,0.0,0.0,0.0,1.0,-3.59756112099,45.182926178,-15.2439022064,1.0,0.0,0.0,0.0,1.0,0.0,0.0,0.0,1.0,4.66869294504,0.0335188255255,9.05008227539,1.0,0.0,0.0,0.0,1.0,0.0,0.0,0.0,1.0
1464075974319259455,283,1464075974222050236,,-20.4916629791,1.72982883453,-156.056381226,0.00151099998038,1.0,0.0,0.0,0.0,1.0,0.0,0.0,0.0,1.0,-7.13414621353,44.7560997009,-25.5487804413,1.0,0.0,0.0,0.0,1.0,0.0,0.0,0.0,1.0,4.70700017161,-0.00478840332031,9.31823227681,1.0,0.0,0.0,0.0,1.0,0.0,0.0,0.0,1.0
1464075974319523204,284,1464075974245357778,,-19.4933605194,1.70840001106,-156.55430603,0.00411600014195,1.0,0.0,0.0,0.0,1.0,0.0,0.0,0.0,1.0,-7.07317113876,50.9146347046,-27.2560977936,1.0,0.0,0.0,0.0,1.0,0.0,0.0,0.0,1.0,5.30555087891,-0.426167895508,10.1370498291,1.0,0.0,0.0,0.0,1.0,0.0,0.0,0.0,1.0
1464075974319826276,285,1464075974266181003,,-18.3842372894,1.6442450285,-156.956054688,0.00159899995197,1.0,0.0,0.0,0.0,1.0,0.0,0.0,0.0,1.0,-4.81707286835,65.9756088257,-25.9146347046,1.0,0.0,0.0,0.0,1.0,0.0,0.0,0.0,1.0,5.15711037598,-0.952892260742,10.2902787354,1.0,0.0,0.0,0.0,1.0,0.0,0.0,0.0,1.0
1464075974320137213,286,1464075974286925375,,-17.0077800751,1.6611533165,-157.378875732,0.00129599997308,1.0,0.0,0.0,0.0,1.0,0.0,0.0,0.0,1.0,0.0,67.8048782349,-30.8536605835,1.0,0.0,0.0,0.0,1.0,0.0,0.0,0.0,1.0,3.77326181641,-1.02950671387,9.91678327637,1.0,0.0,0.0,0.0,1.0,0.0,0.0,0.0,1.0
1464075974320472160,287,1464075974307966464,,-15.6182136536,1.76190066338,-157.893203735,0.00130600004923,1.0,0.0,0.0,0.0,1.0,0.0,0.0,0.0,1.0,3.65853667259,70.9756088257,-32.5609779358,1.0,0.0,0.0,0.0,1.0,0.0,0.0,0.0,1.0,3.81635744629,-1.19710090314,10.7595422607,1.0,0.0,0.0,0.0,1.0,0.0,0.0,0.0,1.0
1464075974386534378,288,1464075974329402344,,-14.070356369,1.87512266636,-158.333984375,0.00189299997874,1.0,0.0,0.0,0.0,1.0,0.0,0.0,0.0,1.0,4.20731735229,75.0609817505,-26.158536911,1.0,0.0,0.0,0.0,1.0,0.0,0.0,0.0,1.0,2.81079274902,-1.11569797363,11.8465098145,1.0,0.0,0.0,0.0,1.0,0.0,0.0,0.0,1.0
1464075974386837190,289,1464075974350272809,,-12.4512710571,1.99477112293,-158.695388794,0.00164499995299,1.0,0.0,0.0,0.0,1.0,0.0,0.0,0.0,1.0,5.42682933807,67.134147644,-25.1219520569,1.0,0.0,0.0,0.0,1.0,0.0,0.0,0.0,1.0,1.90099611816,-0.675164868164,11.0276928467,1.0,0.0,0.0,0.0,1.0,0.0,0.0,0.0,1.0
1464075974387174793,290,1464075974371328950,,-11.0909070969,2.13509845734,-159.098876953,0.00128399999812,1.0,0.0,0.0,0.0,1.0,0.0,0.0,0.0,1.0,3.04878044128,61.6463394165,-28.1707324982,1.0,0.0,0.0,0.0,1.0,0.0,0.0,0.0,1.0,2.37025978969,-0.359130249023,9.87368764648,1.0,0.0,0.0,0.0,1.0,0.0,0.0,0.0,1.0
1464075974418086429,291,1464075974391940041,,-9.73910331726,2.19874477386,-159.584350586,0.00185200001579,1.0,0.0,0.0,0.0,1.0,0.0,0.0,0.0,1.0,-0.18292683363,59.6951255798,-31.8902454376,1.0,0.0,0.0,0.0,1.0,0.0,0.0,0.0,1.0,1.02471831055,-0.560243188477,9.76834277344,1.0,0.0,0.0,0.0,1.0,0.0,0.0,0.0,1.0
1464075974418357314,292,1464075974412746912,,-8.54793930054,2.20550775528,-160.079681396,0.00139200000558,1.0,0.0,0.0,0.0,1.0,0.0,0.0,0.0,1.0,-2.13414645195,53.8414649963,-29.2682933807,1.0,0.0,0.0,0.0,1.0,0.0,0.0,0.0,1.0,1.89620771484,-0.560243188477,10.0269165527,1.0,0.0,0.0,0.0,1.0,0.0,0.0,0.0,1.0
1464075974436829764,293,1464075974433264305,,-7.46005630493,2.12481188774,-160.421554565,0.00145099998917,1.0,0.0,0.0,0.0,1.0,0.0,0.0,0.0,1.0,-4.45121955872,57.7439041138,-19.817073822,1.0,0.0,0.0,0.0,1.0,0.0,0.0,0.0,1.0,2.22660754395,-0.397437475586,9.8784760498,1.0,0.0,0.0,0.0,1.0,0.0,0.0,0.0,1.0
1464075974458524133,294,1464075974454842060,,-6.24025535583,1.96206915379,-160.623153687,0.0015340000391,1.0,0.0,0.0,0.0,1.0,0.0,0.0,0.0,1.0,-8.84146404266,67.1951217651,-15.9146347046,1.0,0.0,0.0,0.0,1.0,0.0,0.0,0.0,1.0,1.92972653809,-0.483628735352,9.23683000488,1.0,0.0,0.0,0.0,1.0,0.0,0.0,0.0,1.0
1464075974483132974,295,1464075974476232055,,-4.86727190018,1.7469367981,-160.893447876,0.00158599996939,1.0,0.0,0.0,0.0,1.0,0.0,0.0,0.0,1.0,-12.7439022064,55.4878082275,-23.1097564697,1.0,0.0,0.0,0.0,1.0,0.0,0.0,0.0,1.0,1.07260241682,0.186747729492,9.72524714355,1.0,0.0,0.0,0.0,1.0,0.0,0.0,0.0,1.0
1464075974502123704,296,1464075974498126996,,-3.78729057312,1.45557427406,-161.309066772,0.00161100004334,1.0,0.0,0.0,0.0,1.0,0.0,0.0,0.0,1.0,-21.341463089,41.2195129395,-25.8536586761,1.0,0.0,0.0,0.0,1.0,0.0,0.0,0.0,1.0,0.790086547852,0.0478840332031,9.96945571289,1.0,0.0,0.0,0.0,1.0,0.0,0.0,0.0,1.0
1464075974523386355,297,1464075974519601157,,-3.02662324905,0.969263255596,-161.748504639,0.00164799997583,1.0,0.0,0.0,0.0,1.0,0.0,0.0,0.0,1.0,-24.6341457367,30.975610733,-25.4268302917,1.0,0.0,0.0,0.0,1.0,0.0,0.0,0.0,1.0,1.11090957031,-0.239420166016,9.50019277202,1.0,0.0,0.0,0.0,1.0,0.0,0.0,0.0,1.0
1464075974543455989,298,1464075974540995995,,-2.50482201576,0.465232551098,-162.185791016,0.00190499995369,1.0,0.0,0.0,0.0,1.0,0.0,0.0,0.0,1.0,-27.8048782349,27.5609760284,-27.1341457367,1.0,0.0,0.0,0.0,1.0,0.0,0.0,0.0,1.0,1.28808049316,0.110133276367,8.82023891602,1.0,0.0,0.0,0.0,1.0,0.0,0.0,0.0,1.0
1464075974577714803,299,1464075974561573336,,-2.06676006317,-0.0596324428916,-162.656036377,0.00191500002984,1.0,0.0,0.0,0.0,1.0,0.0,0.0,0.0,1.0,-30.6707305908,23.2317085266,-26.4024391174,1.0,0.0,0.0,0.0,1.0,0.0,0.0,0.0,1.0,1.37906015625,0.148440512063,8.82981572266,1.0,0.0,0.0,0.0,1.0,0.0,0.0,0.0,1.0
1464075974594681841,300,1464075974591060184,,-1.72402310371,-0.666451931,-163.048355103,0.00492300000042,1.0,0.0,0.0,0.0,1.0,0.0,0.0,0.0,1.0,-29.7560997009,18.658536911,-18.7195110321,1.0,0.0,0.0,0.0,1.0,0.0,0.0,0.0,1.0,1.01035310059,-0.665588061523,8.89685336914,1.0,0.0,0.0,0.0,1.0,0.0,0.0,0.0,1.0
1464075974609782530,301,1464075974603193641,,-1.49373376369,-1.27848362923,-163.303741455,0.00133500003722,1.0,0.0,0.0,0.0,1.0,0.0,0.0,0.0,1.0,-27.0731716156,16.2804889679,-15.548781395,1.0,0.0,0.0,0.0,1.0,0.0,0.0,0.0,1.0,1.35990654297,-1.01514150391,9.39484672993,1.0,0.0,0.0,0.0,1.0,0.0,0.0,0.0,1.0
1464075974629558831,302,1464075974624489157,,-1.28198885918,-1.77569079399,-163.439437866,0.00150500005111,1.0,0.0,0.0,0.0,1.0,0.0,0.0,0.0,1.0,-21.5853652954,14.5731706619,-9.87804889679,1.0,0.0,0.0,0.0,1.0,0.0,0.0,0.0,1.0,1.35032973633,-0.804451757813,9.7587659668,1.0,0.0,0.0,0.0,1.0,0.0,0.0,0.0,1.0
1464075974650438775,303,1464075974646443004,,-1.11631202698,-2.17343187332,-163.54876709,0.0080540003255,1.0,0.0,0.0,0.0,1.0,0.0,0.0,0.0,1.0,-15.9146347046,8.59756088257,-9.26829242706,1.0,0.0,0.0,0.0,1.0,0.0,0.0,0.0,1.0,0.76614453125,-1.07739082014,10.0700121826,1.0,0.0,0.0,0.0,1.0,0.0,0.0,0.0,1.0
1464075974670006587,304,1464075974667136126,,-1.17397022247,-2.45514798164,-163.642593384,0.00128299999051,1.0,0.0,0.0,0.0,1.0,0.0,0.0,0.0,1.0,-11.0365858078,1.46341466904,-9.5731716156,1.0,0.0,0.0,0.0,1.0,0.0,0.0,0.0,1.0,0.948103857422,-1.20188930646,11.3628810791,1.0,0.0,0.0,0.0,1.0,0.0,0.0,0.0,1.0
1464075974694123866,305,1464075974689088203,,-1.27422690392,-2.65095591545,-163.739257812,0.005795000121,1.0,0.0,0.0,0.0,1.0,0.0,0.0,0.0,1.0,-4.08536577225,-4.87804889679,-8.90243911743,1.0,0.0,0.0,0.0,1.0,0.0,0.0,0.0,1.0,0.857124194336,-1.78607443848,11.8512982178,1.0,0.0,0.0,0.0,1.0,0.0,0.0,0.0,1.0
1464075974711923558,306,1464075974710317469,,-1.49688184261,-2.67819499969,-163.82925415,0.00847500003874,1.0,0.0,0.0,0.0,1.0,0.0,0.0,0.0,1.0,4.20731735229,-8.47560977936,-9.63414573669,1.0,0.0,0.0,0.0,1.0,0.0,0.0,0.0,1.0,1.22104284668,-1.66157595215,11.6837041016,1.0,0.0,0.0,0.0,1.0,0.0,0.0,0.0,1.0
1464075974735107558,307,1464075974731798869,,-1.7543708086,-2.55953979492,-163.93309021,0.00149599998258,1.0,0.0,0.0,0.0,1.0,0.0,0.0,0.0,1.0,8.35365867615,-5.67073154449,-10.548781395,1.0,0.0,0.0,0.0,1.0,0.0,0.0,0.0,1.0,1.71903679199,-1.12527478027,11.2240173828,1.0,0.0,0.0,0.0,1.0,0.0,0.0,0.0,1.0
1464075974762527329,308,1464075974752341523,,-1.93416810036,-2.34814167023,-164.08782959,0.00127600005362,1.0,0.0,0.0,0.0,1.0,0.0,0.0,0.0,1.0,10.3658542633,-1.70731711388,-14.5731706619,1.0,0.0,0.0,0.0,1.0,0.0,0.0,0.0,1.0,1.50355864258,-0.814028564453,10.5919481445,1.0,0.0,0.0,0.0,1.0,0.0,0.0,0.0,1.0
1464075974789302673,309,1464075974776275365,,-2.08080363274,-2.10267686844,-164.42539978,0.00389899988659,1.0,0.0,0.0,0.0,1.0,0.0,0.0,0.0,1.0,12.8048782349,1.46341466904,-21.4634151459,1.0,0.0,0.0,0.0,1.0,0.0,0.0,0.0,1.0,1.60890351563,-1.40779057617,10.524910498,1.0,0.0,0.0,0.0,1.0,0.0,0.0,0.0,1.0
1464075974832289746,310,1464075974796849997,,-2.11626172066,-1.83847165108,-164.787902832,0.00310899992473,1.0,0.0,0.0,0.0,1.0,0.0,0.0,0.0,1.0,14.3902444839,9.20731735229,-21.8292694092,1.0,0.0,0.0,0.0,1.0,0.0,0.0,0.0,1.0,1.89141931152,-1.20667770978,11.4873795654,1.0,0.0,0.0,0.0,1.0,0.0,0.0,0.0,1.0
1464075974832688703,311,1464075974821238109,,-1.92293441296,-1.54171252251,-165.171157837,0.00123299995903,1.0,0.0,0.0,0.0,1.0,0.0,0.0,0.0,1.0,13.7195129395,14.8170728683,-22.5,1.0,0.0,0.0,0.0,1.0,0.0,0.0,0.0,1.0,1.04387185076,-1.01035310059,11.4873795654,1.0,0.0,0.0,0.0,1.0,0.0,0.0,0.0,1.0
1464075974851624277,312,1464075974843529768,,-1.60655975342,-1.24204969406,-165.657333374,0.0043730000034,1.0,0.0,0.0,0.0,1.0,0.0,0.0,0.0,1.0,11.7682924271,13.7195129395,-26.4024391174,1.0,0.0,0.0,0.0,1.0,0.0,0.0,0.0,1.0,0.569819995117,-0.91458503418,10.6206785645,1.0,0.0,0.0,0.0,1.0,0.0,0.0,0.0,1.0
1464075974870326779,313,1464075974867795328,,-1.35725343227,-1.01033449173,-166.29069519,0.00712099997327,1.0,0.0,0.0,0.0,1.0,0.0,0.0,0.0,1.0,8.71951198578,10.548781395,-31.5243930817,1.0,0.0,0.0,0.0,1.0,0.0,0.0,0.0,1.0,0.823605371094,-0.852335791016,10.1705686523,1.0,0.0,0.0,0.0,1.0,0.0,0.0,0.0,1.0
1464075974899417691,314,1464075974888033242,,-1.21333241463,-0.866852521896,-166.885482788,0.00100100005511,1.0,0.0,0.0,0.0,1.0,0.0,0.0,0.0,1.0,6.15853643417,11.2804880142,-33.7195129395,1.0,0.0,0.0,0.0,1.0,0.0,0.0,0.0,1.0,1.20188930646,-0.521935925381,9.66299848491,1.0,0.0,0.0,0.0,1.0,0.0,0.0,0.0,1.0
1464075974912087657,315,1464075974909155477,,-0.940054833889,-0.802471637726,-167.547576904,0.015135999769,1.0,0.0,0.0,0.0,1.0,0.0,0.0,0.0,1.0,1.03658533096,17.317073822,-36.0975646973,1.0,0.0,0.0,0.0,1.0,0.0,0.0,0.0,1.0,0.871489404297,-0.349553442383,9.15542714844,1.0,0.0,0.0,0.0,1.0,0.0,0.0,0.0,1.0
1464075974938837429,316,1464075974931178543,,-0.595187067986,-0.791520833969,-168.268356323,0.00249799992889,1.0,0.0,0.0,0.0,1.0,0.0,0.0,0.0,1.0,-6.40243911743,20.6097564697,-37.5,1.0,0.0,0.0,0.0,1.0,0.0,0.0,0.0,1.0,0.823605371094,0.162805712891,9.06444748535,1.0,0.0,0.0,0.0,1.0,0.0,0.0,0.0,1.0
1464075974959556800,317,1464075974952149008,,-0.199454590678,-0.937367916107,-168.939285278,0.00167000002693,1.0,0.0,0.0,0.0,1.0,0.0,0.0,0.0,1.0,-16.5243911743,28.4146347046,-34.4512214661,1.0,0.0,0.0,0.0,1.0,0.0,0.0,0.0,1.0,1.19231249982,0.344765039063,9.60553764507,1.0,0.0,0.0,0.0,1.0,0.0,0.0,0.0,1.0
1464075974981895594,318,1464075974973260722,,0.337662756443,-1.26864480972,-169.548660278,0.00148400000762,1.0,0.0,0.0,0.0,1.0,0.0,0.0,0.0,1.0,-26.2195129395,33.4146347046,-33.5975608826,1.0,0.0,0.0,0.0,1.0,0.0,0.0,0.0,1.0,0.933738647461,0.483628735352,9.14106193848,1.0,0.0,0.0,0.0,1.0,0.0,0.0,0.0,1.0
1464075975004232670,319,1464075974993262804,,0.942348480225,-1.78147625923,-170.177185059,0.00168600003235,1.0,0.0,0.0,0.0,1.0,0.0,0.0,0.0,1.0,-35.6097564697,34.1463432312,-35.2439041138,1.0,0.0,0.0,0.0,1.0,0.0,0.0,0.0,1.0,0.531512805087,0.287304199219,8.68616362305,1.0,0.0,0.0,0.0,1.0,0.0,0.0,0.0,1.0
1464075975018325236,320,1464075975015270036,,1.55918622017,-2.53663063049,-170.899703979,0.00206300010905,1.0,0.0,0.0,0.0,1.0,0.0,0.0,0.0,1.0,-41.5853652954,30.7926845551,-37.1951255798,1.0,0.0,0.0,0.0,1.0,0.0,0.0,0.0,1.0,0.383072265625,-0.124498486328,8.74362446289,1.0,0.0,0.0,0.0,1.0,0.0,0.0,0.0,1.0
1464075975045061311,321,1464075975036488677,,2.03186774254,-3.43169355392,-171.643341064,0.00151800003368,1.0,0.0,0.0,0.0,1.0,0.0,0.0,0.0,1.0,-43.3536567688,23.7804889679,-38.0487823486,1.0,0.0,0.0,0.0,1.0,0.0,0.0,0.0,1.0,0.31124621582,-0.588973571866,8.98783303223,1.0,0.0,0.0,0.0,1.0,0.0,0.0,0.0,1.0
1464075975071617698,322,1464075975059675386,,2.39742350578,-4.39338827133,-172.399047852,0.00187200005166,1.0,0.0,0.0,0.0,1.0,0.0,0.0,0.0,1.0,-43.6585388184,18.3536586761,-35.7926826477,1.0,0.0,0.0,0.0,1.0,0.0,0.0,0.0,1.0,0.114921679688,-1.05823706072,9.5193463853,1.0,0.0,0.0,0.0,1.0,0.0,0.0,0.0,1.0
1464075975096368465,323,1464075975082600949,,2.66756820679,-5.38697481155,-173.091873169,0.00419599981979,1.0,0.0,0.0,0.0,1.0,0.0,0.0,0.0,1.0,-39.7560997009,10.6097564697,-29.2682933807,1.0,0.0,0.0,0.0,1.0,0.0,0.0,0.0,1.0,-0.076614453125,-1.09175595703,10.1897222656,1.0,0.0,0.0,0.0,1.0,0.0,0.0,0.0,1.0
1464075975112662588,324,1464075975107986923,,2.77410697937,-6.16905736923,-173.512756348,0.00170799996704,1.0,0.0,0.0,0.0,1.0,0.0,0.0,0.0,1.0,-37.5609779358,7.07317113876,-20.0,1.0,0.0,0.0,0.0,1.0,0.0,0.0,0.0,1.0,-0.215478149414,-1.37906015625,10.6254669678,1.0,0.0,0.0,0.0,1.0,0.0,0.0,0.0,1.0
1464075975138842778,325,1464075975124182661,,2.81208014488,-6.90171146393,-173.731079102,0.00141899997834,1.0,0.0,0.0,0.0,1.0,0.0,0.0,0.0,1.0,-31.4024391174,1.40243899822,-10.548781395,1.0,0.0,0.0,0.0,1.0,0.0,0.0,0.0,1.0,-0.435744702148,-1.74297880859,10.8122146973,1.0,0.0,0.0,0.0,1.0,0.0,0.0,0.0,1.0
1464075975214938563,326,1464075975146471664,,2.76255369186,-7.49081945419,-173.755523682,0.00157800002489,1.0,0.0,0.0,0.0,1.0,0.0,0.0,0.0,1.0,-23.4146347046,-4.69512224197,-2.01219511032,1.0,0.0,0.0,0.0,1.0,0.0,0.0,0.0,1.0,-0.272938989258,-1.83395847168,11.1090957031,1.0,0.0,0.0,0.0,1.0,0.0,0.0,0.0,1.0
1464075975215203563,327,1464075975167038327,,2.61062884331,-7.87582302094,-173.606826782,0.0018230000278,1.0,0.0,0.0,0.0,1.0,0.0,0.0,0.0,1.0,-17.1951217651,-9.32926845551,4.14634132385,1.0,0.0,0.0,0.0,1.0,0.0,0.0,0.0,1.0,0.0191536132812,-1.66636435547,10.9606552002,1.0,0.0,0.0,0.0,1.0,0.0,0.0,0.0,1.0
1464075975215249500,328,1464075975188249260,,2.4080722332,-8.12142658234,-173.333602905,0.00144000002183,1.0,0.0,0.0,0.0,1.0,0.0,0.0,0.0,1.0,-11.8292684555,-10.9756097794,9.39024448395,1.0,0.0,0.0,0.0,1.0,0.0,0.0,0.0,1.0,0.0430956298828,-1.76213242187,11.3868230957,1.0,0.0,0.0,0.0,1.0,0.0,0.0,0.0,1.0
1464075975215577051,329,1464075975209236964,,2.17510008812,-8.25692749023,-172.943756104,0.0017269999953,1.0,0.0,0.0,0.0,1.0,0.0,0.0,0.0,1.0,-5.91463422775,-11.341463089,13.4756097794,1.0,0.0,0.0,0.0,1.0,0.0,0.0,0.0,1.0,0.210689746094,-1.95366855469,11.6693388916,1.0,0.0,0.0,0.0,1.0,0.0,0.0,0.0,1.0
1464075975264315566,330,1464075975231042322,,1.9548830986,-8.26046657562,-172.486602783,0.00252999993972,1.0,0.0,0.0,0.0,1.0,0.0,0.0,0.0,1.0,0.792682945728,-10.0609760284,16.0975608826,1.0,0.0,0.0,0.0,1.0,0.0,0.0,0.0,1.0,0.344765039063,-2.11647412145,11.4347071289,1.0,0.0,0.0,0.0,1.0,0.0,0.0,0.0,1.0
1464075975265476501,331,1464075975252559765,,1.77169120312,-8.14110565186,-172.018814087,0.00340400007553,1.0,0.0,0.0,0.0,1.0,0.0,0.0,0.0,1.0,7.50000047684,-9.93902492523,15.6707315445,1.0,0.0,0.0,0.0,1.0,0.0,0.0,0.0,1.0,0.45489831543,-2.06859023437,11.0660000732,1.0,0.0,0.0,0.0,1.0,0.0,0.0,0.0,1.0
1464075975284824574,332,1464075975272621221,,1.60276508331,-7.9139418602,-171.575698853,0.0014009999577,1.0,0.0,0.0,0.0,1.0,0.0,0.0,0.0,1.0,12.8048782349,-5.54878091812,16.6463413239,1.0,0.0,0.0,0.0,1.0,0.0,0.0,0.0,1.0,0.699106884766,-2.09253210485,11.3341506592,1.0,0.0,0.0,0.0,1.0,0.0,0.0,0.0,1.0
1464075975296611365,333,1464075975293621165,,1.53372585773,-7.55849790573,-171.114593506,0.00187200005166,1.0,0.0,0.0,0.0,1.0,0.0,0.0,0.0,1.0,15.1829271317,0.792682945728,17.9268302917,1.0,0.0,0.0,0.0,1.0,0.0,0.0,0.0,1.0,0.799663354492,-1.31681091309,10.8361567139,1.0,0.0,0.0,0.0,1.0,0.0,0.0,0.0,1.0
1464075975318020631,334,1464075975315326575,,1.59546768665,-7.13784313202,-170.653152466,0.00245500006713,1.0,0.0,0.0,0.0,1.0,0.0,0.0,0.0,1.0,13.5975618362,2.86585378647,15.8536596298,1.0,0.0,0.0,0.0,1.0,0.0,0.0,0.0,1.0,0.239420166016,-0.76614453125,10.0221281494,1.0,0.0,0.0,0.0,1.0,0.0,0.0,0.0,1.0
1464075975367545550,335,1464075975350140024,,1.64214920998,-6.78673362732,-170.26751709,0.00585599988699,1.0,0.0,0.0,0.0,1.0,0.0,0.0,0.0,1.0,9.69512176514,-1.03658533096,10.0,1.0,0.0,0.0,0.0,1.0,0.0,0.0,0.0,1.0,0.067037651051,-1.35990654297,9.39484672993,1.0,0.0,0.0,0.0,1.0,0.0,0.0,0.0,1.0
1464075975394507196,336,1464075975365153786,,1.55057752132,-6.52245473862,-169.925796509,0.0254250001162,1.0,0.0,0.0,0.0,1.0,0.0,0.0,0.0,1.0,10.548781395,-2.25609779358,8.65853691101,1.0,0.0,0.0,0.0,1.0,0.0,0.0,0.0,1.0,0.397437475586,-1.63284553223,9.32302068013,1.0,0.0,0.0,0.0,1.0,0.0,0.0,0.0,1.0
1464075975394640373,337,1464075975386241750,,1.5116969347,-6.26406335831,-169.654067993,0.0215799994767,1.0,0.0,0.0,0.0,1.0,0.0,0.0,0.0,1.0,12.3780488968,1.46341466904,8.23170757294,1.0,0.0,0.0,0.0,1.0,0.0,0.0,0.0,1.0,0.660799658203,-1.5083470459,8.65743378765,1.0,0.0,0.0,0.0,1.0,0.0,0.0,0.0,1.0
1464075975410650851,338,1464075975405829093,,1.59155416489,-6.00990486145,-169.418167114,0.00164899998344,1.0,0.0,0.0,0.0,1.0,0.0,0.0,0.0,1.0,13.2926826477,5.48780488968,7.50000047684,1.0,0.0,0.0,0.0,1.0,0.0,0.0,0.0,1.0,0.387860668945,-1.58496149902,8.22168850098,1.0,0.0,0.0,0.0,1.0,0.0,0.0,0.0,1.0
1464075975436273439,339,1464075975428703199,,1.71533119678,-5.72742176056,-169.185577393,0.00136400002521,1.0,0.0,0.0,0.0,1.0,0.0,0.0,0.0,1.0,12.3780488968,9.75609779358,7.19512224197,1.0,0.0,0.0,0.0,1.0,0.0,0.0,0.0,1.0,0.746990917969,-1.24019645996,9.03571706543,1.0,0.0,0.0,0.0,1.0,0.0,0.0,0.0,1.0
1464075975455709793,340,1464075975448237729,,2.00728917122,-5.46365976334,-168.916778564,0.00124600005802,1.0,0.0,0.0,0.0,1.0,0.0,0.0,0.0,1.0,9.63414573669,15.9146347046,10.3048782349,1.0,0.0,0.0,0.0,1.0,0.0,0.0,0.0,1.0,0.354341845703,-0.885854614258,9.5193463853,1.0,0.0,0.0,0.0,1.0,0.0,0.0,0.0,1.0
1464075975473266256,341,1464075975470347254,,2.38291072845,-5.26741456985,-168.618225098,0.00381499994546,1.0,0.0,0.0,0.0,1.0,0.0,0.0,0.0,1.0,4.63414621353,18.1097564697,10.9756097794,1.0,0.0,0.0,0.0,1.0,0.0,0.0,0.0,1.0,0.00478840332031,-0.713472094727,9.61032604839,1.0,0.0,0.0,0.0,1.0,0.0,0.0,0.0,1.0
1464075975496279684,342,1464075975489977982,,2.76659011841,-5.15900850296,-168.338790894,0.00243499991484,1.0,0.0,0.0,0.0,1.0,0.0,0.0,0.0,1.0,-1.70731711388,10.0609760284,9.39024448395,1.0,0.0,0.0,0.0,1.0,0.0,0.0,0.0,1.0,-1.07260241682,-0.46447512207,10.1705686523,1.0,0.0,0.0,0.0,1.0,0.0,0.0,0.0,1.0
1464075975523713360,343,1464075975513843647,,2.85775351524,-5.21959686279,-168.034362793,0.00653900019825,1.0,0.0,0.0,0.0,1.0,0.0,0.0,0.0,1.0,-11.4634151459,4.45121955872,8.78048801422,1.0,0.0,0.0,0.0,1.0,0.0,0.0,0.0,1.0,0.0478840332031,0.0478840332031,10.1226846191,1.0,0.0,0.0,0.0,1.0,0.0,0.0,0.0,1.0
1464075975536289785,344,1464075975533809948,,2.93793082237,-5.46767902374,-167.763519287,0.00498799979687,1.0,0.0,0.0,0.0,1.0,0.0,0.0,0.0,1.0,-20.1219520569,4.93902444839,8.90243911743,1.0,0.0,0.0,0.0,1.0,0.0,0.0,0.0,1.0,0.00957680664062,-0.512359155273,9.81143840332,1.0,0.0,0.0,0.0,1.0,0.0,0.0,0.0,1.0
1464075975558148893,345,1464075975554240883,,3.02637076378,-5.9111571312,-167.493392944,0.00473899999633,1.0,0.0,0.0,0.0,1.0,0.0,0.0,0.0,1.0,-24.2682933807,5.12195110321,8.78048801422,1.0,0.0,0.0,0.0,1.0,0.0,0.0,0.0,1.0,0.114921679688,-1.26413847656,9.7587659668,1.0,0.0,0.0,0.0,1.0,0.0,0.0,0.0,1.0
1464075975615389052,346,1464075975575663534,,3.12490415573,-6.39023828506,-167.222763062,0.00488999998197,1.0,0.0,0.0,0.0,1.0,0.0,0.0,0.0,1.0,-23.475610733,6.09756088257,9.20731735229,1.0,0.0,0.0,0.0,1.0,0.0,0.0,0.0,1.0,0.0287304199219,-1.5083470459,10.0652237793,1.0,0.0,0.0,0.0,1.0,0.0,0.0,0.0,1.0
1464075975620072321,347,1464075975600624821,,3.27334475517,-6.95833301544,-166.87348938,0.00539499986917,1.0,0.0,0.0,0.0,1.0,0.0,0.0,0.0,1.0,-22.3780498505,8.59756088257,10.6097564697,1.0,0.0,0.0,0.0,1.0,0.0,0.0,0.0,1.0,0.258573779297,-1.99676418457,10.778695874,1.0,0.0,0.0,0.0,1.0,0.0,0.0,0.0,1.0
1464075975630670157,348,1464075975621972472,,3.47492599487,-7.40792131424,-166.557312012,0.00178799999412,1.0,0.0,0.0,0.0,1.0,0.0,0.0,0.0,1.0,-16.8902435303,7.92682981491,11.4024391174,1.0,0.0,0.0,0.0,1.0,0.0,0.0,0.0,1.0,-0.272938989258,-2.69587106934,11.2096521729,1.0,0.0,0.0,0.0,1.0,0.0,0.0,0.0,1.0
1464075975673452594,349,1464075975644091163,,3.61185979843,-7.71648740768,-166.268280029,0.00248100003228,1.0,0.0,0.0,0.0,1.0,0.0,0.0,0.0,1.0,-9.08536529541,-0.243902444839,7.80487823486,1.0,0.0,0.0,0.0,1.0,0.0,0.0,0.0,1.0,-0.828393774414,-2.56179577637,11.3533042725,1.0,0.0,0.0,0.0,1.0,0.0,0.0,0.0,1.0
1464075975675730817,350,1464075975664068349,,3.5345261097,-7.85646915436,-166.048431396,0.00108099996578,1.0,0.0,0.0,0.0,1.0,0.0,0.0,0.0,1.0,-3.90243911743,-10.3048782349,3.84146332741,1.0,0.0,0.0,0.0,1.0,0.0,0.0,0.0,1.0,-0.541089611728,-2.3654710941,11.1952869629,1.0,0.0,0.0,0.0,1.0,0.0,0.0,0.0,1.0
1464075975692428116,351,1464075975688828334,,3.1664056778,-7.86857843399,-165.853912354,0.00434100022539,1.0,0.0,0.0,0.0,1.0,0.0,0.0,0.0,1.0,0.304878056049,-15.1219511032,0.12195122242,1.0,0.0,0.0,0.0,1.0,0.0,0.0,0.0,1.0,0.229843359375,-1.85311208496,10.5105452881,1.0,0.0,0.0,0.0,1.0,0.0,0.0,0.0,1.0
1464075975715172743,352,1464075975712443115,,2.75430440903,-7.87607002258,-165.757766724,0.00256399996579,1.0,0.0,0.0,0.0,1.0,0.0,0.0,0.0,1.0,5.0,-17.5000019073,-4.69512224197,1.0,0.0,0.0,0.0,1.0,0.0,0.0,0.0,1.0,0.100556469727,-3.03105930176,9.92157167969,1.0,0.0,0.0,0.0,1.0,0.0,0.0,0.0,1.0
1464075975738060754,353,1464075975733638631,,2.31835699081,-7.8001666069,-165.745941162,0.00465499982238,1.0,0.0,0.0,0.0,1.0,0.0,0.0,0.0,1.0,17.7439022064,-17.134147644,-6.52439069748,1.0,0.0,0.0,0.0,1.0,0.0,0.0,0.0,1.0,0.469263525391,-3.36145913086,10.1945106689,1.0,0.0,0.0,0.0,1.0,0.0,0.0,0.0,1.0
1464075975760742152,354,1464075975756164612,,1.89579463005,-7.36518096924,-165.740097046,0.00262599997222,1.0,0.0,0.0,0.0,1.0,0.0,0.0,0.0,1.0,25.6707324982,-11.7073173523,-5.36585378647,1.0,0.0,0.0,0.0,1.0,0.0,0.0,0.0,1.0,0.517147558594,-2.10689731481,10.2328178955,1.0,0.0,0.0,0.0,1.0,0.0,0.0,0.0,1.0
1464075975785097764,355,1464075975776291069,,1.6506601572,-6.81935596466,-165.748657227,0.0044990000315,1.0,0.0,0.0,0.0,1.0,0.0,0.0,0.0,1.0,25.182926178,-10.0,-7.07317113876,1.0,0.0,0.0,0.0,1.0,0.0,0.0,0.0,1.0,-0.0718260498047,-1.44130939941,10.314220752,1.0,0.0,0.0,0.0,1.0,0.0,0.0,0.0,1.0
1464075975803903390,356,1464075975798384186,,1.46750128269,-6.31064367294,-165.800109863,0.00493500009179,1.0,0.0,0.0,0.0,1.0,0.0,0.0,0.0,1.0,24.0243911743,-13.5365858078,-8.84146404266,1.0,0.0,0.0,0.0,1.0,0.0,0.0,0.0,1.0,-0.9193734375,-2.00634099121,10.1562034424,1.0,0.0,0.0,0.0,1.0,0.0,0.0,0.0,1.0
1464075975827307390,357,1464075975821854123,,1.09697759151,-5.81128120422,-165.838531494,0.00404299981892,1.0,0.0,0.0,0.0,1.0,0.0,0.0,0.0,1.0,29.3902435303,-11.8902444839,-6.15853643417,1.0,0.0,0.0,0.0,1.0,0.0,0.0,0.0,1.0,0.316034619141,-3.0166940918,9.93593688965,1.0,0.0,0.0,0.0,1.0,0.0,0.0,0.0,1.0
1464075975846698380,358,1464075975843496930,,0.880726933479,-5.27178287506,-165.797637939,0.00235099997371,1.0,0.0,0.0,0.0,1.0,0.0,0.0,0.0,1.0,35.3658561707,-0.365853667259,-1.52439022064,1.0,0.0,0.0,0.0,1.0,0.0,0.0,0.0,1.0,0.785298144531,-2.30322199707,9.76834277344,1.0,0.0,0.0,0.0,1.0,0.0,0.0,0.0,1.0
1464075975871435084,359,1464075975863553439,,0.89769166708,-4.61058950424,-165.675064087,0.00221899989992,1.0,0.0,0.0,0.0,1.0,0.0,0.0,0.0,1.0,34.3902435303,12.1341466904,4.57317066193,1.0,0.0,0.0,0.0,1.0,0.0,0.0,0.0,1.0,0.991199487305,-1.20667770978,9.40921193989,1.0,0.0,0.0,0.0,1.0,0.0,0.0,0.0,1.0
1464075975888119779,360,1464075975884257967,,1.21349298954,-3.94066286087,-165.44682312,0.00133899995126,1.0,0.0,0.0,0.0,1.0,0.0,0.0,0.0,1.0,26.2804889679,21.7073173523,9.75609779358,1.0,0.0,0.0,0.0,1.0,0.0,0.0,0.0,1.0,0.713472094727,-0.426167895508,9.50498117534,1.0,0.0,0.0,0.0,1.0,0.0,0.0,0.0,1.0
1464075975916365641,361,1464075975904517756,,1.70251893997,-3.41441583633,-165.143371582,0.00188500003424,1.0,0.0,0.0,0.0,1.0,0.0,0.0,0.0,1.0,14.4512205124,25.7926845551,12.1951217651,1.0,0.0,0.0,0.0,1.0,0.0,0.0,0.0,1.0,0.215478149414,-0.15801730957,9.4954043687,1.0,0.0,0.0,0.0,1.0,0.0,0.0,0.0,1.0
1464075975930354926,362,1464075975926783113,,2.2371468544,-3.11973404884,-164.813018799,0.00226700003259,1.0,0.0,0.0,0.0,1.0,0.0,0.0,0.0,1.0,4.08536577225,24.3902435303,11.0975618362,1.0,0.0,0.0,0.0,1.0,0.0,0.0,0.0,1.0,0.210689746094,-0.110133276367,9.12669672852,1.0,0.0,0.0,0.0,1.0,0.0,0.0,0.0,1.0
1464075975965076969,363,1464075975948308889,,2.68291902542,-3.0312204361,-164.524215698,0.00137199996971,1.0,0.0,0.0,0.0,1.0,0.0,0.0,0.0,1.0,-7.86585378647,22.3780498505,9.39024448395,1.0,0.0,0.0,0.0,1.0,0.0,0.0,0.0,1.0,0.0574608398438,0.521935925381,9.03571706543,1.0,0.0,0.0,0.0,1.0,0.0,0.0,0.0,1.0
1464075975978712297,364,1464075975971309608,,3.08448839188,-3.2048728466,-164.268112183,0.00229500001296,1.0,0.0,0.0,0.0,1.0,0.0,0.0,0.0,1.0,-25.3048782349,14.8780498505,4.57317066193,1.0,0.0,0.0,0.0,1.0,0.0,0.0,0.0,1.0,-0.00957680664062,0.665588061523,8.94473740234,1.0,0.0,0.0,0.0,1.0,0.0,0.0,0.0,1.0
1464075976114985837,365,1464075976001171716,,3.26826095581,-3.90872716904,-164.131271362,0.00430000014603,1.0,0.0,0.0,0.0,1.0,0.0,0.0,0.0,1.0,-40.1829299927,7.56097555161,-0.365853667259,1.0,0.0,0.0,0.0,1.0,0.0,0.0,0.0,1.0,0.248996972656,-0.512359155273,9.23683000488,1.0,0.0,0.0,0.0,1.0,0.0,0.0,0.0,1.0
1464075976115301566,366,1464075976015106887,,3.3249335289,-4.76671886444,-164.075149536,0.00147599994671,1.0,0.0,0.0,0.0,1.0,0.0,0.0,0.0,1.0,-43.5365867615,7.01219511032,-2.13414645195,1.0,0.0,0.0,0.0,1.0,0.0,0.0,0.0,1.0,0.521935925381,-0.876277807617,9.4570959731,1.0,0.0,0.0,0.0,1.0,0.0,0.0,0.0,1.0
1464075976115590211,367,1464075976036584225,,3.38104104996,-5.71201753616,-164.056503296,0.00158699997701,1.0,0.0,0.0,0.0,1.0,0.0,0.0,0.0,1.0,-47.134147644,7.62195110321,-3.65853667259,1.0,0.0,0.0,0.0,1.0,0.0,0.0,0.0,1.0,0.517147558594,-0.957680664062,9.67736311035,1.0,0.0,0.0,0.0,1.0,0.0,0.0,0.0,1.0
1464075976116157709,368,1464075976057871355,,3.44355273247,-6.67883777618,-164.056259155,0.0014309999533,1.0,0.0,0.0,0.0,1.0,0.0,0.0,0.0,1.0,-50.0609779358,9.26829242706,-3.90243911743,1.0,0.0,0.0,0.0,1.0,0.0,0.0,0.0,1.0,0.373495458984,-1.25456166992,10.1322614258,1.0,0.0,0.0,0.0,1.0,0.0,0.0,0.0,1.0
1464075976116460990,369,1464075976082014363,,3.56260991096,-7.80061101913,-164.072509766,0.00342600001022,1.0,0.0,0.0,0.0,1.0,0.0,0.0,0.0,1.0,-49.1463432312,7.13414621353,-4.63414621353,1.0,0.0,0.0,0.0,1.0,0.0,0.0,0.0,1.0,-0.0287304199219,-1.73340200195,10.5632177246,1.0,0.0,0.0,0.0,1.0,0.0,0.0,0.0,1.0
1464075976117008645,370,1464075976104704511,,3.61930632591,-8.81244277954,-164.103775024,0.00394900003448,1.0,0.0,0.0,0.0,1.0,0.0,0.0,0.0,1.0,-46.9512214661,2.92682933807,-5.67073154449,1.0,0.0,0.0,0.0,1.0,0.0,0.0,0.0,1.0,-0.196324536133,-1.88184250488,10.6541973877,1.0,0.0,0.0,0.0,1.0,0.0,0.0,0.0,1.0
1464075976152870111,371,1464075976124575603,,3.57196688652,-9.79482650757,-164.110092163,0.00290900003165,1.0,0.0,0.0,0.0,1.0,0.0,0.0,0.0,1.0,-43.8414649963,0.487804889679,-3.59756112099,1.0,0.0,0.0,0.0,1.0,0.0,0.0,0.0,1.0,0.248996972656,-2.24097275391,10.9989624268,1.0,0.0,0.0,0.0,1.0,0.0,0.0,0.0,1.0
1464075976154966095,372,1464075976145627578,,3.52641224861,-10.6782903671,-164.052398682,0.00169900001492,1.0,0.0,0.0,0.0,1.0,0.0,0.0,0.0,1.0,-37.4390220642,1.95121955872,-0.12195122242,1.0,0.0,0.0,0.0,1.0,0.0,0.0,0.0,1.0,0.435744702148,-2.72938989258,11.1234609131,1.0,0.0,0.0,0.0,1.0,0.0,0.0,0.0,1.0
1464075976216283014,373,1464075976166772678,,3.53375315666,-11.3549184799,-163.937057495,0.00161899998784,1.0,0.0,0.0,0.0,1.0,0.0,0.0,0.0,1.0,-27.6219520569,4.45121955872,3.23170733452,1.0,0.0,0.0,0.0,1.0,0.0,0.0,0.0,1.0,0.268150604204,-3.16513459473,11.01811604,1.0,0.0,0.0,0.0,1.0,0.0,0.0,0.0,1.0
1464075976216432649,374,1464075976189740272,,3.60701489449,-11.8722906113,-163.761032104,0.00192399998195,1.0,0.0,0.0,0.0,1.0,0.0,0.0,0.0,1.0,-12.6829271317,4.93902444839,6.21951246262,1.0,0.0,0.0,0.0,1.0,0.0,0.0,0.0,1.0,0.258573779297,-3.95522114258,11.0947304932,1.0,0.0,0.0,0.0,1.0,0.0,0.0,0.0,1.0
1464075976216473117,375,1464075976209929125,,3.7081489563,-11.9240846634,-163.525360107,0.00176899996586,1.0,0.0,0.0,0.0,1.0,0.0,0.0,0.0,1.0,2.62195134163,6.09756088257,8.78048801422,1.0,0.0,0.0,0.0,1.0,0.0,0.0,0.0,1.0,0.287304199219,-3.47638081055,11.2527478027,1.0,0.0,0.0,0.0,1.0,0.0,0.0,0.0,1.0
1464075976302605439,376,1464075976230671621,,3.82075309753,-11.703207016,-163.24395752,0.00136500003282,1.0,0.0,0.0,0.0,1.0,0.0,0.0,0.0,1.0,10.2439022064,5.06097555161,10.7317075729,1.0,0.0,0.0,0.0,1.0,0.0,0.0,0.0,1.0,-0.0622492431641,-2.17393510742,10.9941740234,1.0,0.0,0.0,0.0,1.0,0.0,0.0,0.0,1.0
1464075976303130906,377,1464075976251491617,,3.89951705933,-11.3752670288,-162.94342041,0.00129599997308,1.0,0.0,0.0,0.0,1.0,0.0,0.0,0.0,1.0,12.3780488968,-1.09756100178,9.5731716156,1.0,0.0,0.0,0.0,1.0,0.0,0.0,0.0,1.0,-0.512359155273,-2.10689731481,10.2184526855,1.0,0.0,0.0,0.0,1.0,0.0,0.0,0.0,1.0
1464075976303445488,378,1464075976272344478,,3.85525631905,-11.043721199,-162.647293091,0.00288999988697,1.0,0.0,0.0,0.0,1.0,0.0,0.0,0.0,1.0,16.9512195587,-8.35365867615,8.78048801422,1.0,0.0,0.0,0.0,1.0,0.0,0.0,0.0,1.0,-0.895431420898,-2.59052619629,9.41400034321,1.0,0.0,0.0,0.0,1.0,0.0,0.0,0.0,1.0
1464075976368563543,379,1464075976295343531,,3.64824342728,-10.651309967,-162.31288147,0.0025649999734,1.0,0.0,0.0,0.0,1.0,0.0,0.0,0.0,1.0,26.2195129395,-13.841463089,11.0975618362,1.0,0.0,0.0,0.0,1.0,0.0,0.0,0.0,1.0,-0.0909796630859,-3.20823022461,9.15063874512,1.0,0.0,0.0,0.0,1.0,0.0,0.0,0.0,1.0
1464075976368838230,380,1464075976318253782,,3.36818957329,-10.0425605774,-161.836883545,0.00375599996187,1.0,0.0,0.0,0.0,1.0,0.0,0.0,0.0,1.0,37.6219520569,-8.29268264771,17.9878044128,1.0,0.0,0.0,0.0,1.0,0.0,0.0,0.0,1.0,0.818816967773,-3.56736047363,9.31344387349,1.0,0.0,0.0,0.0,1.0,0.0,0.0,0.0,1.0
1464075976369123281,381,1464075976339536017,,3.24508929253,-9.17773914337,-161.25038147,0.00197699991986,1.0,0.0,0.0,0.0,1.0,0.0,0.0,0.0,1.0,47.7439041138,4.45121955872,25.4878044128,1.0,0.0,0.0,0.0,1.0,0.0,0.0,0.0,1.0,1.23540805664,-2.96881005859,9.55286520855,1.0,0.0,0.0,0.0,1.0,0.0,0.0,0.0,1.0
1464075976369400780,382,1464075976361550072,,3.45462751389,-8.07921409607,-160.542114258,0.00226700003259,1.0,0.0,0.0,0.0,1.0,0.0,0.0,0.0,1.0,53.0487823486,14.6341466904,31.0365867615,1.0,0.0,0.0,0.0,1.0,0.0,0.0,0.0,1.0,0.593762048251,-2.18830031738,9.10754311523,1.0,0.0,0.0,0.0,1.0,0.0,0.0,0.0,1.0
1464075976411573063,383,1464075976384503448,,3.81877994537,-6.96306991577,-159.854675293,0.00267400010489,1.0,0.0,0.0,0.0,1.0,0.0,0.0,0.0,1.0,52.5609779358,11.9512195587,28.7195110321,1.0,0.0,0.0,0.0,1.0,0.0,0.0,0.0,1.0,-0.488417138672,-1.69030637207,8.82981572266,1.0,0.0,0.0,0.0,1.0,0.0,0.0,0.0,1.0
1464075976411975614,384,1464075976408444426,,4.09573030472,-5.7225394249,-159.16835022,0.00466000009328,1.0,0.0,0.0,0.0,1.0,0.0,0.0,0.0,1.0,50.0609779358,4.81707286835,23.2926845551,1.0,0.0,0.0,0.0,1.0,0.0,0.0,0.0,1.0,-0.694318481445,-1.17315874041,8.71968244629,1.0,0.0,0.0,0.0,1.0,0.0,0.0,0.0,1.0
1464075976433111912,385,1464075976429281297,,4.08417129517,-4.56437301636,-158.607070923,0.00400200020522,1.0,0.0,0.0,0.0,1.0,0.0,0.0,0.0,1.0,42.682926178,-2.31707310677,16.0975608826,1.0,0.0,0.0,0.0,1.0,0.0,0.0,0.0,1.0,0.531512805087,-0.46447512207,8.43716606587,1.0,0.0,0.0,0.0,1.0,0.0,0.0,0.0,1.0
1464075976453012119,386,1464075976450379782,,3.93386507034,-3.7074637413,-158.230209351,0.00281700002961,1.0,0.0,0.0,0.0,1.0,0.0,0.0,0.0,1.0,34.3902435303,4.02439022064,11.8292684555,1.0,0.0,0.0,0.0,1.0,0.0,0.0,0.0,1.0,0.938527050781,-0.756567724609,8.54251210796,1.0,0.0,0.0,0.0,1.0,0.0,0.0,0.0,1.0
1464075976478658821,387,1464075976470376603,,3.90399909019,-3.05465936661,-157.952713013,0.00153600005433,1.0,0.0,0.0,0.0,1.0,0.0,0.0,0.0,1.0,28.2317066193,8.23170757294,6.15853643417,1.0,0.0,0.0,0.0,1.0,0.0,0.0,0.0,1.0,0.962469067383,-1.20188930646,9.05487067871,1.0,0.0,0.0,0.0,1.0,0.0,0.0,0.0,1.0
1464075976499203974,388,1464075976492109774,,3.96705794334,-2.53766179085,-157.790130615,0.0033350000158,1.0,0.0,0.0,0.0,1.0,0.0,0.0,0.0,1.0,22.9268302917,12.8658542633,0.975609779358,1.0,0.0,0.0,0.0,1.0,0.0,0.0,0.0,1.0,0.837970581055,-1.16358193377,9.37569311665,1.0,0.0,0.0,0.0,1.0,0.0,0.0,0.0,1.0
1464075976518175277,389,1464075976512096700,,4.11609554291,-2.13975381851,-157.756576538,0.00378599995747,1.0,0.0,0.0,0.0,1.0,0.0,0.0,0.0,1.0,13.7804880142,16.6463413239,-4.93902444839,1.0,0.0,0.0,0.0,1.0,0.0,0.0,0.0,1.0,0.61770402832,-0.430956298828,9.95030209961,1.0,0.0,0.0,0.0,1.0,0.0,0.0,0.0,1.0
1464075976599254174,390,1464075976533706381,,4.3281917572,-1.94659721851,-157.868881226,0.00510999979451,1.0,0.0,0.0,0.0,1.0,0.0,0.0,0.0,1.0,0.670731723309,13.2926826477,-13.2317075729,1.0,0.0,0.0,0.0,1.0,0.0,0.0,0.0,1.0,-0.0143652099609,-0.181959326172,10.1897222656,1.0,0.0,0.0,0.0,1.0,0.0,0.0,0.0,1.0
1464075976599809590,391,1464075976553973306,,4.45405244827,-2.04278159142,-158.178024292,0.0014009999577,1.0,0.0,0.0,0.0,1.0,0.0,0.0,0.0,1.0,-12.0121955872,6.28048801422,-22.6219520569,1.0,0.0,0.0,0.0,1.0,0.0,0.0,0.0,1.0,-0.067037651051,-0.272938989258,10.8505219238,1.0,0.0,0.0,0.0,1.0,0.0,0.0,0.0,1.0
1464075976600212297,392,1464075976575408613,,4.40974521637,-2.44590687752,-158.663528442,0.00180800003,1.0,0.0,0.0,0.0,1.0,0.0,0.0,0.0,1.0,-24.6951236725,2.80487799644,-30.3048782349,1.0,0.0,0.0,0.0,1.0,0.0,0.0,0.0,1.0,0.646434448242,-0.478840332031,11.2958434326,1.0,0.0,0.0,0.0,1.0,0.0,0.0,0.0,1.0
1464075976668259771,393,1464075976598592614,,4.32755708694,-3.11398434639,-159.28326416,0.00133200001437,1.0,0.0,0.0,0.0,1.0,0.0,0.0,0.0,1.0,-35.3658561707,3.35365867615,-36.3414611816,1.0,0.0,0.0,0.0,1.0,0.0,0.0,0.0,1.0,0.555454785156,-0.804451757813,11.511321582,1.0,0.0,0.0,0.0,1.0,0.0,0.0,0.0,1.0
1464075976668675134,394,1464075976618879434,,4.21282529831,-3.97050762177,-160.047592163,0.00153300003149,1.0,0.0,0.0,0.0,1.0,0.0,0.0,0.0,1.0,-46.1585388184,-0.426829278469,-42.9878044128,1.0,0.0,0.0,0.0,1.0,0.0,0.0,0.0,1.0,0.201112939453,-0.129286889648,10.9510783936,1.0,0.0,0.0,0.0,1.0,0.0,0.0,0.0,1.0
1464075976668939404,395,1464075976648736542,,3.83050203323,-5.57981681824,-161.297195435,0.00821799971163,1.0,0.0,0.0,0.0,1.0,0.0,0.0,0.0,1.0,-61.8292655945,-13.658536911,-52.6829299927,1.0,0.0,0.0,0.0,1.0,0.0,0.0,0.0,1.0,-0.215478149414,-1.88184250488,11.1569797363,1.0,0.0,0.0,0.0,1.0,0.0,0.0,0.0,1.0
1464075976669189299,396,1464075976666156547,,3.3542945385,-7.00404119492,-162.296173096,0.00124000001233,1.0,0.0,0.0,0.0,1.0,0.0,0.0,0.0,1.0,-59.5731735229,-19.7560977936,-54.8780517578,1.0,0.0,0.0,0.0,1.0,0.0,0.0,0.0,1.0,0.234631762695,-3.62482131348,11.6023012451,1.0,0.0,0.0,0.0,1.0,0.0,0.0,0.0,1.0
1464075976733930011,397,1464075976688433362,,2.76856660843,-8.37527656555,-163.283920288,0.00144499994349,1.0,0.0,0.0,0.0,1.0,0.0,0.0,0.0,1.0,-44.2682914734,-12.3780488968,-49.5121955872,1.0,0.0,0.0,0.0,1.0,0.0,0.0,0.0,1.0,0.885854614258,-4.93205541992,12.5839239258,1.0,0.0,0.0,0.0,1.0,0.0,0.0,0.0,1.0
1464075976734235479,398,1464075976710536584,,2.37411355972,-9.34721660614,-164.239654541,0.00317899999209,1.0,0.0,0.0,0.0,1.0,0.0,0.0,0.0,1.0,-25.3048782349,-0.609756112099,-46.5243911743,1.0,0.0,0.0,0.0,1.0,0.0,0.0,0.0,1.0,0.833182177734,-4.02225878906,12.512097876,1.0,0.0,0.0,0.0,1.0,0.0,0.0,0.0,1.0
1464075976734567093,399,1464075976731727830,,2.25437784195,-9.87776756287,-165.131271362,0.00132599996869,1.0,0.0,0.0,0.0,1.0,0.0,0.0,0.0,1.0,-17.0121955872,7.19512224197,-46.2804908752,1.0,0.0,0.0,0.0,1.0,0.0,0.0,0.0,1.0,0.483628735352,-3.4189199707,12.0332575439,1.0,0.0,0.0,0.0,1.0,0.0,0.0,0.0,1.0
1464075976848079705,400,1464075976752874492,,2.29055571556,-10.2362556458,-166.072982788,0.00137900002301,1.0,0.0,0.0,0.0,1.0,0.0,0.0,0.0,1.0,-8.29268264771,11.5243911743,-47.0121994019,1.0,0.0,0.0,0.0,1.0,0.0,0.0,0.0,1.0,-0.0191536132812,-3.18428820801,11.6789156982,1.0,0.0,0.0,0.0,1.0,0.0,0.0,0.0,1.0
1464075976848485017,401,1464075976773887300,,2.3708422184,-10.390458107,-166.995681763,0.00124999997206,1.0,0.0,0.0,0.0,1.0,0.0,0.0,0.0,1.0,-3.59756112099,13.658536911,-47.0121994019,1.0,0.0,0.0,0.0,1.0,0.0,0.0,0.0,1.0,-0.0191536132812,-2.38941340297,10.6972930176,1.0,0.0,0.0,0.0,1.0,0.0,0.0,0.0,1.0
1464075976848814755,402,1464075976794209172,,2.4832713604,-10.4428415298,-167.925491333,0.00118599995039,1.0,0.0,0.0,0.0,1.0,0.0,0.0,0.0,1.0,-1.52439022064,15.7317075729,-48.0487823486,1.0,0.0,0.0,0.0,1.0,0.0,0.0,0.0,1.0,0.0957680664062,-1.86747729492,9.56244201519,1.0,0.0,0.0,0.0,1.0,0.0,0.0,0.0,1.0
1464075976850538605,403,1464075976816110885,,2.6541531086,-10.4197483063,-168.914871216,0.00126100005582,1.0,0.0,0.0,0.0,1.0,0.0,0.0,0.0,1.0,-2.68292689323,22.3780498505,-46.8902435303,1.0,0.0,0.0,0.0,1.0,0.0,0.0,0.0,1.0,0.804451757813,-1.00077629395,9.06923588867,1.0,0.0,0.0,0.0,1.0,0.0,0.0,0.0,1.0
1464075976850943968,404,1464075976837150620,,2.96571516991,-10.4090480804,-169.873138428,0.00195599999279,1.0,0.0,0.0,0.0,1.0,0.0,0.0,0.0,1.0,-8.84146404266,33.6585388184,-43.2926864624,1.0,0.0,0.0,0.0,1.0,0.0,0.0,0.0,1.0,0.847547387695,-0.612915625,8.69095202637,1.0,0.0,0.0,0.0,1.0,0.0,0.0,0.0,1.0
1464075976975195614,405,1464075976858952124,,3.49575853348,-10.5357837677,-170.775558472,0.00149000005331,1.0,0.0,0.0,0.0,1.0,0.0,0.0,0.0,1.0,-14.6951217651,41.7682952881,-39.6951217651,1.0,0.0,0.0,0.0,1.0,0.0,0.0,0.0,1.0,0.656011254883,-0.622492431641,8.01099875488,1.0,0.0,0.0,0.0,1.0,0.0,0.0,0.0,1.0
1464075976975592905,406,1464075976878957591,,4.15484476089,-10.7820367813,-171.626998901,0.00187699997332,1.0,0.0,0.0,0.0,1.0,0.0,0.0,0.0,1.0,-20.7926826477,45.7317085266,-37.6219520569,1.0,0.0,0.0,0.0,1.0,0.0,0.0,0.0,1.0,0.292092584273,-0.493205541992,7.82425102539,1.0,0.0,0.0,0.0,1.0,0.0,0.0,0.0,1.0
1464075976975932123,407,1464075976901419458,,4.89193868637,-11.1905126572,-172.53364563,0.00257000001147,1.0,0.0,0.0,0.0,1.0,0.0,0.0,0.0,1.0,-25.7317085266,43.3536567688,-38.5365829468,1.0,0.0,0.0,0.0,1.0,0.0,0.0,0.0,1.0,-0.339976635742,-0.737414111328,7.67102211914,1.0,0.0,0.0,0.0,1.0,0.0,0.0,0.0,1.0
1464075976977663368,408,1464075976922920234,,5.56874799728,-11.7383575439,-173.465194702,0.00198800000362,1.0,0.0,0.0,0.0,1.0,0.0,0.0,0.0,1.0,-29.2682933807,33.7195129395,-39.8780479431,1.0,0.0,0.0,0.0,1.0,0.0,0.0,0.0,1.0,-0.727837304687,-1.15879360352,8.46110808247,1.0,0.0,0.0,0.0,1.0,0.0,0.0,0.0,1.0
1464075976978083002,409,1464075976944412832,,5.93878984451,-12.3837270737,-174.338668823,0.0015269999858,1.0,0.0,0.0,0.0,1.0,0.0,0.0,0.0,1.0,-28.4146347046,20.1829280853,-40.6097564697,1.0,0.0,0.0,0.0,1.0,0.0,0.0,0.0,1.0,-0.660799658203,-1.87226569824,9.11233151855,1.0,0.0,0.0,0.0,1.0,0.0,0.0,0.0,1.0
1464075976978400345,410,1464075976964752830,,6.07871294022,-12.9831628799,-175.115066528,0.00176899996586,1.0,0.0,0.0,0.0,1.0,0.0,0.0,0.0,1.0,-26.158536911,15.7926826477,-37.6219520569,1.0,0.0,0.0,0.0,1.0,0.0,0.0,0.0,1.0,-0.689530078125,-2.38462499965,9.69651672363,1.0,0.0,0.0,0.0,1.0,0.0,0.0,0.0,1.0
1464075977090999887,411,1464075976986011419,,6.1545176506,-13.5215511322,-175.83454895,0.001200000057,1.0,0.0,0.0,0.0,1.0,0.0,0.0,0.0,1.0,-20.4878044128,11.6463422775,-33.1097564697,1.0,0.0,0.0,0.0,1.0,0.0,0.0,0.0,1.0,-0.244208569336,-2.60967980957,10.3237975586,1.0,0.0,0.0,0.0,1.0,0.0,0.0,0.0,1.0
1464075977092628112,412,1464075977007911672,,6.21011066437,-13.8902750015,-176.427276611,0.00133999995887,1.0,0.0,0.0,0.0,1.0,0.0,0.0,0.0,1.0,-17.6219520569,13.9024391174,-25.8536586761,1.0,0.0,0.0,0.0,1.0,0.0,0.0,0.0,1.0,-0.320823022461,-1.93451494141,10.7643306641,1.0,0.0,0.0,0.0,1.0,0.0,0.0,0.0,1.0
1464075977092991132,413,1464075977030085623,,6.35315036774,-14.2084407806,-176.879516602,0.00195499998517,1.0,0.0,0.0,0.0,1.0,0.0,0.0,0.0,1.0,-16.4634151459,14.3902444839,-19.5121955872,1.0,0.0,0.0,0.0,1.0,0.0,0.0,0.0,1.0,-0.60812722168,-2.25533796387,10.912771167,1.0,0.0,0.0,0.0,1.0,0.0,0.0,0.0,1.0
1464075977094440763,414,1464075977052051085,,6.51072740555,-14.4565105438,-177.204177856,0.00141799997073,1.0,0.0,0.0,0.0,1.0,0.0,0.0,0.0,1.0,-13.658536911,8.41463470459,-15.6097564697,1.0,0.0,0.0,0.0,1.0,0.0,0.0,0.0,1.0,-1.05823706072,-2.4995465332,11.6214548584,1.0,0.0,0.0,0.0,1.0,0.0,0.0,0.0,1.0
1464075977094781960,415,1464075977072063375,,6.5491476059,-14.6294641495,-177.400558472,0.00120599998627,1.0,0.0,0.0,0.0,1.0,0.0,0.0,0.0,1.0,-10.3658542633,3.84146332741,-10.0609760284,1.0,0.0,0.0,0.0,1.0,0.0,0.0,0.0,1.0,-0.507570751953,-2.60489140625,12.0811415771,1.0,0.0,0.0,0.0,1.0,0.0,0.0,0.0,1.0
1464075977222908648,416,1464075977092948267,,6.54193210602,-14.7139282227,-177.460357666,0.00139700004365,1.0,0.0,0.0,0.0,1.0,0.0,0.0,0.0,1.0,-6.58536624908,5.30487823486,-3.71951246262,1.0,0.0,0.0,0.0,1.0,0.0,0.0,0.0,1.0,-0.368707055664,-3.00232888184,12.2583125,1.0,0.0,0.0,0.0,1.0,0.0,0.0,0.0,1.0
1464075977223243751,417,1464075977113488212,,6.60760641098,-14.7390937805,-177.422149658,0.00128800002858,1.0,0.0,0.0,0.0,1.0,0.0,0.0,0.0,1.0,2.31707310677,5.0,0.426829278469,1.0,0.0,0.0,0.0,1.0,0.0,0.0,0.0,1.0,-0.627280834961,-4.13239206543,12.24394729,1.0,0.0,0.0,0.0,1.0,0.0,0.0,0.0,1.0
1464075977223406199,418,1464075977134238625,,6.64780712128,-14.5535030365,-177.325500488,0.00157399999443,1.0,0.0,0.0,0.0,1.0,0.0,0.0,0.0,1.0,16.5853652954,2.80487799644,2.13414645195,1.0,0.0,0.0,0.0,1.0,0.0,0.0,0.0,1.0,-0.488417138672,-4.08929643555,12.124237207,1.0,0.0,0.0,0.0,1.0,0.0,0.0,0.0,1.0
1464075977230727169,419,1464075977155593985,,6.65446090698,-14.0174179077,-177.182861328,0.00130700005684,1.0,0.0,0.0,0.0,1.0,0.0,0.0,0.0,1.0,23.5975627899,1.52439022064,3.35365867615,1.0,0.0,0.0,0.0,1.0,0.0,0.0,0.0,1.0,-0.512359155273,-2.3415290775,11.5831476318,1.0,0.0,0.0,0.0,1.0,0.0,0.0,0.0,1.0
1464075977232448049,420,1464075977177742467,,6.63800764084,-13.3294553757,-177.003097534,0.0019420000026,1.0,0.0,0.0,0.0,1.0,0.0,0.0,0.0,1.0,21.7073173523,-1.09756100178,2.62195134163,1.0,0.0,0.0,0.0,1.0,0.0,0.0,0.0,1.0,-0.660799658203,-1.75255561523,11.1761333496,1.0,0.0,0.0,0.0,1.0,0.0,0.0,0.0,1.0
1464075977232967944,421,1464075977208555197,,6.46272993088,-12.5387592316,-176.78352356,0.0107599999756,1.0,0.0,0.0,0.0,1.0,0.0,0.0,0.0,1.0,22.8048782349,-11.2804880142,0.12195122242,1.0,0.0,0.0,0.0,1.0,0.0,0.0,0.0,1.0,-1.0534486574,-2.71981308594,10.5775829346,1.0,0.0,0.0,0.0,1.0,0.0,0.0,0.0,1.0
1464075977234621794,422,1464075977229778109,,6.17485332489,-11.9703779221,-176.614089966,0.00158000004012,1.0,0.0,0.0,0.0,1.0,0.0,0.0,0.0,1.0,28.475610733,-14.0243902206,2.19512200356,1.0,0.0,0.0,0.0,1.0,0.0,0.0,0.0,1.0,-0.512359155273,-2.89219560547,10.6254669678,1.0,0.0,0.0,0.0,1.0,0.0,0.0,0.0,1.0
1464075977360052968,423,1464075977253648357,,5.85712432861,-11.2477769852,-176.348693848,0.00374699989334,1.0,0.0,0.0,0.0,1.0,0.0,0.0,0.0,1.0,32.4390220642,-8.29268264771,8.17073154449,1.0,0.0,0.0,0.0,1.0,0.0,0.0,0.0,1.0,0.172382519531,-2.32716386754,10.3573163818,1.0,0.0,0.0,0.0,1.0,0.0,0.0,0.0,1.0
1464075977360097968,424,1464075977275453038,,5.72367763519,-10.3639879227,-175.941589355,0.00404299981892,1.0,0.0,0.0,0.0,1.0,0.0,0.0,0.0,1.0,32.0121955872,2.56097555161,15.1219511032,1.0,0.0,0.0,0.0,1.0,0.0,0.0,0.0,1.0,0.325611425781,-1.2976572998,9.52892319194,1.0,0.0,0.0,0.0,1.0,0.0,0.0,0.0,1.0
1464075977360160572,425,1464075977296575273,,5.82825088501,-9.63511657715,-175.511444092,0.00187200005166,1.0,0.0,0.0,0.0,1.0,0.0,0.0,0.0,1.0,24.0853652954,9.39024448395,18.841463089,1.0,0.0,0.0,0.0,1.0,0.0,0.0,0.0,1.0,-0.110133276367,-0.775721337891,9.13627353516,1.0,0.0,0.0,0.0,1.0,0.0,0.0,0.0,1.0
1464075977360205676,426,1464075977317850841,,6.05879211426,-9.02632331848,-175.041702271,0.00225999997929,1.0,0.0,0.0,0.0,1.0,0.0,0.0,0.0,1.0,16.2195110321,6.28048801422,18.1707305908,1.0,0.0,0.0,0.0,1.0,0.0,0.0,0.0,1.0,-0.651222851562,-0.785298144531,8.59518454448,1.0,0.0,0.0,0.0,1.0,0.0,0.0,0.0,1.0
1464075977401116764,427,1464075977340606093,,6.15336179733,-8.53802680969,-174.559234619,0.00291700009257,1.0,0.0,0.0,0.0,1.0,0.0,0.0,0.0,1.0,10.6707315445,-0.365853667259,14.6341466904,1.0,0.0,0.0,0.0,1.0,0.0,0.0,0.0,1.0,-0.363918652344,-0.76614453125,7.82903942871,1.0,0.0,0.0,0.0,1.0,0.0,0.0,0.0,1.0
1464075977402932853,428,1464075977366171493,,6.07584047318,-8.17521190643,-174.088119507,0.00633100001141,1.0,0.0,0.0,0.0,1.0,0.0,0.0,0.0,1.0,2.07317066193,-2.62195134163,11.0365858078,1.0,0.0,0.0,0.0,1.0,0.0,0.0,0.0,1.0,0.0335188255255,-0.45968671875,7.31668027344,1.0,0.0,0.0,0.0,1.0,0.0,0.0,0.0,1.0
1464075977419437704,429,1464075977388608777,,5.9248585701,-8.08239650726,-173.784973145,0.00159200001508,1.0,0.0,0.0,0.0,1.0,0.0,0.0,0.0,1.0,-3.23170733452,-0.792682945728,6.95121955872,1.0,0.0,0.0,0.0,1.0,0.0,0.0,0.0,1.0,0.15801730957,-1.22583125,7.22091220703,1.0,0.0,0.0,0.0,1.0,0.0,0.0,0.0,1.0
1464075977419475777,430,1464075977410052209,,5.83736038208,-8.17878246307,-173.582168579,0.00130100001115,1.0,0.0,0.0,0.0,1.0,0.0,0.0,0.0,1.0,-2.74390244484,-1.2195122242,4.32926845551,1.0,0.0,0.0,0.0,1.0,0.0,0.0,0.0,1.0,-0.316034619141,-2.37983659633,7.84340463867,1.0,0.0,0.0,0.0,1.0,0.0,0.0,0.0,1.0
1464075977464932687,431,1464075977431185329,,5.71984386444,-8.30113601685,-173.431533813,0.0015419999836,1.0,0.0,0.0,0.0,1.0,0.0,0.0,0.0,1.0,5.42682933807,-3.90243911743,2.25609779358,1.0,0.0,0.0,0.0,1.0,0.0,0.0,0.0,1.0,-0.0239420166016,-3.14598098145,8.66222219097,1.0,0.0,0.0,0.0,1.0,0.0,0.0,0.0,1.0
1464075977465263779,432,1464075977453071729,,5.54709434509,-8.25129318237,-173.299972534,0.00204399996437,1.0,0.0,0.0,0.0,1.0,0.0,0.0,0.0,1.0,14.7560987473,-5.91463422775,1.40243899822,1.0,0.0,0.0,0.0,1.0,0.0,0.0,0.0,1.0,-0.110133276367,-3.35188232422,9.42357714985,1.0,0.0,0.0,0.0,1.0,0.0,0.0,0.0,1.0
1464075977512254122,433,1464075977474315943,,5.341837883,-7.99820613861,-173.171737671,0.00161200005095,1.0,0.0,0.0,0.0,1.0,0.0,0.0,0.0,1.0,22.2560977936,-5.97560977936,1.34146344662,1.0,0.0,0.0,0.0,1.0,0.0,0.0,0.0,1.0,0.0191536132812,-3.36145913086,10.1083194092,1.0,0.0,0.0,0.0,1.0,0.0,0.0,0.0,1.0
1464075977512532559,434,1464075977495822916,,5.1444644928,-7.5621342659,-173.053344727,0.00147599994671,1.0,0.0,0.0,0.0,1.0,0.0,0.0,0.0,1.0,28.7195110321,-7.25609779358,-0.0609756112099,1.0,0.0,0.0,0.0,1.0,0.0,0.0,0.0,1.0,-0.162805712891,-3.03584770508,11.2192289795,1.0,0.0,0.0,0.0,1.0,0.0,0.0,0.0,1.0
1464075977569822666,435,1464075977518566553,,4.90971040726,-6.96666574478,-172.972640991,0.00158799998462,1.0,0.0,0.0,0.0,1.0,0.0,0.0,0.0,1.0,29.3292694092,-10.3048782349,-3.10975623131,1.0,0.0,0.0,0.0,1.0,0.0,0.0,0.0,1.0,-0.383072265625,-2.13083962367,11.4778027588,1.0,0.0,0.0,0.0,1.0,0.0,0.0,0.0,1.0
1464075977569894072,436,1464075977540527015,,4.58114480972,-6.36243772507,-172.970748901,0.00178000004962,1.0,0.0,0.0,0.0,1.0,0.0,0.0,0.0,1.0,23.658536911,-17.2560977936,-8.65853691101,1.0,0.0,0.0,0.0,1.0,0.0,0.0,0.0,1.0,-0.603338854892,-1.2737152832,11.6837041016,1.0,0.0,0.0,0.0,1.0,0.0,0.0,0.0,1.0
1464075977569938447,437,1464075977560049775,,4.14087677002,-5.92078447342,-173.067565918,0.00194400001783,1.0,0.0,0.0,0.0,1.0,0.0,0.0,0.0,1.0,13.2926826477,-21.8292694092,-13.5365858078,1.0,0.0,0.0,0.0,1.0,0.0,0.0,0.0,1.0,-0.656011254883,-1.1540052002,12.0141039307,1.0,0.0,0.0,0.0,1.0,0.0,0.0,0.0,1.0
1464075977622251900,438,1464075977581683571,,3.56421852112,-5.80015945435,-173.249954224,0.00172399997246,1.0,0.0,0.0,0.0,1.0,0.0,0.0,0.0,1.0,9.45121955872,-28.0487804413,-16.0365848541,1.0,0.0,0.0,0.0,1.0,0.0,0.0,0.0,1.0,-0.407014282227,-3.89297189941,13.1058598877,1.0,0.0,0.0,0.0,1.0,0.0,0.0,0.0,1.0
1464075977622539139,439,1464075977602752161,,2.95713329315,-5.69361400604,-173.451095581,0.0014530000044,1.0,0.0,0.0,0.0,1.0,0.0,0.0,0.0,1.0,20.9146347046,-23.7804889679,-14.8170728683,1.0,0.0,0.0,0.0,1.0,0.0,0.0,0.0,1.0,-0.0718260498047,-5.08049592285,13.8815812256,1.0,0.0,0.0,0.0,1.0,0.0,0.0,0.0,1.0
1464075977648659277,440,1464075977623941166,,2.4490916729,-5.28411960602,-173.618713379,0.00123199995141,1.0,0.0,0.0,0.0,1.0,0.0,0.0,0.0,1.0,31.0975627899,-18.2926826477,-13.7195129395,1.0,0.0,0.0,0.0,1.0,0.0,0.0,0.0,1.0,0.541089611728,-3.27047946777,12.8185556885,1.0,0.0,0.0,0.0,1.0,0.0,0.0,0.0,1.0
1464075977648716465,441,1464075977644790329,,2.12022614479,-4.73081302643,-173.788894653,0.00155499996617,1.0,0.0,0.0,0.0,1.0,0.0,0.0,0.0,1.0,30.3048782349,-8.35365867615,-14.5121955872,1.0,0.0,0.0,0.0,1.0,0.0,0.0,0.0,1.0,0.191536132812,-2.32716386754,11.4299187256,1.0,0.0,0.0,0.0,1.0,0.0,0.0,0.0,1.0
1464075977710531559,442,1464075977672020829,,1.9091155529,-4.06065416336,-174.154052734,0.0131569998339,1.0,0.0,0.0,0.0,1.0,0.0,0.0,0.0,1.0,30.0000019073,-2.80487799644,-19.5731716156,1.0,0.0,0.0,0.0,1.0,0.0,0.0,0.0,1.0,0.292092584273,-2.30801040039,10.9319247803,1.0,0.0,0.0,0.0,1.0,0.0,0.0,0.0,1.0
1464075977714291028,443,1464075977693332803,,1.8469414711,-3.56109046936,-174.483139038,0.00189800001681,1.0,0.0,0.0,0.0,1.0,0.0,0.0,0.0,1.0,28.7195110321,3.59756112099,-20.1829280853,1.0,0.0,0.0,0.0,1.0,0.0,0.0,0.0,1.0,0.493205541992,-1.93930334473,10.5344873047,1.0,0.0,0.0,0.0,1.0,0.0,0.0,0.0,1.0
1464075977746822920,444,1464075977719746066,,2.00533032417,-2.96666526794,-174.875091553,0.0112269995734,1.0,0.0,0.0,0.0,1.0,0.0,0.0,0.0,1.0,21.0975627899,17.7439022064,-18.1707305908,1.0,0.0,0.0,0.0,1.0,0.0,0.0,0.0,1.0,0.837970581055,-0.76135612793,9.64863327495,1.0,0.0,0.0,0.0,1.0,0.0,0.0,0.0,1.0
1464075977747232242,445,1464075977741393820,,2.38286352158,-2.55551862717,-175.188552856,0.00264499988407,1.0,0.0,0.0,0.0,1.0,0.0,0.0,0.0,1.0,9.02439117432,29.8170719147,-16.5853652954,1.0,0.0,0.0,0.0,1.0,0.0,0.0,0.0,1.0,1.00556469727,0.0191536132812,8.69095202637,1.0,0.0,0.0,0.0,1.0,0.0,0.0,0.0,1.0
1464075977815877110,446,1464075977763088710,,2.98433828354,-2.39598584175,-175.47265625,0.00198599998839,1.0,0.0,0.0,0.0,1.0,0.0,0.0,0.0,1.0,-4.02439022064,37.3780517578,-16.7073173523,1.0,0.0,0.0,0.0,1.0,0.0,0.0,0.0,1.0,0.651222851562,0.15322890625,7.60877287598,1.0,0.0,0.0,0.0,1.0,0.0,0.0,0.0,1.0
1464075977831537276,447,1464075977784002977,,3.64181637764,-2.48571920395,-175.778030396,0.00129199994262,1.0,0.0,0.0,0.0,1.0,0.0,0.0,0.0,1.0,-15.0000009537,37.9878044128,-19.0853652954,1.0,0.0,0.0,0.0,1.0,0.0,0.0,0.0,1.0,0.421379492187,0.277727392578,6.90008918457,1.0,0.0,0.0,0.0,1.0,0.0,0.0,0.0,1.0
1464075977831603891,448,1464075977804577349,,4.32141304016,-2.79525971413,-176.126403809,0.00140199996531,1.0,0.0,0.0,0.0,1.0,0.0,0.0,0.0,1.0,-23.475610733,35.6097564697,-20.7926826477,1.0,0.0,0.0,0.0,1.0,0.0,0.0,0.0,1.0,-0.565031591797,0.593762048251,5.99986936035,1.0,0.0,0.0,0.0,1.0,0.0,0.0,0.0,1.0
1464075977831645141,449,1464075977825486876,,4.93462896347,-3.32802224159,-176.54309082,0.00166599999648,1.0,0.0,0.0,0.0,1.0,0.0,0.0,0.0,1.0,-33.5365867615,26.8902454376,-24.4512195587,1.0,0.0,0.0,0.0,1.0,0.0,0.0,0.0,1.0,-0.076614453125,-0.00478840332031,5.76523759766,1.0,0.0,0.0,0.0,1.0,0.0,0.0,0.0,1.0
1464075978290826253,450,1464075977849148792,,5.3452038765,-4.13446807861,-177.068771362,0.00225999997929,1.0,0.0,0.0,0.0,1.0,0.0,0.0,0.0,1.0,-41.1585350037,20.0,-27.5609760284,1.0,0.0,0.0,0.0,1.0,0.0,0.0,0.0,1.0,-0.162805712891,-0.397437475586,6.43082565918,1.0,0.0,0.0,0.0,1.0,0.0,0.0,0.0,1.0
1464075978290867034,451,1464075977871726439,,5.57966279984,-5.1360244751,-177.626403809,0.00195900001563,1.0,0.0,0.0,0.0,1.0,0.0,0.0,0.0,1.0,-43.7195129395,12.1951217651,-28.475610733,1.0,0.0,0.0,0.0,1.0,0.0,0.0,0.0,1.0,-0.15322890625,-1.28329208984,7.4268135498,1.0,0.0,0.0,0.0,1.0,0.0,0.0,0.0,1.0
1464075978290903961,452,1464075977892841643,,5.67705488205,-6.15413570404,-178.13760376,0.00299800001085,1.0,0.0,0.0,0.0,1.0,0.0,0.0,0.0,1.0,-42.7439041138,6.09756088257,-26.3414649963,1.0,0.0,0.0,0.0,1.0,0.0,0.0,0.0,1.0,-0.517147558594,-1.81959326172,8.60954975444,1.0,0.0,0.0,0.0,1.0,0.0,0.0,0.0,1.0
1464075978291191617,453,1464075977913100495,,5.65691041946,-7.17786026001,-178.578765869,0.00305599998683,1.0,0.0,0.0,0.0,1.0,0.0,0.0,0.0,1.0,-39.634147644,4.32926845551,-20.6707324982,1.0,0.0,0.0,0.0,1.0,0.0,0.0,0.0,1.0,0.00478840332031,-2.35110588414,9.82580361328,1.0,0.0,0.0,0.0,1.0,0.0,0.0,0.0,1.0
1464075978291844375,454,1464075977935059603,,5.64384746552,-8.04595184326,-178.861495972,0.00200100010261,1.0,0.0,0.0,0.0,1.0,0.0,0.0,0.0,1.0,-34.4512214661,3.41463422775,-14.2682924271,1.0,0.0,0.0,0.0,1.0,0.0,0.0,0.0,1.0,-0.0909796630859,-2.4756045166,10.4387192383,1.0,0.0,0.0,0.0,1.0,0.0,0.0,0.0,1.0
1464075978291896875,455,1464075977955909860,,5.64558506012,-8.77944469452,-178.996368408,0.00175099994522,1.0,0.0,0.0,0.0,1.0,0.0,0.0,0.0,1.0,-32.5,3.53658556938,-6.95121955872,1.0,0.0,0.0,0.0,1.0,0.0,0.0,0.0,1.0,-0.445321508789,-2.01112939453,10.9223479736,1.0,0.0,0.0,0.0,1.0,0.0,0.0,0.0,1.0
1464075978292065208,456,1464075977978656361,,5.64482545853,-9.43720912933,-178.982559204,0.00221999990754,1.0,0.0,0.0,0.0,1.0,0.0,0.0,0.0,1.0,-32.5,0.365853667259,-1.2804877758,1.0,0.0,0.0,0.0,1.0,0.0,0.0,0.0,1.0,-0.411802685547,-1.82438166504,11.3054202393,1.0,0.0,0.0,0.0,1.0,0.0,0.0,0.0,1.0
1464075978292106302,457,1464075978001358488,,5.60053062439,-10.0945634842,-178.829467773,0.00232199998572,1.0,0.0,0.0,0.0,1.0,0.0,0.0,0.0,1.0,-34.0853691101,-1.52439022064,4.87804889679,1.0,0.0,0.0,0.0,1.0,0.0,0.0,0.0,1.0,-0.483628735352,-1.87705410156,11.7220113281,1.0,0.0,0.0,0.0,1.0,0.0,0.0,0.0,1.0
1464075978292142656,458,1464075978022384473,,5.55615234375,-10.723862648,-178.55166626,0.00282600009814,1.0,0.0,0.0,0.0,1.0,0.0,0.0,0.0,1.0,-34.1463432312,-2.86585378647,11.0365858078,1.0,0.0,0.0,0.0,1.0,0.0,0.0,0.0,1.0,-0.45968671875,-2.08774370153,12.1864864502,1.0,0.0,0.0,0.0,1.0,0.0,0.0,0.0,1.0
1464075978292451509,459,1464075978045510401,,5.51447677612,-11.4124555588,-178.092437744,0.00356699991971,1.0,0.0,0.0,0.0,1.0,0.0,0.0,0.0,1.0,-31.2195129395,0.0,17.6829280853,1.0,0.0,0.0,0.0,1.0,0.0,0.0,0.0,1.0,-0.0383072265625,-3.35667072754,12.3540805664,1.0,0.0,0.0,0.0,1.0,0.0,0.0,0.0,1.0
1464075978292842758,460,1464075978069292472,,5.55571746826,-11.9928808212,-177.548095703,0.00221999990754,1.0,0.0,0.0,0.0,1.0,0.0,0.0,0.0,1.0,-14.0853662491,-0.792682945728,22.6219520569,1.0,0.0,0.0,0.0,1.0,0.0,0.0,0.0,1.0,-0.143652099609,-4.84586416016,12.5791355225,1.0,0.0,0.0,0.0,1.0,0.0,0.0,0.0,1.0
1464075978293221299,461,1464075978089137107,,5.58807373047,-12.1274938583,-176.959136963,0.00193599995691,1.0,0.0,0.0,0.0,1.0,0.0,0.0,0.0,1.0,-1.03658533096,1.2804877758,26.8902454376,1.0,0.0,0.0,0.0,1.0,0.0,0.0,0.0,1.0,0.263362164351,-2.92571442871,12.4259066162,1.0,0.0,0.0,0.0,1.0,0.0,0.0,0.0,1.0
1464075978293711818,462,1464075978110729132,,5.70129823685,-11.9473552704,-176.247573853,0.00243599992245,1.0,0.0,0.0,0.0,1.0,0.0,0.0,0.0,1.0,-2.68292689323,7.01219511032,30.1829280853,1.0,0.0,0.0,0.0,1.0,0.0,0.0,0.0,1.0,0.220266552734,-1.29286889648,11.6166664551,1.0,0.0,0.0,0.0,1.0,0.0,0.0,0.0,1.0
1464075978293976141,463,1464075978133112509,,5.89036750793,-11.8418283463,-175.544311523,0.0043730000034,1.0,0.0,0.0,0.0,1.0,0.0,0.0,0.0,1.0,-5.79268312454,-1.70731711388,24.5121955872,1.0,0.0,0.0,0.0,1.0,0.0,0.0,0.0,1.0,-1.16358193377,-1.98718737793,10.8217915039,1.0,0.0,0.0,0.0,1.0,0.0,0.0,0.0,1.0
1464075978294230671,464,1464075978152915477,,5.86247587204,-11.8619585037,-174.975326538,0.00302800000645,1.0,0.0,0.0,0.0,1.0,0.0,0.0,0.0,1.0,-1.46341466904,-16.158536911,19.6341457367,1.0,0.0,0.0,0.0,1.0,0.0,0.0,0.0,1.0,-1.77649763184,-3.10767375488,10.4435076416,1.0,0.0,0.0,0.0,1.0,0.0,0.0,0.0,1.0
1464075978294595826,465,1464075978173905838,,5.44190120697,-11.7930583954,-174.439575195,0.00177500001155,1.0,0.0,0.0,0.0,1.0,0.0,0.0,0.0,1.0,8.65853691101,-29.2073173523,15.4878053665,1.0,0.0,0.0,0.0,1.0,0.0,0.0,0.0,1.0,-0.493205541992,-3.48595761719,10.4961800781,1.0,0.0,0.0,0.0,1.0,0.0,0.0,0.0,1.0
1464075978294953430,466,1464075978195225780,,4.86291646957,-11.5011043549,-173.892379761,0.00211700005457,1.0,0.0,0.0,0.0,1.0,0.0,0.0,0.0,1.0,16.2195110321,-27.9878063202,17.6829280853,1.0,0.0,0.0,0.0,1.0,0.0,0.0,0.0,1.0,0.143652099609,-2.75333190918,10.4866032715,1.0,0.0,0.0,0.0,1.0,0.0,0.0,0.0,1.0
1464075978295220669,467,1464075978216067027,,4.35025835037,-11.0297021866,-173.273025513,0.00124899996445,1.0,0.0,0.0,0.0,1.0,0.0,0.0,0.0,1.0,19.3902435303,-20.7926826477,22.2560977936,1.0,0.0,0.0,0.0,1.0,0.0,0.0,0.0,1.0,1.49398183594,-1.68072956543,10.0795889893,1.0,0.0,0.0,0.0,1.0,0.0,0.0,0.0,1.0
1464075978295566345,468,1464075978239018163,,4.06626272202,-10.4810495377,-172.571868896,0.00213999999687,1.0,0.0,0.0,0.0,1.0,0.0,0.0,0.0,1.0,15.7317075729,-6.52439069748,25.9146347046,1.0,0.0,0.0,0.0,1.0,0.0,0.0,0.0,1.0,0.316034619141,-1.2737152832,9.19852277832,1.0,0.0,0.0,0.0,1.0,0.0,0.0,0.0,1.0
1464075978295847125,469,1464075978261269405,,3.99706125259,-10.0009012222,-171.88180542,0.00269300001673,1.0,0.0,0.0,0.0,1.0,0.0,0.0,0.0,1.0,13.7195129395,-5.18292713165,23.9634151459,1.0,0.0,0.0,0.0,1.0,0.0,0.0,0.0,1.0,0.0430956298828,-1.22104284668,8.3030907729,1.0,0.0,0.0,0.0,1.0,0.0,0.0,0.0,1.0
1464075978296388270,470,1464075978282184245,,3.9030687809,-9.58235263824,-171.301239014,0.00132499996107,1.0,0.0,0.0,0.0,1.0,0.0,0.0,0.0,1.0,10.0609760284,-5.12195110321,19.3902435303,1.0,0.0,0.0,0.0,1.0,0.0,0.0,0.0,1.0,0.215478149414,-0.756567724609,7.57525405273,1.0,0.0,0.0,0.0,1.0,0.0,0.0,0.0,1.0
1464075978968703967,471,1464075978304274915,,3.78656697273,-9.24856758118,-170.807495117,0.00193300005049,1.0,0.0,0.0,0.0,1.0,0.0,0.0,0.0,1.0,3.84146332741,-4.02439022064,15.1829271317,1.0,0.0,0.0,0.0,1.0,0.0,0.0,0.0,1.0,0.181959326172,-0.646434448242,7.34541069336,1.0,0.0,0.0,0.0,1.0,0.0,0.0,0.0,1.0
1464075978969755735,472,1464075978327024125,,3.61662960052,-9.05180072784,-170.44480896,0.00133899995126,1.0,0.0,0.0,0.0,1.0,0.0,0.0,0.0,1.0,0.0609756112099,-0.914634168148,9.5731716156,1.0,0.0,0.0,0.0,1.0,0.0,0.0,0.0,1.0,0.837970581055,-0.943315454102,7.33583388672,1.0,0.0,0.0,0.0,1.0,0.0,0.0,0.0,1.0
1464075978977642745,473,1464075978346901780,,3.54037690163,-9.0291967392,-170.202331543,0.00224799988791,1.0,0.0,0.0,0.0,1.0,0.0,0.0,0.0,1.0,-0.792682945728,4.45121955872,5.0,1.0,0.0,0.0,0.0,1.0,0.0,0.0,0.0,1.0,0.579396801758,-1.81001645508,7.38371791992,1.0,0.0,0.0,0.0,1.0,0.0,0.0,0.0,1.0
1464075978978578732,474,1464075978367769484,,3.56343603134,-9.09790706635,-170.069473267,0.00139200000558,1.0,0.0,0.0,0.0,1.0,0.0,0.0,0.0,1.0,2.19512200356,8.10975551605,1.8902438879,1.0,0.0,0.0,0.0,1.0,0.0,0.0,0.0,1.0,0.579396801758,-2.56658417969,8.36534001606,1.0,0.0,0.0,0.0,1.0,0.0,0.0,0.0,1.0
1464075978982839762,475,1464075978388930261,,3.64139723778,-9.10517406464,-170.015945435,0.00174600002356,1.0,0.0,0.0,0.0,1.0,0.0,0.0,0.0,1.0,8.78048801422,9.08536529541,-1.40243899822,1.0,0.0,0.0,0.0,1.0,0.0,0.0,0.0,1.0,0.253785375977,-3.21301862793,9.2176763916,1.0,0.0,0.0,0.0,1.0,0.0,0.0,0.0,1.0
1464075978984998506,476,1464075978409675518,,3.7361497879,-8.9837884903,-170.025482178,0.00132000003941,1.0,0.0,0.0,0.0,1.0,0.0,0.0,0.0,1.0,15.548781395,8.23170757294,-4.57317066193,1.0,0.0,0.0,0.0,1.0,0.0,0.0,0.0,1.0,0.0957680664062,-3.25611425781,9.98382092285,1.0,0.0,0.0,0.0,1.0,0.0,0.0,0.0,1.0
1464075978985064340,477,1464075978430444473,,3.80733752251,-8.72195148468,-170.095458984,0.0018680000212,1.0,0.0,0.0,0.0,1.0,0.0,0.0,0.0,1.0,20.5487823486,4.51219558716,-7.74390268326,1.0,0.0,0.0,0.0,1.0,0.0,0.0,0.0,1.0,-0.0287304199219,-3.3470939209,10.9845972168,1.0,0.0,0.0,0.0,1.0,0.0,0.0,0.0,1.0
1464075978985116110,478,1464075978451253219,,3.77264165878,-8.32828330994,-170.225662231,0.00149900000542,1.0,0.0,0.0,0.0,1.0,0.0,0.0,0.0,1.0,25.0609760284,-0.731707334518,-11.7682924271,1.0,0.0,0.0,0.0,1.0,0.0,0.0,0.0,1.0,-0.0143652099609,-2.96881005859,11.7411649414,1.0,0.0,0.0,0.0,1.0,0.0,0.0,0.0,1.0
1464075978985157048,479,1464075978474030345,,3.60803747177,-7.8093419075,-170.432022095,0.00285999989137,1.0,0.0,0.0,0.0,1.0,0.0,0.0,0.0,1.0,23.475610733,-5.36585378647,-15.6707315445,1.0,0.0,0.0,0.0,1.0,0.0,0.0,0.0,1.0,-0.0909796630859,-2.51391174316,12.3828109863,1.0,0.0,0.0,0.0,1.0,0.0,0.0,0.0,1.0
1464075978985194548,480,1464075978494119250,,3.37217473984,-7.35429096222,-170.685806274,0.00120699999388,1.0,0.0,0.0,0.0,1.0,0.0,0.0,0.0,1.0,20.1219520569,-11.7682924271,-20.0609760284,1.0,0.0,0.0,0.0,1.0,0.0,0.0,0.0,1.0,-0.296881024126,-1.87226569824,12.2343704834,1.0,0.0,0.0,0.0,1.0,0.0,0.0,0.0,1.0
1464075978985235381,481,1464075978517614916,,2.98654007912,-7.04848575592,-171.048828125,0.00265999999829,1.0,0.0,0.0,0.0,1.0,0.0,0.0,0.0,1.0,13.4756097794,-20.6707324982,-25.3658542633,1.0,0.0,0.0,0.0,1.0,0.0,0.0,0.0,1.0,-0.995987890625,-3.40934316406,12.9334773682,1.0,0.0,0.0,0.0,1.0,0.0,0.0,0.0,1.0
1464075978985281214,482,1464075978537970382,,2.42968583107,-6.87282848358,-171.453857422,0.00147599994671,1.0,0.0,0.0,0.0,1.0,0.0,0.0,0.0,1.0,24.5121955872,-26.0975627899,-26.8292694092,1.0,0.0,0.0,0.0,1.0,0.0,0.0,0.0,1.0,-0.124498486328,-5.04218869629,13.9486188721,1.0,0.0,0.0,0.0,1.0,0.0,0.0,0.0,1.0
1464075978985363610,483,1464075978557814600,,1.88026082516,-6.44324636459,-171.828353882,0.002431999892,1.0,0.0,0.0,0.0,1.0,0.0,0.0,0.0,1.0,32.8048782349,-18.2926826477,-23.2317085266,1.0,0.0,0.0,0.0,1.0,0.0,0.0,0.0,1.0,0.61770402832,-3.50989963379,13.3883756836,1.0,0.0,0.0,0.0,1.0,0.0,0.0,0.0,1.0
1464075978985412984,484,1464075978579322719,,1.52263355255,-5.8251247406,-172.163970947,0.00158100004774,1.0,0.0,0.0,0.0,1.0,0.0,0.0,0.0,1.0,28.0487804413,-0.609756112099,-20.6097564697,1.0,0.0,0.0,0.0,1.0,0.0,0.0,0.0,1.0,1.24019645996,-1.42215578613,12.2918313232,1.0,0.0,0.0,0.0,1.0,0.0,0.0,0.0,1.0
1464075978985452516,485,1464075978599380999,,1.55127811432,-5.29812145233,-172.506256104,0.00154700002167,1.0,0.0,0.0,0.0,1.0,0.0,0.0,0.0,1.0,17.1951217651,16.4024391174,-20.0609760284,1.0,0.0,0.0,0.0,1.0,0.0,0.0,0.0,1.0,0.861912597656,-1.12527478027,11.5352635986,1.0,0.0,0.0,0.0,1.0,0.0,0.0,0.0,1.0
1464075978985493922,486,1464075978619928548,,1.87626039982,-5.02185726166,-172.882232666,0.00176100002136,1.0,0.0,0.0,0.0,1.0,0.0,0.0,0.0,1.0,9.75609779358,22.6219520569,-21.8902435303,1.0,0.0,0.0,0.0,1.0,0.0,0.0,0.0,1.0,0.143652099609,-1.38863696289,11.1138841064,1.0,0.0,0.0,0.0,1.0,0.0,0.0,0.0,1.0
1464075978985531890,487,1464075978641361824,,2.27671551704,-4.89197826385,-173.293273926,0.00118899997324,1.0,0.0,0.0,0.0,1.0,0.0,0.0,0.0,1.0,2.31707310677,22.3170719147,-22.3780498505,1.0,0.0,0.0,0.0,1.0,0.0,0.0,0.0,1.0,0.210689746094,-1.03429511719,10.8840407471,1.0,0.0,0.0,0.0,1.0,0.0,0.0,0.0,1.0
1464075978985567932,488,1464075978661696092,,2.66445016861,-4.88877105713,-173.69039917,0.00227800011635,1.0,0.0,0.0,0.0,1.0,0.0,0.0,0.0,1.0,-6.34146356583,23.3536586761,-20.975610733,1.0,0.0,0.0,0.0,1.0,0.0,0.0,0.0,1.0,0.502782348633,-0.450109912109,9.99339772949,1.0,0.0,0.0,0.0,1.0,0.0,0.0,0.0,1.0
1464075978985605640,489,1464075978682898691,,3.05735492706,-5.01571941376,-174.065994263,0.00127999996766,1.0,0.0,0.0,0.0,1.0,0.0,0.0,0.0,1.0,-18.1097564697,25.1219520569,-20.1829280853,1.0,0.0,0.0,0.0,1.0,0.0,0.0,0.0,1.0,0.368707055664,0.162805712891,9.08360109863,1.0,0.0,0.0,0.0,1.0,0.0,0.0,0.0,1.0
1464075978985645432,490,1464075978704113010,,3.45824193954,-5.34214496613,-174.445404053,0.00122700002976,1.0,0.0,0.0,0.0,1.0,0.0,0.0,0.0,1.0,-30.4878044128,20.4878044128,-22.4390239716,1.0,0.0,0.0,0.0,1.0,0.0,0.0,0.0,1.0,-0.15322890625,0.478840332031,7.82425102539,1.0,0.0,0.0,0.0,1.0,0.0,0.0,0.0,1.0
1464075978985683296,491,1464075978725431963,,3.72845029831,-5.9207983017,-174.894302368,0.00129599997308,1.0,0.0,0.0,0.0,1.0,0.0,0.0,0.0,1.0,-41.0975646973,12.4390249252,-26.2804889679,1.0,0.0,0.0,0.0,1.0,0.0,0.0,0.0,1.0,-0.248996972656,0.067037651051,7.20175859375,1.0,0.0,0.0,0.0,1.0,0.0,0.0,0.0,1.0
1464075978985724234,492,1464075978745862793,,3.81302905083,-6.73499536514,-175.382293701,0.00141000002623,1.0,0.0,0.0,0.0,1.0,0.0,0.0,0.0,1.0,-47.3780517578,4.93902444839,-29.0853672028,1.0,0.0,0.0,0.0,1.0,0.0,0.0,0.0,1.0,-0.119710083008,-0.526724328702,6.96712683105,1.0,0.0,0.0,0.0,1.0,0.0,0.0,0.0,1.0
1464075978985765900,493,1464075978767570027,,3.70315527916,-7.72944450378,-175.942611694,0.00137299997732,1.0,0.0,0.0,0.0,1.0,0.0,0.0,0.0,1.0,-49.207321167,4.93902444839,-30.3048782349,1.0,0.0,0.0,0.0,1.0,0.0,0.0,0.0,1.0,0.373495458984,-0.976834277344,6.69897624512,1.0,0.0,0.0,0.0,1.0,0.0,0.0,0.0,1.0
1464075978985809546,494,1464075978789564760,,3.60127973557,-8.81241321564,-176.518890381,0.00180900003761,1.0,0.0,0.0,0.0,1.0,0.0,0.0,0.0,1.0,-47.4390258789,7.74390268326,-29.0853672028,1.0,0.0,0.0,0.0,1.0,0.0,0.0,0.0,1.0,0.651222851562,-1.41257897949,7.3071034668,1.0,0.0,0.0,0.0,1.0,0.0,0.0,0.0,1.0
1464075978985882098,495,1464075978811132618,,3.61356186867,-9.84006404877,-177.066589355,0.00132399995346,1.0,0.0,0.0,0.0,1.0,0.0,0.0,0.0,1.0,-42.6219520569,10.1219511032,-27.5609760284,1.0,0.0,0.0,0.0,1.0,0.0,0.0,0.0,1.0,0.114921679688,-1.88184250488,7.6853873291,1.0,0.0,0.0,0.0,1.0,0.0,0.0,0.0,1.0
1464075978985935535,496,1464075978832212093,,3.66289401054,-10.7322015762,-177.577133179,0.00140299997292,1.0,0.0,0.0,0.0,1.0,0.0,0.0,0.0,1.0,-35.8536605835,8.84146404266,-25.7317085266,1.0,0.0,0.0,0.0,1.0,0.0,0.0,0.0,1.0,0.383072265625,-2.29843359375,8.80587370605,1.0,0.0,0.0,0.0,1.0,0.0,0.0,0.0,1.0
1464075978985970900,497,1464075978853634067,,3.73401689529,-11.4670982361,-178.026443481,0.00139200000558,1.0,0.0,0.0,0.0,1.0,0.0,0.0,0.0,1.0,-27.682926178,10.0,-21.6463432312,1.0,0.0,0.0,0.0,1.0,0.0,0.0,0.0,1.0,-0.0287304199219,-2.38941340297,9.25598361816,1.0,0.0,0.0,0.0,1.0,0.0,0.0,0.0,1.0
1464075978986006056,498,1464075978875147134,,3.84763169289,-12.0043144226,-178.387664795,0.00146599998698,1.0,0.0,0.0,0.0,1.0,0.0,0.0,0.0,1.0,-19.4512195587,7.98780536652,-17.5609760284,1.0,0.0,0.0,0.0,1.0,0.0,0.0,0.0,1.0,-0.469263525391,-2.66235224609,10.0125513428,1.0,0.0,0.0,0.0,1.0,0.0,0.0,0.0,1.0
1464075978989143287,499,1464075978896653483,,3.94190716743,-12.3334054947,-178.651168823,0.00136200000998,1.0,0.0,0.0,0.0,1.0,0.0,0.0,0.0,1.0,-9.87804889679,4.14634132385,-13.5975618362,1.0,0.0,0.0,0.0,1.0,0.0,0.0,0.0,1.0,-0.76135612793,-2.67671745605,10.3812583984,1.0,0.0,0.0,0.0,1.0,0.0,0.0,0.0,1.0
1464075978989330005,500,1464075978918144675,,3.99003720284,-12.4315681458,-178.801269531,0.00129299995024,1.0,0.0,0.0,0.0,1.0,0.0,0.0,0.0,1.0,-2.92682933807,0.914634168148,-8.65853691101,1.0,0.0,0.0,0.0,1.0,0.0,0.0,0.0,1.0,-0.790086547852,-2.27927998047,10.6685625977,1.0,0.0,0.0,0.0,1.0,0.0,0.0,0.0,1.0
1464075978989521828,501,1464075978938167226,,4.00500297546,-12.3843603134,-178.80796814,0.00170300004538,1.0,0.0,0.0,0.0,1.0,0.0,0.0,0.0,1.0,0.365853667259,2.07317066193,-0.548780500889,1.0,0.0,0.0,0.0,1.0,0.0,0.0,0.0,1.0,-0.277727392578,-2.23618435059,11.03248125,1.0,0.0,0.0,0.0,1.0,0.0,0.0,0.0,1.0
1464075978990582085,502,1464075978960268989,,4.0837225914,-12.2553310394,-178.655441284,0.00133799994364,1.0,0.0,0.0,0.0,1.0,0.0,0.0,0.0,1.0,3.59756112099,7.98780536652,8.17073154449,1.0,0.0,0.0,0.0,1.0,0.0,0.0,0.0,1.0,0.15322890625,-2.40856701625,11.4490723389,1.0,0.0,0.0,0.0,1.0,0.0,0.0,0.0,1.0
1464075979558526083,503,1464075978979704666,,4.32871818542,-12.0599269867,-178.330993652,0.00168800004758,1.0,0.0,0.0,0.0,1.0,0.0,0.0,0.0,1.0,8.23170757294,14.7560987473,18.2926826477,1.0,0.0,0.0,0.0,1.0,0.0,0.0,0.0,1.0,-0.0718260498047,-2.71981308594,11.4442839355,1.0,0.0,0.0,0.0,1.0,0.0,0.0,0.0,1.0
1464075979558810562,504,1464075979006179179,,4.82879829407,-11.6977758408,-177.711486816,0.00824199989438,1.0,0.0,0.0,0.0,1.0,0.0,0.0,0.0,1.0,20.1219520569,13.5975618362,25.3658542633,1.0,0.0,0.0,0.0,1.0,0.0,0.0,0.0,1.0,-0.76614453125,-4.17548740305,11.4921679687,1.0,0.0,0.0,0.0,1.0,0.0,0.0,0.0,1.0
1464075979559084675,505,1464075979027551726,,5.14746809006,-11.150223732,-177.117584229,0.00122099998407,1.0,0.0,0.0,0.0,1.0,0.0,0.0,0.0,1.0,36.4634170532,6.21951246262,27.1951236725,1.0,0.0,0.0,0.0,1.0,0.0,0.0,0.0,1.0,-0.723048901367,-3.75889660645,11.2335941895,1.0,0.0,0.0,0.0,1.0,0.0,0.0,0.0,1.0
1464075979561974407,506,1464075979050305102,,5.30113363266,-10.1506538391,-176.387969971,0.00266300002113,1.0,0.0,0.0,0.0,1.0,0.0,0.0,0.0,1.0,41.8902435303,-0.487804889679,29.2073173523,1.0,0.0,0.0,0.0,1.0,0.0,0.0,0.0,1.0,-0.45489831543,-1.80522805176,10.9558667969,1.0,0.0,0.0,0.0,1.0,0.0,0.0,0.0,1.0
1464075979562299094,507,1464075979071342806,,5.31643629074,-9.13992595673,-175.656173706,0.00117599999066,1.0,0.0,0.0,0.0,1.0,0.0,0.0,0.0,1.0,38.1707305908,-7.19512224197,29.2073173523,1.0,0.0,0.0,0.0,1.0,0.0,0.0,0.0,1.0,-0.861912597656,-1.32638771973,10.7643306641,1.0,0.0,0.0,0.0,1.0,0.0,0.0,0.0,1.0
1464075979562613624,508,1464075979091927907,,5.16700172424,-8.27178001404,-174.950393677,0.00115999998525,1.0,0.0,0.0,0.0,1.0,0.0,0.0,0.0,1.0,34.634147644,-17.2560977936,26.2195129395,1.0,0.0,0.0,0.0,1.0,0.0,0.0,0.0,1.0,-0.809240161133,-1.90099611816,10.4004120117,1.0,0.0,0.0,0.0,1.0,0.0,0.0,0.0,1.0
1464075979562955342,509,1464075979116262998,,4.80669164658,-7.53699159622,-174.281143188,0.00487300008535,1.0,0.0,0.0,0.0,1.0,0.0,0.0,0.0,1.0,35.1829299927,-26.158536911,23.9024391174,1.0,0.0,0.0,0.0,1.0,0.0,0.0,0.0,1.0,-0.699106884766,-2.63841022949,10.4674496582,1.0,0.0,0.0,0.0,1.0,0.0,0.0,0.0,1.0
1464075979563264560,510,1464075979133455244,,4.28278541565,-6.81094026566,-173.63571167,0.00120199995581,1.0,0.0,0.0,0.0,1.0,0.0,0.0,0.0,1.0,37.9878044128,-27.6219520569,23.658536911,1.0,0.0,0.0,0.0,1.0,0.0,0.0,0.0,1.0,0.00478840332031,-2.71981308594,10.6302553711,1.0,0.0,0.0,0.0,1.0,0.0,0.0,0.0,1.0
1464075979563580705,511,1464075979155875496,,3.73476457596,-5.98483753204,-172.924606323,0.00179799995385,1.0,0.0,0.0,0.0,1.0,0.0,0.0,0.0,1.0,36.8292694092,-22.3780498505,26.0365848541,1.0,0.0,0.0,0.0,1.0,0.0,0.0,0.0,1.0,0.248996972656,-1.7908628418,10.6111017578,1.0,0.0,0.0,0.0,1.0,0.0,0.0,0.0,1.0
1464075979563894246,512,1464075979176093879,,3.31582832336,-5.24043416977,-172.254592896,0.001215999946,1.0,0.0,0.0,0.0,1.0,0.0,0.0,0.0,1.0,32.1951217651,-14.7560987473,27.0731716156,1.0,0.0,0.0,0.0,1.0,0.0,0.0,0.0,1.0,0.493205541992,-1.16358193377,10.1226846191,1.0,0.0,0.0,0.0,1.0,0.0,0.0,0.0,1.0
1464075979567324549,513,1464075979196407106,,3.05283594131,-4.59089612961,-171.566696167,0.00118300004397,1.0,0.0,0.0,0.0,1.0,0.0,0.0,0.0,1.0,23.5365848541,-6.82926845551,28.5365848541,1.0,0.0,0.0,0.0,1.0,0.0,0.0,0.0,1.0,0.416591088867,-0.641646044922,9.37090471333,1.0,0.0,0.0,0.0,1.0,0.0,0.0,0.0,1.0
1464075979568004756,514,1464075979217328873,,2.92884016037,-4.08795022964,-170.879547119,0.00124799995683,1.0,0.0,0.0,0.0,1.0,0.0,0.0,0.0,1.0,14.3902444839,-4.87804889679,26.5853652954,1.0,0.0,0.0,0.0,1.0,0.0,0.0,0.0,1.0,0.0383072265625,-0.383072265625,8.6239149644,1.0,0.0,0.0,0.0,1.0,0.0,0.0,0.0,1.0
1464075979568338192,515,1464075979237987359,,2.81468701363,-3.79556131363,-170.269042969,0.00118000002112,1.0,0.0,0.0,0.0,1.0,0.0,0.0,0.0,1.0,5.12195110321,-8.29268264771,22.0121955872,1.0,0.0,0.0,0.0,1.0,0.0,0.0,0.0,1.0,-0.196324536133,-0.469263525391,7.99663354492,1.0,0.0,0.0,0.0,1.0,0.0,0.0,0.0,1.0
1464075979568651108,516,1464075979258995688,,2.64185094833,-3.68483400345,-169.741699219,0.00138499995228,1.0,0.0,0.0,0.0,1.0,0.0,0.0,0.0,1.0,-3.90243911743,-11.7682924271,17.7439022064,1.0,0.0,0.0,0.0,1.0,0.0,0.0,0.0,1.0,-0.134075302102,-0.435744702148,7.67581052246,1.0,0.0,0.0,0.0,1.0,0.0,0.0,0.0,1.0
1464075979568956941,517,1464075979279544696,,2.35441660881,-3.75746464729,-169.300231934,0.00138399994466,1.0,0.0,0.0,0.0,1.0,0.0,0.0,0.0,1.0,-11.341463089,-13.2317075729,13.7804880142,1.0,0.0,0.0,0.0,1.0,0.0,0.0,0.0,1.0,0.373495458984,-0.742202514648,7.78594379883,1.0,0.0,0.0,0.0,1.0,0.0,0.0,0.0,1.0
1464075979569240221,518,1464075979300124589,,2.07511472702,-4.04058885574,-168.909286499,0.00142900005449,1.0,0.0,0.0,0.0,1.0,0.0,0.0,0.0,1.0,-14.4512205124,-7.98780536652,13.9024391174,1.0,0.0,0.0,0.0,1.0,0.0,0.0,0.0,1.0,0.354341845703,-1.38863696289,8.03015236816,1.0,0.0,0.0,0.0,1.0,0.0,0.0,0.0,1.0
1464075979569564595,519,1464075979321222397,,1.92614042759,-4.47975969315,-168.512207031,0.00121300003957,1.0,0.0,0.0,0.0,1.0,0.0,0.0,0.0,1.0,-13.7195129395,-4.93902444839,13.658536911,1.0,0.0,0.0,0.0,1.0,0.0,0.0,0.0,1.0,0.110133276367,-2.47081611328,8.80108530273,1.0,0.0,0.0,0.0,1.0,0.0,0.0,0.0,1.0
1464075979569878032,520,1464075979342093539,,1.83100938797,-4.8952255249,-168.137481689,0.00128299999051,1.0,0.0,0.0,0.0,1.0,0.0,0.0,0.0,1.0,-6.7682929039,-0.853658556938,14.0243902206,1.0,0.0,0.0,0.0,1.0,0.0,0.0,0.0,1.0,0.675164868164,-3.19386501465,9.74918916016,1.0,0.0,0.0,0.0,1.0,0.0,0.0,0.0,1.0
1464075979572456671,521,1464075979363072701,,1.84647023678,-5.14289045334,-167.744598389,0.00177299999632,1.0,0.0,0.0,0.0,1.0,0.0,0.0,0.0,1.0,2.62195134163,6.89024400711,14.9390249252,1.0,0.0,0.0,0.0,1.0,0.0,0.0,0.0,1.0,0.684741674805,-3.39976635742,10.2567599121,1.0,0.0,0.0,0.0,1.0,0.0,0.0,0.0,1.0
1464075979572785576,522,1464075979384655560,,2.00979948044,-5.17285585403,-167.354919434,0.00140599999577,1.0,0.0,0.0,0.0,1.0,0.0,0.0,0.0,1.0,9.20731735229,11.4634151459,14.4512205124,1.0,0.0,0.0,0.0,1.0,0.0,0.0,0.0,1.0,0.248996972656,-2.95444484863,10.7068698242,1.0,0.0,0.0,0.0,1.0,0.0,0.0,0.0,1.0
1464075979573149690,523,1464075979405522587,,2.22677445412,-5.05157756805,-167.0209198,0.0013119999785,1.0,0.0,0.0,0.0,1.0,0.0,0.0,0.0,1.0,11.6463422775,6.82926845551,10.4878053665,1.0,0.0,0.0,0.0,1.0,0.0,0.0,0.0,1.0,-0.497993945312,-2.40377861293,11.4586491455,1.0,0.0,0.0,0.0,1.0,0.0,0.0,0.0,1.0
1464075979573447866,524,1464075979426087636,,2.32222771645,-4.88572025299,-166.766540527,0.00139999995008,1.0,0.0,0.0,0.0,1.0,0.0,0.0,0.0,1.0,12.0121955872,2.01219511032,6.21951246262,1.0,0.0,0.0,0.0,1.0,0.0,0.0,0.0,1.0,-0.354341845703,-2.43729729004,12.0715647705,1.0,0.0,0.0,0.0,1.0,0.0,0.0,0.0,1.0
1464075979573754480,525,1464075979447231434,,2.29801774025,-4.69462871552,-166.600891113,0.00125400000252,1.0,0.0,0.0,0.0,1.0,0.0,0.0,0.0,1.0,10.4268293381,-4.02439022064,0.18292683363,1.0,0.0,0.0,0.0,1.0,0.0,0.0,0.0,1.0,0.00957680664062,-1.95366855469,12.2200052734,1.0,0.0,0.0,0.0,1.0,0.0,0.0,0.0,1.0
1464075979574065885,526,1464075979468070805,,2.17233276367,-4.62331390381,-166.554534912,0.00135000003502,1.0,0.0,0.0,0.0,1.0,0.0,0.0,0.0,1.0,7.43902492523,-10.1829271317,-4.81707286835,1.0,0.0,0.0,0.0,1.0,0.0,0.0,0.0,1.0,-0.225054956055,-3.38540114746,12.9191121582,1.0,0.0,0.0,0.0,1.0,0.0,0.0,0.0,1.0
1464075979578323843,527,1464075979489022363,,1.92322432995,-4.58540678024,-166.548904419,0.00135999999475,1.0,0.0,0.0,0.0,1.0,0.0,0.0,0.0,1.0,18.2317085266,-11.5243911743,-4.32926845551,1.0,0.0,0.0,0.0,1.0,0.0,0.0,0.0,1.0,0.191536132812,-4.40054265137,13.7858131592,1.0,0.0,0.0,0.0,1.0,0.0,0.0,0.0,1.0
1464075979578684883,528,1464075979509742516,,1.68291866779,-4.27578687668,-166.491775513,0.00165600003675,1.0,0.0,0.0,0.0,1.0,0.0,0.0,0.0,1.0,24.9390239716,-6.0365858078,-1.09756100178,1.0,0.0,0.0,0.0,1.0,0.0,0.0,0.0,1.0,1.04387185076,-2.48996972656,13.0005150146,1.0,0.0,0.0,0.0,1.0,0.0,0.0,0.0,1.0
1464075979579003320,529,1464075979530576783,,1.5999366045,-3.81152939796,-166.415710449,0.00157800002489,1.0,0.0,0.0,0.0,1.0,0.0,0.0,0.0,1.0,18.4146347046,5.0,-1.2804877758,1.0,0.0,0.0,0.0,1.0,0.0,0.0,0.0,1.0,0.9193734375,-0.584185168546,10.9510783936,1.0,0.0,0.0,0.0,1.0,0.0,0.0,0.0,1.0
1464075979579367902,530,1464075979551262092,,1.68973016739,-3.52274560928,-166.391540527,0.00127699994482,1.0,0.0,0.0,0.0,1.0,0.0,0.0,0.0,1.0,7.92682981491,10.4878053665,-5.0,1.0,0.0,0.0,0.0,1.0,0.0,0.0,0.0,1.0,0.488417138672,-0.972045874023,10.1945106689,1.0,0.0,0.0,0.0,1.0,0.0,0.0,0.0,1.0
1464075981369064666,531,1464075979572424223,,1.87718689442,-3.46459674835,-166.461761475,0.00136600004043,1.0,0.0,0.0,0.0,1.0,0.0,0.0,0.0,1.0,4.32926845551,12.0731716156,-8.78048801422,1.0,0.0,0.0,0.0,1.0,0.0,0.0,0.0,1.0,0.0383072265625,-1.80522805176,9.65342167827,1.0,0.0,0.0,0.0,1.0,0.0,0.0,0.0,1.0
1464075981369358103,532,1464075979593023230,,2.03311944008,-3.48711466789,-166.622375488,0.00130999996327,1.0,0.0,0.0,0.0,1.0,0.0,0.0,0.0,1.0,4.02439022064,11.1585359573,-13.7195129395,1.0,0.0,0.0,0.0,1.0,0.0,0.0,0.0,1.0,0.402225878906,-2.06380183105,9.55286520855,1.0,0.0,0.0,0.0,1.0,0.0,0.0,0.0,1.0
1464075981371147421,533,1464075979613970310,,2.20322155952,-3.48603868484,-166.830245972,0.00135100004263,1.0,0.0,0.0,0.0,1.0,0.0,0.0,0.0,1.0,2.5,16.6463413239,-13.2926826477,1.0,0.0,0.0,0.0,1.0,0.0,0.0,0.0,1.0,0.488417138672,-1.20667770978,9.18894597168,1.0,0.0,0.0,0.0,1.0,0.0,0.0,0.0,1.0
1464075981372841583,534,1464075979634787389,,2.47218298912,-3.48807048798,-167.005477905,0.00130799994804,1.0,0.0,0.0,0.0,1.0,0.0,0.0,0.0,1.0,-2.25609779358,25.3658542633,-10.6707315445,1.0,0.0,0.0,0.0,1.0,0.0,0.0,0.0,1.0,1.26892687988,-0.809240161133,9.03571706543,1.0,0.0,0.0,0.0,1.0,0.0,0.0,0.0,1.0
1464075981373177155,535,1464075979655564938,,2.9297721386,-3.56451511383,-167.162979126,0.00137499999255,1.0,0.0,0.0,0.0,1.0,0.0,0.0,0.0,1.0,-9.08536529541,30.4268321991,-11.5243911743,1.0,0.0,0.0,0.0,1.0,0.0,0.0,0.0,1.0,0.335188232422,-0.316034619141,8.07803640137,1.0,0.0,0.0,0.0,1.0,0.0,0.0,0.0,1.0
1464075981374843817,536,1464075979675861810,,3.44133353233,-3.73303151131,-167.364746094,0.0013119999785,1.0,0.0,0.0,0.0,1.0,0.0,0.0,0.0,1.0,-16.158536911,26.5853652954,-14.1463422775,1.0,0.0,0.0,0.0,1.0,0.0,0.0,0.0,1.0,0.138863696289,-0.0191536132812,6.76122548828,1.0,0.0,0.0,0.0,1.0,0.0,0.0,0.0,1.0
1464075981375267149,537,1464075979697128316,,3.90537929535,-4.06327056885,-167.618469238,0.00134600000456,1.0,0.0,0.0,0.0,1.0,0.0,0.0,0.0,1.0,-22.3170719147,21.7073173523,-16.5853652954,1.0,0.0,0.0,0.0,1.0,0.0,0.0,0.0,1.0,-0.46447512207,1.2737152832,6.18661708984,1.0,0.0,0.0,0.0,1.0,0.0,0.0,0.0,1.0
1464075981376943030,538,1464075979718092218,,4.22219657898,-4.53752326965,-167.943634033,0.00129599997308,1.0,0.0,0.0,0.0,1.0,0.0,0.0,0.0,1.0,-32.6219520569,15.4268302917,-20.7926826477,1.0,0.0,0.0,0.0,1.0,0.0,0.0,0.0,1.0,0.234631762695,-0.105344873047,6.19619389648,1.0,0.0,0.0,0.0,1.0,0.0,0.0,0.0,1.0
1464075981378592713,539,1464075979738705548,,4.389731884,-5.19996404648,-168.334518433,0.00136100000236,1.0,0.0,0.0,0.0,1.0,0.0,0.0,0.0,1.0,-37.3780517578,13.5365858078,-23.7195129395,1.0,0.0,0.0,0.0,1.0,0.0,0.0,0.0,1.0,0.215478149414,-0.526724328702,6.48828649902,1.0,0.0,0.0,0.0,1.0,0.0,0.0,0.0,1.0
1464075981378993129,540,1464075979760052991,,4.53652000427,-6.0074133873,-168.782516479,0.00148800003808,1.0,0.0,0.0,0.0,1.0,0.0,0.0,0.0,1.0,-41.4634170532,9.08536529541,-24.817073822,1.0,0.0,0.0,0.0,1.0,0.0,0.0,0.0,1.0,-0.344765039063,-0.368707055664,7.35019909668,1.0,0.0,0.0,0.0,1.0,0.0,0.0,0.0,1.0
1464075981379289639,541,1464075979781027257,,4.59725904465,-6.87178850174,-169.211593628,0.00125800003298,1.0,0.0,0.0,0.0,1.0,0.0,0.0,0.0,1.0,-46.9512214661,5.79268312454,-23.8414649963,1.0,0.0,0.0,0.0,1.0,0.0,0.0,0.0,1.0,-0.114921679688,-0.665588061523,8.18816967773,1.0,0.0,0.0,0.0,1.0,0.0,0.0,0.0,1.0
1464075981379581513,542,1464075979801653088,,4.59834480286,-7.84588670731,-169.587768555,0.001304000034,1.0,0.0,0.0,0.0,1.0,0.0,0.0,0.0,1.0,-51.4634170532,3.96341490746,-20.975610733,1.0,0.0,0.0,0.0,1.0,0.0,0.0,0.0,1.0,-0.339976635742,-1.29286889648,9.32780908345,1.0,0.0,0.0,0.0,1.0,0.0,0.0,0.0,1.0
1464075981379855679,543,1464075979822636104,,4.56214523315,-8.92108154297,-169.897262573,0.0013269999763,1.0,0.0,0.0,0.0,1.0,0.0,0.0,0.0,1.0,-51.4634170532,1.8902438879,-17.134147644,1.0,0.0,0.0,0.0,1.0,0.0,0.0,0.0,1.0,-0.220266552734,-1.98239897461,10.4099888184,1.0,0.0,0.0,0.0,1.0,0.0,0.0,0.0,1.0
1464075981380142553,544,1464075979843204278,,4.50727653503,-9.95471954346,-170.104217529,0.00136200000998,1.0,0.0,0.0,0.0,1.0,0.0,0.0,0.0,1.0,-49.390247345,1.8292683363,-11.5243911743,1.0,0.0,0.0,0.0,1.0,0.0,0.0,0.0,1.0,-0.162805712891,-2.18351191406,10.9558667969,1.0,0.0,0.0,0.0,1.0,0.0,0.0,0.0,1.0
1464075981380482135,545,1464075979864558023,,4.49210739136,-10.9483861923,-170.192749023,0.00139400002081,1.0,0.0,0.0,0.0,1.0,0.0,0.0,0.0,1.0,-47.6219520569,2.74390244484,-5.24390268326,1.0,0.0,0.0,0.0,1.0,0.0,0.0,0.0,1.0,-0.287304199219,-2.02070620117,11.2671130127,1.0,0.0,0.0,0.0,1.0,0.0,0.0,0.0,1.0
1464075981380834739,546,1464075979885229947,,4.52324438095,-11.8398122787,-170.147186279,0.00135799997952,1.0,0.0,0.0,0.0,1.0,0.0,0.0,0.0,1.0,-48.0487823486,3.35365867615,1.34146344662,1.0,0.0,0.0,0.0,1.0,0.0,0.0,0.0,1.0,-0.263362164351,-1.90099611816,11.6741272949,1.0,0.0,0.0,0.0,1.0,0.0,0.0,0.0,1.0
1464075981381167238,547,1464075979906402650,,4.61067962646,-12.7423658371,-169.957519531,0.00138300005347,1.0,0.0,0.0,0.0,1.0,0.0,0.0,0.0,1.0,-49.207321167,3.65853667259,8.35365867615,1.0,0.0,0.0,0.0,1.0,0.0,0.0,0.0,1.0,-0.512359155273,-2.09253210485,12.0428343506,1.0,0.0,0.0,0.0,1.0,0.0,0.0,0.0,1.0
1464075981383491450,548,1464075979927231136,,4.69921875,-13.6349658966,-169.61781311,0.00130000000354,1.0,0.0,0.0,0.0,1.0,0.0,0.0,0.0,1.0,-48.6585388184,1.70731711388,16.0975608826,1.0,0.0,0.0,0.0,1.0,0.0,0.0,0.0,1.0,-0.0526724365234,-2.71502468262,12.4067530029,1.0,0.0,0.0,0.0,1.0,0.0,0.0,0.0,1.0
1464075981385110925,549,1464075979948296080,,4.81547451019,-14.5022287369,-169.115875244,0.00127799995244,1.0,0.0,0.0,0.0,1.0,0.0,0.0,0.0,1.0,-43.2317085266,5.42682933807,24.6951236725,1.0,0.0,0.0,0.0,1.0,0.0,0.0,0.0,1.0,0.0143652099609,-3.76368500977,12.9382657715,1.0,0.0,0.0,0.0,1.0,0.0,0.0,0.0,1.0
1464075981385498736,550,1464075979969211649,,5.04725933075,-15.2577152252,-168.484802246,0.00136300001759,1.0,0.0,0.0,0.0,1.0,0.0,0.0,0.0,1.0,-28.6585388184,3.29268312454,29.6341457367,1.0,0.0,0.0,0.0,1.0,0.0,0.0,0.0,1.0,-0.670376464844,-5.40131894531,13.5128741699,1.0,0.0,0.0,0.0,1.0,0.0,0.0,0.0,1.0
1464075981385794309,551,1464075979990258155,,5.21668767929,-15.6372098923,-167.767074585,0.00171400001273,1.0,0.0,0.0,0.0,1.0,0.0,0.0,0.0,1.0,-6.70731735229,-1.76829278469,32.5,1.0,0.0,0.0,0.0,1.0,0.0,0.0,0.0,1.0,-0.316034619141,-5.00388146973,13.4123177002,1.0,0.0,0.0,0.0,1.0,0.0,0.0,0.0,1.0
1464075981386087068,552,1464075980011281275,,5.2909412384,-15.5044317245,-166.984100342,0.00133100000676,1.0,0.0,0.0,0.0,1.0,0.0,0.0,0.0,1.0,0.243902444839,-0.426829278469,33.8414649963,1.0,0.0,0.0,0.0,1.0,0.0,0.0,0.0,1.0,0.627280834961,-1.87226569824,12.4067530029,1.0,0.0,0.0,0.0,1.0,0.0,0.0,0.0,1.0
1464075981388748936,553,1464075980032237678,,5.39220046997,-15.2247495651,-166.192657471,0.0013340000296,1.0,0.0,0.0,0.0,1.0,0.0,0.0,0.0,1.0,-7.19512224197,-0.914634168148,31.5853652954,1.0,0.0,0.0,0.0,1.0,0.0,0.0,0.0,1.0,-0.124498486328,-0.818816967773,11.0803652832,1.0,0.0,0.0,0.0,1.0,0.0,0.0,0.0,1.0
1464075981389144560,554,1464075980053078768,,5.43459510803,-15.1722145081,-165.487472534,0.00136899994686,1.0,0.0,0.0,0.0,1.0,0.0,0.0,0.0,1.0,-10.1829271317,-11.5853662491,24.8780498505,1.0,0.0,0.0,0.0,1.0,0.0,0.0,0.0,1.0,-1.21146604004,-2.26970317383,10.5775829346,1.0,0.0,0.0,0.0,1.0,0.0,0.0,0.0,1.0
1464075981389445497,555,1464075980073979024,,5.2008395195,-15.2278661728,-164.868911743,0.00134700001217,1.0,0.0,0.0,0.0,1.0,0.0,0.0,0.0,1.0,-1.8292683363,-26.8292694092,17.6219520569,1.0,0.0,0.0,0.0,1.0,0.0,0.0,0.0,1.0,-0.742202514648,-3.55778366699,10.3477395752,1.0,0.0,0.0,0.0,1.0,0.0,0.0,0.0,1.0
1464075981392023563,556,1464075980094918343,,4.65272045135,-15.1373443604,-164.300491333,0.00132599996869,1.0,0.0,0.0,0.0,1.0,0.0,0.0,0.0,1.0,8.96341514587,-32.317073822,15.2439022064,1.0,0.0,0.0,0.0,1.0,0.0,0.0,0.0,1.0,0.215478149414,-3.75410820312,10.4961800781,1.0,0.0,0.0,0.0,1.0,0.0,0.0,0.0,1.0
1464075981392422885,557,1464075980115848964,,4.06950044632,-14.8215694427,-163.693511963,0.00138699996751,1.0,0.0,0.0,0.0,1.0,0.0,0.0,0.0,1.0,18.1707305908,-25.3658542633,20.3658542633,1.0,0.0,0.0,0.0,1.0,0.0,0.0,0.0,1.0,0.660799658203,-3.53384165039,10.9798088135,1.0,0.0,0.0,0.0,1.0,0.0,0.0,0.0,1.0
1464075981394133349,558,1464075980136807710,,3.64619541168,-14.276301384,-163.033782959,0.00135599996429,1.0,0.0,0.0,0.0,1.0,0.0,0.0,0.0,1.0,24.4512195587,-14.2682924271,24.5731716156,1.0,0.0,0.0,0.0,1.0,0.0,0.0,0.0,1.0,0.703895288086,-2.51391174316,10.299855542,1.0,0.0,0.0,0.0,1.0,0.0,0.0,0.0,1.0
1464075981394497202,559,1464075980157905518,,3.49392795563,-13.6165485382,-162.362442017,0.00138399994466,1.0,0.0,0.0,0.0,1.0,0.0,0.0,0.0,1.0,22.0121955872,-7.80487823486,25.6707324982,1.0,0.0,0.0,0.0,1.0,0.0,0.0,0.0,1.0,-0.354341845703,-1.68072956543,9.72524714355,1.0,0.0,0.0,0.0,1.0,0.0,0.0,0.0,1.0
1464075981394770587,560,1464075980178903743,,3.41544508934,-12.9846038818,-161.736114502,0.00138100003824,1.0,0.0,0.0,0.0,1.0,0.0,0.0,0.0,1.0,20.0,-16.2195110321,20.4268302917,1.0,0.0,0.0,0.0,1.0,0.0,0.0,0.0,1.0,-0.857124194336,-1.17794714373,8.50899328472,1.0,0.0,0.0,0.0,1.0,0.0,0.0,0.0,1.0
1464075981395082409,561,1464075980200214102,,3.16070628166,-12.4038000107,-161.160842896,0.00157199997921,1.0,0.0,0.0,0.0,1.0,0.0,0.0,0.0,1.0,13.7804880142,-23.9634151459,14.8170728683,1.0,0.0,0.0,0.0,1.0,0.0,0.0,0.0,1.0,-0.512359155273,-0.833182177734,8.04451757812,1.0,0.0,0.0,0.0,1.0,0.0,0.0,0.0,1.0
1464075981396785790,562,1464075980221119984,,2.71266746521,-11.9790658951,-160.678436279,0.00132100004703,1.0,0.0,0.0,0.0,1.0,0.0,0.0,0.0,1.0,7.43902492523,-24.3292694092,12.1341466904,1.0,0.0,0.0,0.0,1.0,0.0,0.0,0.0,1.0,0.225054956055,-1.00077629395,8.07803640137,1.0,0.0,0.0,0.0,1.0,0.0,0.0,0.0,1.0
1464075981397182299,563,1464075980241944199,,2.27801132202,-11.7087984085,-160.25100708,0.00132399995346,1.0,0.0,0.0,0.0,1.0,0.0,0.0,0.0,1.0,4.39024400711,-17.8048782349,11.9512195587,1.0,0.0,0.0,0.0,1.0,0.0,0.0,0.0,1.0,0.383072265625,-1.37427175293,8.19774648437,1.0,0.0,0.0,0.0,1.0,0.0,0.0,0.0,1.0
1464075981399143023,564,1464075980263464558,,1.96420621872,-11.563744545,-159.833389282,0.00138200004585,1.0,0.0,0.0,0.0,1.0,0.0,0.0,0.0,1.0,3.90243911743,-7.98780536652,13.048781395,1.0,0.0,0.0,0.0,1.0,0.0,0.0,0.0,1.0,0.45968671875,-2.18830031738,8.0157871582,1.0,0.0,0.0,0.0,1.0,0.0,0.0,0.0,1.0
1464075981399551251,565,1464075980284387158,,1.87066864967,-11.4887990952,-159.439880371,0.00134099996649,1.0,0.0,0.0,0.0,1.0,0.0,0.0,0.0,1.0,8.35365867615,1.58536589146,15.2439022064,1.0,0.0,0.0,0.0,1.0,0.0,0.0,0.0,1.0,0.627280834961,-2.89698400879,8.40364724263,1.0,0.0,0.0,0.0,1.0,0.0,0.0,0.0,1.0
1464075981399857813,566,1464075980305377206,,1.98518502712,-11.3171129227,-159.046630859,0.00138799997512,1.0,0.0,0.0,0.0,1.0,0.0,0.0,0.0,1.0,16.0975608826,6.95121955872,15.975610733,1.0,0.0,0.0,0.0,1.0,0.0,0.0,0.0,1.0,0.31124621582,-3.08373173828,8.8872765625,1.0,0.0,0.0,0.0,1.0,0.0,0.0,0.0,1.0
1464075981400141770,567,1464075980326375222,,2.17608785629,-10.9723415375,-158.686752319,0.0013340000296,1.0,0.0,0.0,0.0,1.0,0.0,0.0,0.0,1.0,23.3536586761,7.43902492523,13.2926826477,1.0,0.0,0.0,0.0,1.0,0.0,0.0,0.0,1.0,-0.0909796630859,-2.83473476562,9.12669672852,1.0,0.0,0.0,0.0,1.0,0.0,0.0,0.0,1.0
1464075981400464946,568,1464075980347190062,,2.33086562157,-10.4797935486,-158.38470459,0.00141300004907,1.0,0.0,0.0,0.0,1.0,0.0,0.0,0.0,1.0,26.7682933807,3.71951246262,9.45121955872,1.0,0.0,0.0,0.0,1.0,0.0,0.0,0.0,1.0,-0.138863696289,-2.61446821289,9.84016882324,1.0,0.0,0.0,0.0,1.0,0.0,0.0,0.0,1.0
1464075981400760362,569,1464075980368527505,,2.39859628677,-9.91725730896,-158.121826172,0.00130999996327,1.0,0.0,0.0,0.0,1.0,0.0,0.0,0.0,1.0,28.7804889679,-4.02439022064,6.15853643417,1.0,0.0,0.0,0.0,1.0,0.0,0.0,0.0,1.0,-0.330399829102,-2.80121594238,10.7356002441,1.0,0.0,0.0,0.0,1.0,0.0,0.0,0.0,1.0
1464075981402264577,570,1464075980389367762,,2.27868771553,-9.30445384979,-157.929901123,0.00162400002591,1.0,0.0,0.0,0.0,1.0,0.0,0.0,0.0,1.0,30.5487804413,-10.1829271317,1.70731711388,1.0,0.0,0.0,0.0,1.0,0.0,0.0,0.0,1.0,-0.253785375977,-2.46602770996,11.3676694824,1.0,0.0,0.0,0.0,1.0,0.0,0.0,0.0,1.0
1464075981404011343,571,1464075980410184581,,2.02952480316,-8.67231845856,-157.793319702,0.00141300004907,1.0,0.0,0.0,0.0,1.0,0.0,0.0,0.0,1.0,27.1341457367,-15.2439022064,-1.46341466904,1.0,0.0,0.0,0.0,1.0,0.0,0.0,0.0,1.0,-0.234631762695,-1.8866309082,11.6980693115,1.0,0.0,0.0,0.0,1.0,0.0,0.0,0.0,1.0
1464075981404382696,572,1464075980431109889,,1.6912330389,-8.11651420593,-157.697937012,0.00128199998289,1.0,0.0,0.0,0.0,1.0,0.0,0.0,0.0,1.0,21.4634151459,-17.9268302917,-3.17073178291,1.0,0.0,0.0,0.0,1.0,0.0,0.0,0.0,1.0,-0.205901342773,-1.838746875,11.7363765381,1.0,0.0,0.0,0.0,1.0,0.0,0.0,0.0,1.0
1464075981405946390,573,1464075980451952125,,1.31616795063,-7.75256156921,-157.617752075,0.00132100004703,1.0,0.0,0.0,0.0,1.0,0.0,0.0,0.0,1.0,18.4146347046,-22.5,-3.90243911743,1.0,0.0,0.0,0.0,1.0,0.0,0.0,0.0,1.0,-0.742202514648,-3.81635744629,12.5935007324,1.0,0.0,0.0,0.0,1.0,0.0,0.0,0.0,1.0
1464075981406251962,574,1464075980472768059,,0.850357115269,-7.43094301224,-157.543197632,0.00135499995667,1.0,0.0,0.0,0.0,1.0,0.0,0.0,0.0,1.0,33.7195129395,-26.3414649963,-4.08536577225,1.0,0.0,0.0,0.0,1.0,0.0,0.0,0.0,1.0,-0.416591088867,-5.70777675781,13.8145435791,1.0,0.0,0.0,0.0,1.0,0.0,0.0,0.0,1.0
1464075981406529565,575,1464075980494029512,,0.326549261808,-6.74224853516,-157.405563354,0.00132799998391,1.0,0.0,0.0,0.0,1.0,0.0,0.0,0.0,1.0,49.1463432312,-21.5243911743,1.76829278469,1.0,0.0,0.0,0.0,1.0,0.0,0.0,0.0,1.0,0.76135612793,-3.55299526367,12.7467296387,1.0,0.0,0.0,0.0,1.0,0.0,0.0,0.0,1.0
1464075981408526956,576,1464075980514983154,,-0.0367400161922,-5.73790311813,-157.187347412,0.00133100000676,1.0,0.0,0.0,0.0,1.0,0.0,0.0,0.0,1.0,42.8048782349,-4.81707286835,6.28048801422,1.0,0.0,0.0,0.0,1.0,0.0,0.0,0.0,1.0,1.13006318359,-0.60812722168,10.8792523438,1.0,0.0,0.0,0.0,1.0,0.0,0.0,0.0,1.0
1464075981408862268,577,1464075980535661328,,-0.0737185701728,-4.92133378983,-156.945770264,0.00133999995887,1.0,0.0,0.0,0.0,1.0,0.0,0.0,0.0,1.0,27.317073822,4.39024400711,6.64634132385,1.0,0.0,0.0,0.0,1.0,0.0,0.0,0.0,1.0,0.335188232422,-0.861912597656,10.6206785645,1.0,0.0,0.0,0.0,1.0,0.0,0.0,0.0,1.0
1464075981410590492,578,1464075980556480855,,0.049506764859,-4.47143983841,-156.748931885,0.00138599995989,1.0,0.0,0.0,0.0,1.0,0.0,0.0,0.0,1.0,23.3536586761,1.8292683363,3.29268312454,1.0,0.0,0.0,0.0,1.0,0.0,0.0,0.0,1.0,-0.201112939453,-2.72460148926,10.9510783936,1.0,0.0,0.0,0.0,1.0,0.0,0.0,0.0,1.0
1464075981412239081,579,1464075980577909600,,0.117563061416,-4.10418891907,-156.592880249,0.00142099999357,1.0,0.0,0.0,0.0,1.0,0.0,0.0,0.0,1.0,28.1097564697,-1.34146344662,2.31707310677,1.0,0.0,0.0,0.0,1.0,0.0,0.0,0.0,1.0,-0.263362164351,-2.90177241211,10.5823713379,1.0,0.0,0.0,0.0,1.0,0.0,0.0,0.0,1.0
1464075981414262357,580,1464075980598851158,,0.0910117253661,-3.63326334953,-156.455764771,0.00135200005025,1.0,0.0,0.0,0.0,1.0,0.0,0.0,0.0,1.0,29.8780498505,-0.243902444839,1.8902438879,1.0,0.0,0.0,0.0,1.0,0.0,0.0,0.0,1.0,0.517147558594,-2.04464821777,9.88805285645,1.0,0.0,0.0,0.0,1.0,0.0,0.0,0.0,1.0
1464075981414345742,581,1464075980619796675,,0.105108931661,-3.09679698944,-156.304977417,0.0016680000117,1.0,0.0,0.0,0.0,1.0,0.0,0.0,0.0,1.0,25.3048782349,8.90243911743,3.23170733452,1.0,0.0,0.0,0.0,1.0,0.0,0.0,0.0,1.0,0.952892260742,-1.17794714373,9.36611631001,1.0,0.0,0.0,0.0,1.0,0.0,0.0,0.0,1.0
1464075981416062196,582,1464075980640726463,,0.287695109844,-2.64701771736,-156.145584106,0.00123199995141,1.0,0.0,0.0,0.0,1.0,0.0,0.0,0.0,1.0,18.9634151459,17.8658542633,4.08536577225,1.0,0.0,0.0,0.0,1.0,0.0,0.0,0.0,1.0,0.986411083984,-0.660799658203,8.70052883301,1.0,0.0,0.0,0.0,1.0,0.0,0.0,0.0,1.0
1464075981417856514,583,1464075980661807864,,0.62945741415,-2.28548026085,-155.984954834,0.00131600000896,1.0,0.0,0.0,0.0,1.0,0.0,0.0,0.0,1.0,9.93902492523,22.3780498505,2.86585378647,1.0,0.0,0.0,0.0,1.0,0.0,0.0,0.0,1.0,0.665588061523,-0.296881024126,7.35019909668,1.0,0.0,0.0,0.0,1.0,0.0,0.0,0.0,1.0
1464075981418252503,584,1464075980682369788,,1.01303172112,-2.10640859604,-155.863876343,0.00127300003078,1.0,0.0,0.0,0.0,1.0,0.0,0.0,0.0,1.0,-0.731707334518,24.2073173523,1.2804877758,1.0,0.0,0.0,0.0,1.0,0.0,0.0,0.0,1.0,0.483628735352,0.177170922852,6.72291826172,1.0,0.0,0.0,0.0,1.0,0.0,0.0,0.0,1.0
1464075981418563283,585,1464075980703264993,,1.44385755062,-2.10893344879,-155.783279419,0.0013190000318,1.0,0.0,0.0,0.0,1.0,0.0,0.0,0.0,1.0,-7.74390268326,23.4146347046,-1.46341466904,1.0,0.0,0.0,0.0,1.0,0.0,0.0,0.0,1.0,0.301669427446,-0.646434448242,6.27759675293,1.0,0.0,0.0,0.0,1.0,0.0,0.0,0.0,1.0
1464075981418906564,586,1464075980724067854,,1.82107448578,-2.28739213943,-155.784957886,0.00137099996209,1.0,0.0,0.0,0.0,1.0,0.0,0.0,0.0,1.0,-11.4634151459,20.4878044128,-5.60975599289,1.0,0.0,0.0,0.0,1.0,0.0,0.0,0.0,1.0,0.15801730957,-0.603338854892,6.2009822998,1.0,0.0,0.0,0.0,1.0,0.0,0.0,0.0,1.0
1464075981419223854,587,1464075980745127641,,2.14626002312,-2.59612131119,-155.866210938,0.00132100004703,1.0,0.0,0.0,0.0,1.0,0.0,0.0,0.0,1.0,-15.2439022064,15.7317075729,-9.20731735229,1.0,0.0,0.0,0.0,1.0,0.0,0.0,0.0,1.0,0.0814028564453,-0.9193734375,7.08683691406,1.0,0.0,0.0,0.0,1.0,0.0,0.0,0.0,1.0
1464075981419566510,588,1464075980766187428,,2.38068461418,-3.00569629669,-155.99307251,0.00139400002081,1.0,0.0,0.0,0.0,1.0,0.0,0.0,0.0,1.0,-18.1097564697,9.14634132385,-10.3048782349,1.0,0.0,0.0,0.0,1.0,0.0,0.0,0.0,1.0,0.0335188255255,-1.19231249982,7.97747993164,1.0,0.0,0.0,0.0,1.0,0.0,0.0,0.0,1.0
1464075981419872446,589,1464075980786973466,,2.47751808167,-3.46876072884,-156.102859497,0.00132200005464,1.0,0.0,0.0,0.0,1.0,0.0,0.0,0.0,1.0,-19.5731716156,5.60975599289,-8.35365867615,1.0,0.0,0.0,0.0,1.0,0.0,0.0,0.0,1.0,0.172382519531,-1.66636435547,9.34217429341,1.0,0.0,0.0,0.0,1.0,0.0,0.0,0.0,1.0
1464075981422145461,590,1464075980807975233,,2.54424238205,-3.96613407135,-156.138168335,0.00135100004263,1.0,0.0,0.0,0.0,1.0,0.0,0.0,0.0,1.0,-17.5000019073,4.45121955872,-3.7804877758,1.0,0.0,0.0,0.0,1.0,0.0,0.0,0.0,1.0,-0.067037651051,-2.06859023437,10.0029745361,1.0,0.0,0.0,0.0,1.0,0.0,0.0,0.0,1.0
1464075981422530148,591,1464075980828812677,,2.59983277321,-4.40217638016,-156.071884155,0.00138899998274,1.0,0.0,0.0,0.0,1.0,0.0,0.0,0.0,1.0,-15.6097564697,1.52439022064,0.853658556938,1.0,0.0,0.0,0.0,1.0,0.0,0.0,0.0,1.0,-0.124498486328,-1.90578452148,10.3429511719,1.0,0.0,0.0,0.0,1.0,0.0,0.0,0.0,1.0
1464075981422905615,592,1464075980849843454,,2.60485219955,-4.76334095001,-155.900650024,0.00157399999443,1.0,0.0,0.0,0.0,1.0,0.0,0.0,0.0,1.0,-16.341463089,-0.18292683363,6.15853643417,1.0,0.0,0.0,0.0,1.0,0.0,0.0,0.0,1.0,-0.067037651051,-1.40779057617,10.3716815918,1.0,0.0,0.0,0.0,1.0,0.0,0.0,0.0,1.0
1464075981423203792,593,1464075980870772669,,2.59066271782,-5.11731290817,-155.602676392,0.00130600004923,1.0,0.0,0.0,0.0,1.0,0.0,0.0,0.0,1.0,-20.7317085266,-0.304878056049,12.5,1.0,0.0,0.0,0.0,1.0,0.0,0.0,0.0,1.0,0.162805712891,-1.19710090314,10.7403886475,1.0,0.0,0.0,0.0,1.0,0.0,0.0,0.0,1.0
1464075981423519155,594,1464075980891398238,,2.60800099373,-5.56262540817,-155.177810669,0.00126299995463,1.0,0.0,0.0,0.0,1.0,0.0,0.0,0.0,1.0,-24.8780498505,0.853658556938,18.841463089,1.0,0.0,0.0,0.0,1.0,0.0,0.0,0.0,1.0,-0.138863696289,-1.63763393555,10.8505219238,1.0,0.0,0.0,0.0,1.0,0.0,0.0,0.0,1.0
1464075981423858686,595,1464075980912472921,,2.6438536644,-6.09538221359,-154.622589111,0.00133600004483,1.0,0.0,0.0,0.0,1.0,0.0,0.0,0.0,1.0,-25.3658542633,-0.975609779358,24.3292694092,1.0,0.0,0.0,0.0,1.0,0.0,0.0,0.0,1.0,-0.186747729492,-2.05901342773,11.4299187256,1.0,0.0,0.0,0.0,1.0,0.0,0.0,0.0,1.0
1464075981424134206,596,1464075980933188856,,2.65395522118,-6.60808181763,-153.969085693,0.00130600004923,1.0,0.0,0.0,0.0,1.0,0.0,0.0,0.0,1.0,-23.4146347046,0.0,29.3292694092,1.0,0.0,0.0,0.0,1.0,0.0,0.0,0.0,1.0,0.373495458984,-2.20745393066,11.7076461182,1.0,0.0,0.0,0.0,1.0,0.0,0.0,0.0,1.0
1464075981424421132,597,1464075980954086768,,2.72026348114,-7.07272577286,-153.215789795,0.00131099997088,1.0,0.0,0.0,0.0,1.0,0.0,0.0,0.0,1.0,-22.5,4.32926845551,33.7195129395,1.0,0.0,0.0,0.0,1.0,0.0,0.0,0.0,1.0,0.253785375977,-2.17393510742,11.4778027588,1.0,0.0,0.0,0.0,1.0,0.0,0.0,0.0,1.0
1464075981426010503,598,1464075980975133951,,2.88767623901,-7.53453111649,-152.417327881,0.00134800001979,1.0,0.0,0.0,0.0,1.0,0.0,0.0,0.0,1.0,-19.7560977936,2.43902444839,33.7195129395,1.0,0.0,0.0,0.0,1.0,0.0,0.0,0.0,1.0,-0.368707055664,-2.85388837891,11.5592056152,1.0,0.0,0.0,0.0,1.0,0.0,0.0,0.0,1.0
1464075981426394773,599,1464075980995789365,,2.97329258919,-7.91368246078,-151.646331787,0.00145400001202,1.0,0.0,0.0,0.0,1.0,0.0,0.0,0.0,1.0,-10.548781395,-2.07317066193,32.8048782349,1.0,0.0,0.0,0.0,1.0,0.0,0.0,0.0,1.0,-0.0478840332031,-3.17949980469,11.4203419189,1.0,0.0,0.0,0.0,1.0,0.0,0.0,0.0,1.0
1464075981428139195,600,1464075981016649725,,2.9780395031,-8.05511188507,-150.873428345,0.00138599995989,1.0,0.0,0.0,0.0,1.0,0.0,0.0,0.0,1.0,-6.52439069748,-1.52439022064,32.134147644,1.0,0.0,0.0,0.0,1.0,0.0,0.0,0.0,1.0,0.225054956055,-1.5322890625,11.0612116699,1.0,0.0,0.0,0.0,1.0,0.0,0.0,0.0,1.0
1464075981428516173,601,1464075981037361180,,2.99503612518,-8.09481334686,-150.127929688,0.00135300005786,1.0,0.0,0.0,0.0,1.0,0.0,0.0,0.0,1.0,-12.9268293381,-3.17073178291,29.9390258789,1.0,0.0,0.0,0.0,1.0,0.0,0.0,0.0,1.0,-0.263362164351,-0.794874951172,10.6398321777,1.0,0.0,0.0,0.0,1.0,0.0,0.0,0.0,1.0
1464075981428829974,602,1464075981058775081,,2.97242450714,-8.29741287231,-149.438156128,0.00136400002521,1.0,0.0,0.0,0.0,1.0,0.0,0.0,0.0,1.0,-16.6463413239,-11.0365858078,24.8780498505,1.0,0.0,0.0,0.0,1.0,0.0,0.0,0.0,1.0,-0.881066210937,-1.8626888916,10.7356002441,1.0,0.0,0.0,0.0,1.0,0.0,0.0,0.0,1.0
1464075981429162474,603,1464075981079728931,,2.76904821396,-8.64159584045,-148.805160522,0.00156999996398,1.0,0.0,0.0,0.0,1.0,0.0,0.0,0.0,1.0,-12.0731716156,-20.4878044128,21.2804889679,1.0,0.0,0.0,0.0,1.0,0.0,0.0,0.0,1.0,-0.876277807617,-3.25132585449,10.7834842773,1.0,0.0,0.0,0.0,1.0,0.0,0.0,0.0,1.0
1464075981429473983,604,1464075981100859864,,2.38321423531,-8.87946128845,-148.19078064,0.00130600004923,1.0,0.0,0.0,0.0,1.0,0.0,0.0,0.0,1.0,-1.76829278469,-24.6341457367,22.5,1.0,0.0,0.0,0.0,1.0,0.0,0.0,0.0,1.0,-0.225054956055,-3.50032282715,11.0660000732,1.0,0.0,0.0,0.0,1.0,0.0,0.0,0.0,1.0
1464075981431062989,605,1464075981121883818,,1.98570466042,-8.87861728668,-147.519210815,0.00127699994482,1.0,0.0,0.0,0.0,1.0,0.0,0.0,0.0,1.0,4.51219558716,-19.3902435303,26.5243911743,1.0,0.0,0.0,0.0,1.0,0.0,0.0,0.0,1.0,0.368707055664,-2.37983659633,11.01811604,1.0,0.0,0.0,0.0,1.0,0.0,0.0,0.0,1.0
1464075981431475905,606,1464075981142882981,,1.68996942043,-8.69950008392,-146.783157349,0.00132799998391,1.0,0.0,0.0,0.0,1.0,0.0,0.0,0.0,1.0,2.92682933807,-7.74390268326,30.3658542633,1.0,0.0,0.0,0.0,1.0,0.0,0.0,0.0,1.0,1.03908344744,-0.995987890625,10.5632177246,1.0,0.0,0.0,0.0,1.0,0.0,0.0,0.0,1.0
1464075981433092463,607,1464075981163882039,,1.68044698238,-8.5750169754,-146.001144409,0.00140299997292,1.0,0.0,0.0,0.0,1.0,0.0,0.0,0.0,1.0,-4.69512224197,-0.426829278469,32.317073822,1.0,0.0,0.0,0.0,1.0,0.0,0.0,0.0,1.0,0.383072265625,-0.905008227539,9.50976957866,1.0,0.0,0.0,0.0,1.0,0.0,0.0,0.0,1.0
1464075981433473087,608,1464075981184908389,,1.75487458706,-8.59774780273,-145.248458862,0.00129499996547,1.0,0.0,0.0,0.0,1.0,0.0,0.0,0.0,1.0,-9.20731735229,1.58536589146,29.5121974945,1.0,0.0,0.0,0.0,1.0,0.0,0.0,0.0,1.0,0.339976635742,-1.00077629395,8.2743609375,1.0,0.0,0.0,0.0,1.0,0.0,0.0,0.0,1.0
1464075981435087666,609,1464075981210571341,,1.85847651958,-8.74164295197,-144.498443604,0.00529100000858,1.0,0.0,0.0,0.0,1.0,0.0,0.0,0.0,1.0,-13.3536586761,1.8902438879,24.7560977936,1.0,0.0,0.0,0.0,1.0,0.0,0.0,0.0,1.0,0.134075302102,-0.833182177734,7.41244833984,1.0,0.0,0.0,0.0,1.0,0.0,0.0,0.0,1.0
1464075981435473134,610,1464075981230263319,,1.92889881134,-8.9614610672,-143.935516357,0.0016380000161,1.0,0.0,0.0,0.0,1.0,0.0,0.0,0.0,1.0,-16.4634151459,-0.609756112099,19.3292694092,1.0,0.0,0.0,0.0,1.0,0.0,0.0,0.0,1.0,0.0718260498047,-1.07739082014,7.03895288086,1.0,0.0,0.0,0.0,1.0,0.0,0.0,0.0,1.0
1464075981435793706,611,1464075981251143732,,1.89511728287,-9.25403499603,-143.481445312,0.00119199999608,1.0,0.0,0.0,0.0,1.0,0.0,0.0,0.0,1.0,-18.5365848541,1.2195122242,15.9146347046,1.0,0.0,0.0,0.0,1.0,0.0,0.0,0.0,1.0,0.636857641602,-1.31202250977,7.04374128418,1.0,0.0,0.0,0.0,1.0,0.0,0.0,0.0,1.0
1464075981437974325,612,1464075981272691747,,1.89387822151,-9.65330314636,-143.085464478,0.00135000003502,1.0,0.0,0.0,0.0,1.0,0.0,0.0,0.0,1.0,-17.134147644,5.42682933807,13.841463089,1.0,0.0,0.0,0.0,1.0,0.0,0.0,0.0,1.0,0.684741674805,-2.18830031738,7.87692346191,1.0,0.0,0.0,0.0,1.0,0.0,0.0,0.0,1.0
1464075981438323126,613,1464075981293726378,,2.00546312332,-10.0207223892,-142.733535767,0.00133200001437,1.0,0.0,0.0,0.0,1.0,0.0,0.0,0.0,1.0,-11.4024391174,5.0,13.3536586761,1.0,0.0,0.0,0.0,1.0,0.0,0.0,0.0,1.0,0.138863696289,-2.55221896973,8.83460412598,1.0,0.0,0.0,0.0,1.0,0.0,0.0,0.0,1.0
1464075981438654479,614,1464075981314657937,,2.10422515869,-10.2308130264,-142.384918213,0.00128500000574,1.0,0.0,0.0,0.0,1.0,0.0,0.0,0.0,1.0,-7.62195110321,1.03658533096,13.1097564697,1.0,0.0,0.0,0.0,1.0,0.0,0.0,0.0,1.0,-0.0622492431641,-2.04943662109,9.4570959731,1.0,0.0,0.0,0.0,1.0,0.0,0.0,0.0,1.0
1464075981440212183,615,1464075981335426839,,2.15411663055,-10.3377962112,-142.022232056,0.00130700005684,1.0,0.0,0.0,0.0,1.0,0.0,0.0,0.0,1.0,-9.14634132385,-5.97560977936,12.5,1.0,0.0,0.0,0.0,1.0,0.0,0.0,0.0,1.0,-0.603338854892,-1.68072956543,10.1370498291,1.0,0.0,0.0,0.0,1.0,0.0,0.0,0.0,1.0
1464075981440536558,616,1464075981356043138,,2.04950785637,-10.4751663208,-141.635742188,0.00135499995667,1.0,0.0,0.0,0.0,1.0,0.0,0.0,0.0,1.0,-12.1951217651,-17.0731716156,11.8902444839,1.0,0.0,0.0,0.0,1.0,0.0,0.0,0.0,1.0,-1.00556469727,-1.85311208496,11.1857101562,1.0,0.0,0.0,0.0,1.0,0.0,0.0,0.0,1.0
1464075981440836817,617,1464075981376893551,,1.71691417694,-10.6699342728,-141.207183838,0.00136899994686,1.0,0.0,0.0,0.0,1.0,0.0,0.0,0.0,1.0,-14.9390249252,-26.8902454376,12.8048782349,1.0,0.0,0.0,0.0,1.0,0.0,0.0,0.0,1.0,-0.632069238281,-2.01112939453,11.5879360352,1.0,0.0,0.0,0.0,1.0,0.0,0.0,0.0,1.0
1464075981443212592,618,1464075981398464795,,1.21833634377,-10.9279699326,-140.67048645,0.00161100004334,1.0,0.0,0.0,0.0,1.0,0.0,0.0,0.0,1.0,-18.2926826477,-29.2073173523,17.8048782349,1.0,0.0,0.0,0.0,1.0,0.0,0.0,0.0,1.0,-0.0335188255255,-1.95366855469,11.9566430908,1.0,0.0,0.0,0.0,1.0,0.0,0.0,0.0,1.0
1464075982912099383,619,1464075981419220625,,0.728068232536,-11.2436542511,-140.039001465,0.00137499999255,1.0,0.0,0.0,0.0,1.0,0.0,0.0,0.0,1.0,-21.7682933807,-27.7439041138,22.0731716156,1.0,0.0,0.0,0.0,1.0,0.0,0.0,0.0,1.0,0.15801730957,-1.8626888916,12.0428343506,1.0,0.0,0.0,0.0,1.0,0.0,0.0,0.0,1.0
1464075982914422658,620,1464075981440296871,,0.324811398983,-11.6381072998,-139.320724487,0.00167300004978,1.0,0.0,0.0,0.0,1.0,0.0,0.0,0.0,1.0,-24.3902435303,-27.0731716156,26.4634151459,1.0,0.0,0.0,0.0,1.0,0.0,0.0,0.0,1.0,-0.593762048251,-2.38462499965,12.0141039307,1.0,0.0,0.0,0.0,1.0,0.0,0.0,0.0,1.0
