%time,field.header.seq,field.header.stamp,field.header.frame_id,field.orientation.x,field.orientation.y,field.orientation.z,field.orientation.w,field.orientation_covariance0,field.orientation_covariance1,field.orientation_covariance2,field.orientation_covariance3,field.orientation_covariance4,field.orientation_covariance5,field.orientation_covariance6,field.orientation_covariance7,field.orientation_covariance8,field.angular_velocity.x,field.angular_velocity.y,field.angular_velocity.z,field.angular_velocity_covariance0,field.angular_velocity_covariance1,field.angular_velocity_covariance2,field.angular_velocity_covariance3,field.angular_velocity_covariance4,field.angular_velocity_covariance5,field.angular_velocity_covariance6,field.angular_velocity_covariance7,field.angular_velocity_covariance8,field.linear_acceleration.x,field.linear_acceleration.y,field.linear_acceleration.z,field.linear_acceleration_covariance0,field.linear_acceleration_covariance1,field.linear_acceleration_covariance2,field.linear_acceleration_covariance3,field.linear_acceleration_covariance4,field.linear_acceleration_covariance5,field.linear_acceleration_covariance6,field.linear_acceleration_covariance7,field.linear_acceleration_covariance8
1463922770543853043,236,1463922770535784119,,-6.11711168289,-12.2613067627,-59.7831230164,0.0216470006853,1.0,0.0,0.0,0.0,1.0,0.0,0.0,0.0,1.0,-0.731707334518,2.5,0.0,1.0,0.0,0.0,0.0,1.0,0.0,0.0,0.0,1.0,0.861912597656,-1.03429511719,10.1035310059,1.0,0.0,0.0,0.0,1.0,0.0,0.0,0.0,1.0
1463922770548270263,237,1463922770543136848,,-6.00179052353,-12.1600942612,-59.8031921387,0.019272999838,1.0,0.0,0.0,0.0,1.0,0.0,0.0,0.0,1.0,-1.03658533096,2.80487799644,0.609756112099,1.0,0.0,0.0,0.0,1.0,0.0,0.0,0.0,1.0,0.871489404297,-1.00077629395,9.96466730957,1.0,0.0,0.0,0.0,1.0,0.0,0.0,0.0,1.0
1463922770565057744,238,1463922770562887857,,-5.90205430984,-12.0670757294,-59.8285636902,0.0202719997615,1.0,0.0,0.0,0.0,1.0,0.0,0.0,0.0,1.0,-0.975609779358,2.01219511032,0.12195122242,1.0,0.0,0.0,0.0,1.0,0.0,0.0,0.0,1.0,0.885854614258,-1.11569797363,9.95030209961,1.0,0.0,0.0,0.0,1.0,0.0,0.0,0.0,1.0
1463922770585258907,239,1463922770583297770,,-5.80237340927,-11.967748642,-59.8562507629,0.0204000007361,1.0,0.0,0.0,0.0,1.0,0.0,0.0,0.0,1.0,-1.09756100178,1.8292683363,0.0,1.0,0.0,0.0,0.0,1.0,0.0,0.0,0.0,1.0,0.852335791016,-1.04866025408,10.1370498291,1.0,0.0,0.0,0.0,1.0,0.0,0.0,0.0,1.0
1463922770605680591,240,1463922770603708412,,-5.70919370651,-11.8783388138,-59.8799209595,0.0204109996557,1.0,0.0,0.0,0.0,1.0,0.0,0.0,0.0,1.0,-0.975609779358,1.8292683363,0.12195122242,1.0,0.0,0.0,0.0,1.0,0.0,0.0,0.0,1.0,0.900219824219,-1.13963999023,10.1466266357,1.0,0.0,0.0,0.0,1.0,0.0,0.0,0.0,1.0
1463922770625900504,241,1463922770624110616,,-5.61470460892,-11.7689228058,-59.913898468,0.0204089991748,1.0,0.0,0.0,0.0,1.0,0.0,0.0,0.0,1.0,-0.609756112099,1.46341466904,-0.426829278469,1.0,0.0,0.0,0.0,1.0,0.0,0.0,0.0,1.0,0.780509741211,-1.01514150391,10.0939541992,1.0,0.0,0.0,0.0,1.0,0.0,0.0,0.0,1.0
1463922770646664114,242,1463922770644553550,,-5.50521469116,-11.6799583435,-59.9340171814,0.0204039998353,1.0,0.0,0.0,0.0,1.0,0.0,0.0,0.0,1.0,-0.548780500889,2.80487799644,0.426829278469,1.0,0.0,0.0,0.0,1.0,0.0,0.0,0.0,1.0,0.900219824219,-1.17315874041,10.0700121826,1.0,0.0,0.0,0.0,1.0,0.0,0.0,0.0,1.0
1463922770667343713,243,1463922770664926900,,-5.38363933563,-11.588227272,-59.958530426,0.0204119998962,1.0,0.0,0.0,0.0,1.0,0.0,0.0,0.0,1.0,-1.2195122242,2.98780488968,0.304878056049,1.0,0.0,0.0,0.0,1.0,0.0,0.0,0.0,1.0,0.799663354492,-1.01514150391,10.0700121826,1.0,0.0,0.0,0.0,1.0,0.0,0.0,0.0,1.0
1463922770688315758,244,1463922770685355875,,-5.28309822083,-11.5024337769,-59.9907646179,0.0204099994153,1.0,0.0,0.0,0.0,1.0,0.0,0.0,0.0,1.0,-1.2195122242,2.43902444839,-0.243902444839,1.0,0.0,0.0,0.0,1.0,0.0,0.0,0.0,1.0,0.852335791016,-1.06302561017,10.1226846191,1.0,0.0,0.0,0.0,1.0,0.0,0.0,0.0,1.0
1463922770709115826,245,1463922770705787194,,-5.18722009659,-11.4070682526,-60.0154304504,0.0203959997743,1.0,0.0,0.0,0.0,1.0,0.0,0.0,0.0,1.0,-0.914634168148,2.37804889679,0.12195122242,1.0,0.0,0.0,0.0,1.0,0.0,0.0,0.0,1.0,0.881066210937,-1.01514150391,10.1705686523,1.0,0.0,0.0,0.0,1.0,0.0,0.0,0.0,1.0
1463922770729040220,246,1463922770726226273,,-5.09924840927,-11.3112745285,-60.040096283,0.0204160008579,1.0,0.0,0.0,0.0,1.0,0.0,0.0,0.0,1.0,-0.426829278469,2.07317066193,0.0,1.0,0.0,0.0,0.0,1.0,0.0,0.0,0.0,1.0,0.876277807617,-1.08217922346,10.1514150391,1.0,0.0,0.0,0.0,1.0,0.0,0.0,0.0,1.0
1463922770748459824,247,1463922770746724884,,-5.03132200241,-11.219622612,-60.0657119751,0.020428000018,1.0,0.0,0.0,0.0,1.0,0.0,0.0,0.0,1.0,-0.243902444839,1.34146344662,-0.243902444839,1.0,0.0,0.0,0.0,1.0,0.0,0.0,0.0,1.0,0.900219824219,-1.13485158691,10.1370498291,1.0,0.0,0.0,0.0,1.0,0.0,0.0,0.0,1.0
1463922770770331189,248,1463922770767107453,,-4.98018169403,-11.1387119293,-60.0841178894,0.0204009991139,1.0,0.0,0.0,0.0,1.0,0.0,0.0,0.0,1.0,-0.670731723309,1.76829278469,0.18292683363,1.0,0.0,0.0,0.0,1.0,0.0,0.0,0.0,1.0,1.13485158691,-1.13485158691,10.1992990723,1.0,0.0,0.0,0.0,1.0,0.0,0.0,0.0,1.0
1463922770801998085,249,1463922770792133231,,-4.91960477829,-11.0577020645,-60.1044960022,0.0204109996557,1.0,0.0,0.0,0.0,1.0,0.0,0.0,0.0,1.0,-0.670731723309,2.01219511032,0.12195122242,1.0,0.0,0.0,0.0,1.0,0.0,0.0,0.0,1.0,1.07260241682,-1.11090957031,10.1035310059,1.0,0.0,0.0,0.0,1.0,0.0,0.0,0.0,1.0
1463922770821296804,250,1463922770812692466,,-4.84936571121,-10.9619340897,-60.1322784424,0.0204169992357,1.0,0.0,0.0,0.0,1.0,0.0,0.0,0.0,1.0,0.0,2.37804889679,-0.18292683363,1.0,0.0,0.0,0.0,1.0,0.0,0.0,0.0,1.0,1.02950671387,-1.09175595703,10.0939541992,1.0,0.0,0.0,0.0,1.0,0.0,0.0,0.0,1.0
1463922770836479917,251,1463922770833543315,,-4.72727537155,-10.8211898804,-60.1588439941,0.0235500000417,1.0,0.0,0.0,0.0,1.0,0.0,0.0,0.0,1.0,0.426829278469,2.74390244484,0.18292683363,1.0,0.0,0.0,0.0,1.0,0.0,0.0,0.0,1.0,0.775721337891,-0.91458503418,10.0748005859,1.0,0.0,0.0,0.0,1.0,0.0,0.0,0.0,1.0
1463922770853042554,252,1463922770850045588,,-4.66566991806,-10.7319450378,-60.1774864197,0.0182240009308,1.0,0.0,0.0,0.0,1.0,0.0,0.0,0.0,1.0,0.12195122242,2.31707310677,0.12195122242,1.0,0.0,0.0,0.0,1.0,0.0,0.0,0.0,1.0,1.01992990723,-1.04387185076,10.2423947021,1.0,0.0,0.0,0.0,1.0,0.0,0.0,0.0,1.0
1463922770872899240,253,1463922770869249568,,-4.6182808876,-10.6473379135,-60.1979522705,0.0194489993155,1.0,0.0,0.0,0.0,1.0,0.0,0.0,0.0,1.0,0.0609756112099,1.46341466904,-0.12195122242,1.0,0.0,0.0,0.0,1.0,0.0,0.0,0.0,1.0,1.01514150391,-1.11090957031,10.180145459,1.0,0.0,0.0,0.0,1.0,0.0,0.0,0.0,1.0
1463922770893381340,254,1463922770889585575,,-4.57382059097,-10.5451183319,-60.2253875732,0.0204050000757,1.0,0.0,0.0,0.0,1.0,0.0,0.0,0.0,1.0,0.365853667259,1.64634156227,-0.365853667259,1.0,0.0,0.0,0.0,1.0,0.0,0.0,0.0,1.0,1.08217922346,-1.03908344744,10.2280294922,1.0,0.0,0.0,0.0,1.0,0.0,0.0,0.0,1.0
1463922770935741055,255,1463922770910008352,,-4.52368402481,-10.4369497299,-60.2516593933,0.0204009991139,1.0,0.0,0.0,0.0,1.0,0.0,0.0,0.0,1.0,0.304878056049,1.8902438879,-0.243902444839,1.0,0.0,0.0,0.0,1.0,0.0,0.0,0.0,1.0,1.06302561017,-0.948103857422,10.1609918457,1.0,0.0,0.0,0.0,1.0,0.0,0.0,0.0,1.0
1463922770936150740,256,1463922770930337276,,-4.47212076187,-10.3546991348,-60.2761383057,0.0204210001975,1.0,0.0,0.0,0.0,1.0,0.0,0.0,0.0,1.0,0.18292683363,2.62195134163,-0.12195122242,1.0,0.0,0.0,0.0,1.0,0.0,0.0,0.0,1.0,1.18273554705,-1.13963999023,10.180145459,1.0,0.0,0.0,0.0,1.0,0.0,0.0,0.0,1.0
1463922770955906229,257,1463922770950935156,,-4.39921569824,-10.2561721802,-60.3013763428,0.0204160008579,1.0,0.0,0.0,0.0,1.0,0.0,0.0,0.0,1.0,0.426829278469,2.98780488968,-0.0609756112099,1.0,0.0,0.0,0.0,1.0,0.0,0.0,0.0,1.0,1.04387185076,-1.01992990723,10.1370498291,1.0,0.0,0.0,0.0,1.0,0.0,0.0,0.0,1.0
1463922770976799056,258,1463922770971453350,,-4.30981016159,-10.1440572739,-60.3337554932,0.0204550009221,1.0,0.0,0.0,0.0,1.0,0.0,0.0,0.0,1.0,0.548780500889,3.10975623131,-0.365853667259,1.0,0.0,0.0,0.0,1.0,0.0,0.0,0.0,1.0,0.900219824219,-0.91458503418,10.180145459,1.0,0.0,0.0,0.0,1.0,0.0,0.0,0.0,1.0
1463922770994464970,259,1463922770991749409,,-4.20639181137,-10.0430622101,-60.3634986877,0.020361000672,1.0,0.0,0.0,0.0,1.0,0.0,0.0,0.0,1.0,0.670731723309,3.47560977936,-0.243902444839,1.0,0.0,0.0,0.0,1.0,0.0,0.0,0.0,1.0,0.818816967773,-1.00077629395,10.0843773926,1.0,0.0,0.0,0.0,1.0,0.0,0.0,0.0,1.0
1463922771017724819,260,1463922771012148905,,-4.11123466492,-9.94003582001,-60.390171051,0.0204029995948,1.0,0.0,0.0,0.0,1.0,0.0,0.0,0.0,1.0,0.487804889679,2.92682933807,-0.18292683363,1.0,0.0,0.0,0.0,1.0,0.0,0.0,0.0,1.0,0.785298144531,-0.938527050781,10.1609918457,1.0,0.0,0.0,0.0,1.0,0.0,0.0,0.0,1.0
1463922771046651726,261,1463922771032444443,,-4.0247502327,-9.8456993103,-60.4157028198,0.0204070005566,1.0,0.0,0.0,0.0,1.0,0.0,0.0,0.0,1.0,-0.0609756112099,2.98780488968,-0.12195122242,1.0,0.0,0.0,0.0,1.0,0.0,0.0,0.0,1.0,0.857124194336,-0.895431420898,10.1514150391,1.0,0.0,0.0,0.0,1.0,0.0,0.0,0.0,1.0
1463922771071770265,262,1463922771052958418,,-3.94899177551,-9.75983142853,-60.439414978,0.0204029995948,1.0,0.0,0.0,0.0,1.0,0.0,0.0,0.0,1.0,0.0,1.70731711388,-0.304878056049,1.0,0.0,0.0,0.0,1.0,0.0,0.0,0.0,1.0,0.699106884766,-0.957680664062,10.0795889893,1.0,0.0,0.0,0.0,1.0,0.0,0.0,0.0,1.0
1463922771083482038,263,1463922771073450049,,-3.90500497818,-9.67704963684,-60.4648933411,0.0204390008003,1.0,0.0,0.0,0.0,1.0,0.0,0.0,0.0,1.0,0.304878056049,1.03658533096,-0.548780500889,1.0,0.0,0.0,0.0,1.0,0.0,0.0,0.0,1.0,0.828393774414,-1.01035310059,9.92636008301,1.0,0.0,0.0,0.0,1.0,0.0,0.0,0.0,1.0
1463922771097302499,264,1463922771093859962,,-3.86433720589,-9.60161972046,-60.4990692139,0.0203770007938,1.0,0.0,0.0,0.0,1.0,0.0,0.0,0.0,1.0,0.0,1.15853655338,-0.975609779358,1.0,0.0,0.0,0.0,1.0,0.0,0.0,0.0,1.0,0.866701000977,-1.01992990723,10.0364933594,1.0,0.0,0.0,0.0,1.0,0.0,0.0,0.0,1.0
1463922771116887624,265,1463922771114330343,,-3.78785443306,-9.52712726593,-60.5084457397,0.0204819999635,1.0,0.0,0.0,0.0,1.0,0.0,0.0,0.0,1.0,0.304878056049,2.31707310677,0.426829278469,1.0,0.0,0.0,0.0,1.0,0.0,0.0,0.0,1.0,0.809240161133,-1.07739082014,10.2136642822,1.0,0.0,0.0,0.0,1.0,0.0,0.0,0.0,1.0
1463922771137370245,266,1463922771134776454,,-3.73515343666,-9.43675136566,-60.5266723633,0.0204579997808,1.0,0.0,0.0,0.0,1.0,0.0,0.0,0.0,1.0,0.853658556938,1.2804877758,-0.18292683363,1.0,0.0,0.0,0.0,1.0,0.0,0.0,0.0,1.0,0.785298144531,-1.00556469727,10.0077629395,1.0,0.0,0.0,0.0,1.0,0.0,0.0,0.0,1.0
1463922771215586785,267,1463922771155050482,,-3.68315434456,-9.36181545258,-60.5332221985,0.0203099995852,1.0,0.0,0.0,0.0,1.0,0.0,0.0,0.0,1.0,0.426829278469,1.64634156227,0.426829278469,1.0,0.0,0.0,0.0,1.0,0.0,0.0,0.0,1.0,0.871489404297,-1.04866025408,10.1226846191,1.0,0.0,0.0,0.0,1.0,0.0,0.0,0.0,1.0
1463922771215628921,268,1463922771175423311,,-3.6118991375,-9.26784801483,-60.5408859253,0.0203840006143,1.0,0.0,0.0,0.0,1.0,0.0,0.0,0.0,1.0,0.0609756112099,1.8902438879,0.487804889679,1.0,0.0,0.0,0.0,1.0,0.0,0.0,0.0,1.0,0.732625708008,-0.799663354492,10.0795889893,1.0,0.0,0.0,0.0,1.0,0.0,0.0,0.0,1.0
1463922771215674285,269,1463922771196338899,,-3.56000542641,-9.18150901794,-60.5489578247,0.0204199999571,1.0,0.0,0.0,0.0,1.0,0.0,0.0,0.0,1.0,-0.304878056049,1.34146344662,0.365853667259,1.0,0.0,0.0,0.0,1.0,0.0,0.0,0.0,1.0,0.790086547852,-0.785298144531,10.0748005859,1.0,0.0,0.0,0.0,1.0,0.0,0.0,0.0,1.0
1463922771270956705,270,1463922771216682458,,-3.50748515129,-9.10377883911,-60.5594291687,0.0203930009156,1.0,0.0,0.0,0.0,1.0,0.0,0.0,0.0,1.0,-0.548780500889,1.8292683363,0.304878056049,1.0,0.0,0.0,0.0,1.0,0.0,0.0,0.0,1.0,0.852335791016,-0.794874951172,9.98860932617,1.0,0.0,0.0,0.0,1.0,0.0,0.0,0.0,1.0
1463922771271022486,271,1463922771236619352,,-3.46400928497,-9.01689052582,-60.5670547485,0.0204240009189,1.0,0.0,0.0,0.0,1.0,0.0,0.0,0.0,1.0,-0.0609756112099,1.40243899822,0.365853667259,1.0,0.0,0.0,0.0,1.0,0.0,0.0,0.0,1.0,0.861912597656,-0.799663354492,10.1370498291,1.0,0.0,0.0,0.0,1.0,0.0,0.0,0.0,1.0
1463922771271059465,272,1463922771257404211,,-3.43136048317,-8.94540023804,-60.5810279846,0.0203970000148,1.0,0.0,0.0,0.0,1.0,0.0,0.0,0.0,1.0,-0.12195122242,1.40243899822,0.0,1.0,0.0,0.0,0.0,1.0,0.0,0.0,0.0,1.0,0.943315454102,-0.91458503418,10.165780249,1.0,0.0,0.0,0.0,1.0,0.0,0.0,0.0,1.0
1463922771345886801,273,1463922771277661572,,-3.40067458153,-8.87522602081,-60.5920181274,0.0204039998353,1.0,0.0,0.0,0.0,1.0,0.0,0.0,0.0,1.0,-0.243902444839,1.64634156227,0.18292683363,1.0,0.0,0.0,0.0,1.0,0.0,0.0,0.0,1.0,1.01035310059,-0.895431420898,10.2328178955,1.0,0.0,0.0,0.0,1.0,0.0,0.0,0.0,1.0
1463922771345935134,274,1463922771298009141,,-3.3520693779,-8.79722309113,-60.6048965454,0.020408000797,1.0,0.0,0.0,0.0,1.0,0.0,0.0,0.0,1.0,0.0,2.62195134163,0.243902444839,1.0,0.0,0.0,0.0,1.0,0.0,0.0,0.0,1.0,1.01514150391,-0.852335791016,10.165780249,1.0,0.0,0.0,0.0,1.0,0.0,0.0,0.0,1.0
1463922771345983311,275,1463922771318462856,,-3.30053067207,-8.71729278564,-60.6204795837,0.020408000797,1.0,0.0,0.0,0.0,1.0,0.0,0.0,0.0,1.0,-0.12195122242,2.68292689323,0.12195122242,1.0,0.0,0.0,0.0,1.0,0.0,0.0,0.0,1.0,0.986411083984,-0.799663354492,10.1562034424,1.0,0.0,0.0,0.0,1.0,0.0,0.0,0.0,1.0
1463922771346224664,276,1463922771339140528,,-3.24418592453,-8.65756607056,-60.6387138367,0.0205249991268,1.0,0.0,0.0,0.0,1.0,0.0,0.0,0.0,1.0,-0.426829278469,3.04878044128,0.0,1.0,0.0,0.0,0.0,1.0,0.0,0.0,0.0,1.0,0.991199487305,-0.905008227539,10.0556469727,1.0,0.0,0.0,0.0,1.0,0.0,0.0,0.0,1.0
1463922771404428530,277,1463922771359314504,,-3.18870329857,-8.59628486633,-60.6535987854,0.0205739997327,1.0,0.0,0.0,0.0,1.0,0.0,0.0,0.0,1.0,-0.609756112099,3.10975623131,0.18292683363,1.0,0.0,0.0,0.0,1.0,0.0,0.0,0.0,1.0,1.00556469727,-0.847547387695,10.060435376,1.0,0.0,0.0,0.0,1.0,0.0,0.0,0.0,1.0
1463922771404841393,278,1463922771379446501,,-3.13224983215,-8.54152202606,-60.6654396057,0.0201280005276,1.0,0.0,0.0,0.0,1.0,0.0,0.0,0.0,1.0,-0.365853667259,2.86585378647,0.243902444839,1.0,0.0,0.0,0.0,1.0,0.0,0.0,0.0,1.0,0.928950244141,-0.9193734375,9.98860932617,1.0,0.0,0.0,0.0,1.0,0.0,0.0,0.0,1.0
1463922771405147485,279,1463922771399886362,,-3.07265686989,-8.49001407623,-60.6831207275,0.0204319991171,1.0,0.0,0.0,0.0,1.0,0.0,0.0,0.0,1.0,-0.426829278469,2.80487799644,-0.0609756112099,1.0,0.0,0.0,0.0,1.0,0.0,0.0,0.0,1.0,0.885854614258,-0.943315454102,10.0508585693,1.0,0.0,0.0,0.0,1.0,0.0,0.0,0.0,1.0
1463922771467867946,280,1463922771420203306,,-3.01519107819,-8.43161773682,-60.6926612854,0.0203900001943,1.0,0.0,0.0,0.0,1.0,0.0,0.0,0.0,1.0,-0.243902444839,2.56097555161,0.304878056049,1.0,0.0,0.0,0.0,1.0,0.0,0.0,0.0,1.0,0.866701000977,-0.909796630859,10.1418382324,1.0,0.0,0.0,0.0,1.0,0.0,0.0,0.0,1.0
1463922771467936123,281,1463922771440688740,,-2.96815919876,-8.40340232849,-60.7024154663,0.0203959997743,1.0,0.0,0.0,0.0,1.0,0.0,0.0,0.0,1.0,-0.914634168148,2.56097555161,0.243902444839,1.0,0.0,0.0,0.0,1.0,0.0,0.0,0.0,1.0,0.938527050781,-1.03429511719,10.0269165527,1.0,0.0,0.0,0.0,1.0,0.0,0.0,0.0,1.0
1463922771468492735,282,1463922771461064225,,-2.9186296463,-8.37587547302,-60.709312439,0.0204300004989,1.0,0.0,0.0,0.0,1.0,0.0,0.0,0.0,1.0,-0.975609779358,2.43902444839,0.365853667259,1.0,0.0,0.0,0.0,1.0,0.0,0.0,0.0,1.0,0.895431420898,-1.02950671387,10.0843773926,1.0,0.0,0.0,0.0,1.0,0.0,0.0,0.0,1.0
1463922771586333794,283,1463922771482212677,,-2.87376713753,-8.33546829224,-60.7168312073,0.0204450003803,1.0,0.0,0.0,0.0,1.0,0.0,0.0,0.0,1.0,-0.731707334518,2.13414645195,0.304878056049,1.0,0.0,0.0,0.0,1.0,0.0,0.0,0.0,1.0,0.890643017578,-0.976834277344,10.3094323486,1.0,0.0,0.0,0.0,1.0,0.0,0.0,0.0,1.0
1463922771586372023,284,1463922771502057175,,-2.83845257759,-8.29469776154,-60.7182884216,0.0203579999506,1.0,0.0,0.0,0.0,1.0,0.0,0.0,0.0,1.0,-0.792682945728,1.76829278469,0.548780500889,1.0,0.0,0.0,0.0,1.0,0.0,0.0,0.0,1.0,0.895431420898,-0.938527050781,10.180145459,1.0,0.0,0.0,0.0,1.0,0.0,0.0,0.0,1.0
1463922771587582643,285,1463922771522380213,,-2.81827187538,-8.24929141998,-60.7249946594,0.0204390008003,1.0,0.0,0.0,0.0,1.0,0.0,0.0,0.0,1.0,-0.792682945728,1.40243899822,0.243902444839,1.0,0.0,0.0,0.0,1.0,0.0,0.0,0.0,1.0,0.952892260742,-0.895431420898,10.2040874756,1.0,0.0,0.0,0.0,1.0,0.0,0.0,0.0,1.0
1463922771587644153,286,1463922771545734853,,-2.79347419739,-8.22065830231,-60.7357673645,0.0203840006143,1.0,0.0,0.0,0.0,1.0,0.0,0.0,0.0,1.0,-0.365853667259,1.15853655338,-0.0609756112099,1.0,0.0,0.0,0.0,1.0,0.0,0.0,0.0,1.0,0.857124194336,-1.11569797363,10.1945106689,1.0,0.0,0.0,0.0,1.0,0.0,0.0,0.0,1.0
1463922771588959304,287,1463922771563184518,,-2.77046108246,-8.19746494293,-60.7461662292,0.0203930009156,1.0,0.0,0.0,0.0,1.0,0.0,0.0,0.0,1.0,-0.975609779358,1.76829278469,0.0609756112099,1.0,0.0,0.0,0.0,1.0,0.0,0.0,0.0,1.0,0.991199487305,-1.05823706072,10.299855542,1.0,0.0,0.0,0.0,1.0,0.0,0.0,0.0,1.0
1463922771590454662,288,1463922771584262292,,-2.73138475418,-8.16056728363,-60.7604370117,0.0204199999571,1.0,0.0,0.0,0.0,1.0,0.0,0.0,0.0,1.0,-0.670731723309,2.13414645195,-0.0609756112099,1.0,0.0,0.0,0.0,1.0,0.0,0.0,0.0,1.0,0.885854614258,-0.967257470703,10.0795889893,1.0,0.0,0.0,0.0,1.0,0.0,0.0,0.0,1.0
1463922771641613922,289,1463922771603824813,,-2.69888043404,-8.13513946533,-60.7740936279,0.0203879997134,1.0,0.0,0.0,0.0,1.0,0.0,0.0,0.0,1.0,-0.548780500889,2.62195134163,0.0,1.0,0.0,0.0,0.0,1.0,0.0,0.0,0.0,1.0,1.03908344744,-1.09654436035,10.2040874756,1.0,0.0,0.0,0.0,1.0,0.0,0.0,0.0,1.0
1463922771641840015,290,1463922771624133164,,-2.64326286316,-8.11066150665,-60.7830924988,0.0204070005566,1.0,0.0,0.0,0.0,1.0,0.0,0.0,0.0,1.0,-0.914634168148,3.04878044128,0.304878056049,1.0,0.0,0.0,0.0,1.0,0.0,0.0,0.0,1.0,0.900219824219,-1.01992990723,10.0843773926,1.0,0.0,0.0,0.0,1.0,0.0,0.0,0.0,1.0
1463922771646880827,291,1463922771644588389,,-2.5787498951,-8.08908462524,-60.8098716736,0.0204230006784,1.0,0.0,0.0,0.0,1.0,0.0,0.0,0.0,1.0,-0.975609779358,3.29268312454,-0.548780500889,1.0,0.0,0.0,0.0,1.0,0.0,0.0,0.0,1.0,0.842758984375,-1.04866025408,10.1897222656,1.0,0.0,0.0,0.0,1.0,0.0,0.0,0.0,1.0
1463922771673933211,292,1463922771665336946,,-2.50249910355,-8.06963825226,-60.8248100281,0.0205129999667,1.0,0.0,0.0,0.0,1.0,0.0,0.0,0.0,1.0,-0.487804889679,3.23170733452,0.0,1.0,0.0,0.0,0.0,1.0,0.0,0.0,0.0,1.0,0.727837304687,-1.13963999023,10.1083194092,1.0,0.0,0.0,0.0,1.0,0.0,0.0,0.0,1.0
1463922771687006228,293,1463922771685368110,,-2.43928050995,-8.03381443024,-60.8428573608,0.0202890001237,1.0,0.0,0.0,0.0,1.0,0.0,0.0,0.0,1.0,-0.487804889679,2.86585378647,-0.18292683363,1.0,0.0,0.0,0.0,1.0,0.0,0.0,0.0,1.0,0.742202514648,-0.976834277344,9.98382092285,1.0,0.0,0.0,0.0,1.0,0.0,0.0,0.0,1.0
1463922771714445538,294,1463922771705785471,,-2.39145636559,-8.00203227997,-60.8670578003,0.0204130001366,1.0,0.0,0.0,0.0,1.0,0.0,0.0,0.0,1.0,-0.487804889679,2.5,-0.548780500889,1.0,0.0,0.0,0.0,1.0,0.0,0.0,0.0,1.0,0.799663354492,-1.01514150391,10.0364933594,1.0,0.0,0.0,0.0,1.0,0.0,0.0,0.0,1.0
1463922771730879426,295,1463922771726297987,,-2.3603284359,-7.98370027542,-60.8725280762,0.0204130001366,1.0,0.0,0.0,0.0,1.0,0.0,0.0,0.0,1.0,-0.731707334518,2.56097555161,0.365853667259,1.0,0.0,0.0,0.0,1.0,0.0,0.0,0.0,1.0,0.981622680664,-1.08696755371,10.1322614258,1.0,0.0,0.0,0.0,1.0,0.0,0.0,0.0,1.0
1463922771770179258,296,1463922771750219031,,-2.32220840454,-7.96238040924,-60.8782463074,0.0210250001401,1.0,0.0,0.0,0.0,1.0,0.0,0.0,0.0,1.0,-0.792682945728,2.56097555161,0.365853667259,1.0,0.0,0.0,0.0,1.0,0.0,0.0,0.0,1.0,0.928950244141,-1.05823706072,10.1945106689,1.0,0.0,0.0,0.0,1.0,0.0,0.0,0.0,1.0
1463922771780396558,297,1463922771772257582,,-2.27531290054,-7.90701007843,-60.8955726624,0.019925000146,1.0,0.0,0.0,0.0,1.0,0.0,0.0,0.0,1.0,0.426829278469,2.37804889679,-0.243902444839,1.0,0.0,0.0,0.0,1.0,0.0,0.0,0.0,1.0,0.780509741211,-0.967257470703,10.2759135254,1.0,0.0,0.0,0.0,1.0,0.0,0.0,0.0,1.0
1463922771801964539,298,1463922771793033327,,-2.22484469414,-7.85161590576,-60.9149398804,0.0202740002424,1.0,0.0,0.0,0.0,1.0,0.0,0.0,0.0,1.0,0.426829278469,2.19512200356,-0.365853667259,1.0,0.0,0.0,0.0,1.0,0.0,0.0,0.0,1.0,0.694318481445,-0.943315454102,10.0317049561,1.0,0.0,0.0,0.0,1.0,0.0,0.0,0.0,1.0
1463922771820051493,299,1463922771811496373,,-2.19738149643,-7.80608558655,-60.9286994934,0.0234030000865,1.0,0.0,0.0,0.0,1.0,0.0,0.0,0.0,1.0,0.12195122242,1.8902438879,-0.0609756112099,1.0,0.0,0.0,0.0,1.0,0.0,0.0,0.0,1.0,0.885854614258,-1.02950671387,10.1562034424,1.0,0.0,0.0,0.0,1.0,0.0,0.0,0.0,1.0
1463922771833129041,300,1463922771828757705,,-2.21038627625,-7.77862262726,-60.9370040894,0.0174199994653,1.0,0.0,0.0,0.0,1.0,0.0,0.0,0.0,1.0,-0.243902444839,1.09756100178,-0.0609756112099,1.0,0.0,0.0,0.0,1.0,0.0,0.0,0.0,1.0,1.08696755371,-1.01992990723,10.1514150391,1.0,0.0,0.0,0.0,1.0,0.0,0.0,0.0,1.0
1463922771862381833,301,1463922771849360326,,-2.22940731049,-7.73892211914,-60.9461326599,0.0204039998353,1.0,0.0,0.0,0.0,1.0,0.0,0.0,0.0,1.0,0.0,0.853658556938,-0.0609756112099,1.0,0.0,0.0,0.0,1.0,0.0,0.0,0.0,1.0,1.06781401349,-0.981622680664,10.046070166,1.0,0.0,0.0,0.0,1.0,0.0,0.0,0.0,1.0
1463922771878193588,302,1463922771869655656,,-2.25620126724,-7.70531129837,-60.959777832,0.0204070005566,1.0,0.0,0.0,0.0,1.0,0.0,0.0,0.0,1.0,0.0,0.792682945728,-0.304878056049,1.0,0.0,0.0,0.0,1.0,0.0,0.0,0.0,1.0,1.14921679688,-1.0534486574,10.2759135254,1.0,0.0,0.0,0.0,1.0,0.0,0.0,0.0,1.0
1463922771891401448,303,1463922771889733382,,-2.25932145119,-7.66167259216,-60.9680786133,0.0204150006175,1.0,0.0,0.0,0.0,1.0,0.0,0.0,0.0,1.0,0.18292683363,1.46341466904,0.0609756112099,1.0,0.0,0.0,0.0,1.0,0.0,0.0,0.0,1.0,1.06302561017,-0.981622680664,10.1992990723,1.0,0.0,0.0,0.0,1.0,0.0,0.0,0.0,1.0
1463922771922705741,304,1463922771910179753,,-2.25185585022,-7.61119604111,-60.977432251,0.0204039998353,1.0,0.0,0.0,0.0,1.0,0.0,0.0,0.0,1.0,0.18292683363,1.76829278469,0.0609756112099,1.0,0.0,0.0,0.0,1.0,0.0,0.0,0.0,1.0,1.01992990723,-0.909796630859,10.165780249,1.0,0.0,0.0,0.0,1.0,0.0,0.0,0.0,1.0
1463922771941996023,305,1463922771930437896,,-2.24027109146,-7.56661653519,-60.991191864,0.0204179994762,1.0,0.0,0.0,0.0,1.0,0.0,0.0,0.0,1.0,0.365853667259,2.19512200356,-0.12195122242,1.0,0.0,0.0,0.0,1.0,0.0,0.0,0.0,1.0,1.0534486574,-0.986411083984,10.1466266357,1.0,0.0,0.0,0.0,1.0,0.0,0.0,0.0,1.0
1463922771967288363,306,1463922771951147130,,-2.20483136177,-7.52035045624,-61.0033302307,0.020386999473,1.0,0.0,0.0,0.0,1.0,0.0,0.0,0.0,1.0,0.487804889679,2.56097555161,0.0,1.0,0.0,0.0,0.0,1.0,0.0,0.0,0.0,1.0,0.900219824219,-0.976834277344,10.0652237793,1.0,0.0,0.0,0.0,1.0,0.0,0.0,0.0,1.0
1463922771977348893,307,1463922771971245586,,-2.17469573021,-7.47761964798,-61.0146179199,0.0204189997166,1.0,0.0,0.0,0.0,1.0,0.0,0.0,0.0,1.0,0.0609756112099,2.19512200356,0.0,1.0,0.0,0.0,0.0,1.0,0.0,0.0,0.0,1.0,0.876277807617,-0.92416184082,10.0748005859,1.0,0.0,0.0,0.0,1.0,0.0,0.0,0.0,1.0
1463922771998567084,308,1463922771992469818,,-2.13446927071,-7.42408704758,-61.0276832581,0.0208550002426,1.0,0.0,0.0,0.0,1.0,0.0,0.0,0.0,1.0,0.243902444839,2.25609779358,-0.0609756112099,1.0,0.0,0.0,0.0,1.0,0.0,0.0,0.0,1.0,0.804451757813,-0.871489404297,10.1514150391,1.0,0.0,0.0,0.0,1.0,0.0,0.0,0.0,1.0
1463922772019773816,309,1463922772012245411,,-2.10468411446,-7.38803768158,-61.03931427,0.0199669990689,1.0,0.0,0.0,0.0,1.0,0.0,0.0,0.0,1.0,0.12195122242,2.13414645195,-0.0609756112099,1.0,0.0,0.0,0.0,1.0,0.0,0.0,0.0,1.0,0.842758984375,-0.962469067383,9.99818613281,1.0,0.0,0.0,0.0,1.0,0.0,0.0,0.0,1.0
1463922772106740736,310,1463922772032639542,,-2.06797838211,-7.35387325287,-61.0481185913,0.0204370003194,1.0,0.0,0.0,0.0,1.0,0.0,0.0,0.0,1.0,0.0609756112099,1.95121955872,0.0609756112099,1.0,0.0,0.0,0.0,1.0,0.0,0.0,0.0,1.0,0.756567724609,-0.972045874023,10.0364933594,1.0,0.0,0.0,0.0,1.0,0.0,0.0,0.0,1.0
1463922772107315421,311,1463922772053417005,,-2.04144191742,-7.32063436508,-61.059261322,0.0204050000757,1.0,0.0,0.0,0.0,1.0,0.0,0.0,0.0,1.0,-0.0609756112099,2.37804889679,0.0,1.0,0.0,0.0,0.0,1.0,0.0,0.0,0.0,1.0,0.905008227539,-0.943315454102,9.94551369629,1.0,0.0,0.0,0.0,1.0,0.0,0.0,0.0,1.0
1463922772107666044,312,1463922772073626659,,-2.00314235687,-7.28962755203,-61.0741233826,0.0203949995339,1.0,0.0,0.0,0.0,1.0,0.0,0.0,0.0,1.0,0.12195122242,2.5,-0.18292683363,1.0,0.0,0.0,0.0,1.0,0.0,0.0,0.0,1.0,0.823605371094,-1.00077629395,10.046070166,1.0,0.0,0.0,0.0,1.0,0.0,0.0,0.0,1.0
1463922772108133907,313,1463922772094084071,,-1.96245157719,-7.26052761078,-61.0897064209,0.0204000007361,1.0,0.0,0.0,0.0,1.0,0.0,0.0,0.0,1.0,-0.243902444839,2.25609779358,-0.243902444839,1.0,0.0,0.0,0.0,1.0,0.0,0.0,0.0,1.0,0.751779321289,-0.948103857422,10.060435376,1.0,0.0,0.0,0.0,1.0,0.0,0.0,0.0,1.0
1463922772142814592,314,1463922772114664556,,-1.92066824436,-7.21336650848,-61.1089096069,0.0205990001559,1.0,0.0,0.0,0.0,1.0,0.0,0.0,0.0,1.0,-0.18292683363,2.43902444839,-0.365853667259,1.0,0.0,0.0,0.0,1.0,0.0,0.0,0.0,1.0,0.780509741211,-0.814028564453,10.2376062988,1.0,0.0,0.0,0.0,1.0,0.0,0.0,0.0,1.0
1463922772143203080,315,1463922772134946657,,-1.84702754021,-7.17658090591,-61.1158332825,0.0202350001782,1.0,0.0,0.0,0.0,1.0,0.0,0.0,0.0,1.0,0.12195122242,3.29268312454,0.304878056049,1.0,0.0,0.0,0.0,1.0,0.0,0.0,0.0,1.0,0.646434448242,-0.938527050781,10.180145459,1.0,0.0,0.0,0.0,1.0,0.0,0.0,0.0,1.0
1463922772167992193,316,1463922772155219799,,-1.80691695213,-7.13494491577,-61.1285057068,0.0203830003738,1.0,0.0,0.0,0.0,1.0,0.0,0.0,0.0,1.0,0.609756112099,2.25609779358,-0.12195122242,1.0,0.0,0.0,0.0,1.0,0.0,0.0,0.0,1.0,0.737414111328,-0.976834277344,10.1370498291,1.0,0.0,0.0,0.0,1.0,0.0,0.0,0.0,1.0
1463922772190470326,317,1463922772175527525,,-1.76399040222,-7.08694219589,-61.1383285522,0.0204269997776,1.0,0.0,0.0,0.0,1.0,0.0,0.0,0.0,1.0,0.18292683363,1.95121955872,0.0,1.0,0.0,0.0,0.0,1.0,0.0,0.0,0.0,1.0,0.651222851562,-0.833182177734,10.1035310059,1.0,0.0,0.0,0.0,1.0,0.0,0.0,0.0,1.0
1463922772205532240,318,1463922772196178999,,-1.73282170296,-7.04580259323,-61.1401634216,0.0204140003771,1.0,0.0,0.0,0.0,1.0,0.0,0.0,0.0,1.0,-0.12195122242,1.76829278469,0.365853667259,1.0,0.0,0.0,0.0,1.0,0.0,0.0,0.0,1.0,0.723048901367,-0.828393774414,10.1131078125,1.0,0.0,0.0,0.0,1.0,0.0,0.0,0.0,1.0
1463922772223672684,319,1463922772216567037,,-1.72917199135,-7.00880289078,-61.1413078308,0.0204310007393,1.0,0.0,0.0,0.0,1.0,0.0,0.0,0.0,1.0,-0.0609756112099,1.09756100178,0.304878056049,1.0,0.0,0.0,0.0,1.0,0.0,0.0,0.0,1.0,0.837970581055,-0.866701000977,10.0939541992,1.0,0.0,0.0,0.0,1.0,0.0,0.0,0.0,1.0
1463922772244595563,320,1463922772236671951,,-1.7365218401,-6.96717977524,-61.1488418579,0.0203649997711,1.0,0.0,0.0,0.0,1.0,0.0,0.0,0.0,1.0,0.0,0.670731723309,-0.0609756112099,1.0,0.0,0.0,0.0,1.0,0.0,0.0,0.0,1.0,0.847547387695,-0.828393774414,10.0652237793,1.0,0.0,0.0,0.0,1.0,0.0,0.0,0.0,1.0
1463922772268003953,321,1463922772257390560,,-1.74196243286,-6.9315700531,-61.1552963257,0.0204370003194,1.0,0.0,0.0,0.0,1.0,0.0,0.0,0.0,1.0,-0.304878056049,0.731707334518,0.0,1.0,0.0,0.0,0.0,1.0,0.0,0.0,0.0,1.0,0.852335791016,-0.828393774414,10.165780249,1.0,0.0,0.0,0.0,1.0,0.0,0.0,0.0,1.0
1463922772284447476,322,1463922772277551047,,-1.7492146492,-6.88659715652,-61.1584777832,0.0203719995916,1.0,0.0,0.0,0.0,1.0,0.0,0.0,0.0,1.0,0.0609756112099,1.40243899822,0.243902444839,1.0,0.0,0.0,0.0,1.0,0.0,0.0,0.0,1.0,0.986411083984,-0.794874951172,10.0700121826,1.0,0.0,0.0,0.0,1.0,0.0,0.0,0.0,1.0
1463922772305585250,323,1463922772297983460,,-1.74477899075,-6.84721231461,-61.1605491638,0.0204160008579,1.0,0.0,0.0,0.0,1.0,0.0,0.0,0.0,1.0,0.0,1.52439022064,0.304878056049,1.0,0.0,0.0,0.0,1.0,0.0,0.0,0.0,1.0,0.900219824219,-0.818816967773,9.98382092285,1.0,0.0,0.0,0.0,1.0,0.0,0.0,0.0,1.0
1463922772324267202,324,1463922772318660976,,-1.7425558567,-6.82589960098,-61.1672172546,0.020408000797,1.0,0.0,0.0,0.0,1.0,0.0,0.0,0.0,1.0,-0.243902444839,2.07317066193,0.12195122242,1.0,0.0,0.0,0.0,1.0,0.0,0.0,0.0,1.0,1.01514150391,-0.928950244141,10.0029745361,1.0,0.0,0.0,0.0,1.0,0.0,0.0,0.0,1.0
1463922772374328550,325,1463922772341005047,,-1.7235814333,-6.81483507156,-61.1686973572,0.0205429997295,1.0,0.0,0.0,0.0,1.0,0.0,0.0,0.0,1.0,-0.731707334518,2.5,0.426829278469,1.0,0.0,0.0,0.0,1.0,0.0,0.0,0.0,1.0,0.967257470703,-0.943315454102,10.1753570557,1.0,0.0,0.0,0.0,1.0,0.0,0.0,0.0,1.0
1463922772374974641,326,1463922772359091271,,-1.70582926273,-6.79295825958,-61.175907135,0.0202750004828,1.0,0.0,0.0,0.0,1.0,0.0,0.0,0.0,1.0,-0.548780500889,2.25609779358,0.12195122242,1.0,0.0,0.0,0.0,1.0,0.0,0.0,0.0,1.0,0.909796630859,-0.866701000977,10.046070166,1.0,0.0,0.0,0.0,1.0,0.0,0.0,0.0,1.0
1463922772400094325,327,1463922772379877797,,-1.71029829979,-6.78693151474,-61.1774024963,0.0204089991748,1.0,0.0,0.0,0.0,1.0,0.0,0.0,0.0,1.0,-0.792682945728,2.07317066193,0.365853667259,1.0,0.0,0.0,0.0,1.0,0.0,0.0,0.0,1.0,1.08217922346,-0.962469067383,10.0939541992,1.0,0.0,0.0,0.0,1.0,0.0,0.0,0.0,1.0
1463922772402954938,328,1463922772400243908,,-1.71135914326,-6.78727531433,-61.1829719543,0.0204039998353,1.0,0.0,0.0,0.0,1.0,0.0,0.0,0.0,1.0,-0.975609779358,2.25609779358,0.18292683363,1.0,0.0,0.0,0.0,1.0,0.0,0.0,0.0,1.0,1.07739082014,-0.981622680664,10.0508585693,1.0,0.0,0.0,0.0,1.0,0.0,0.0,0.0,1.0
1463922772468125805,329,1463922772420478405,,-1.70039844513,-6.79175281525,-61.1897888184,0.0203959997743,1.0,0.0,0.0,0.0,1.0,0.0,0.0,0.0,1.0,-0.975609779358,2.31707310677,0.12195122242,1.0,0.0,0.0,0.0,1.0,0.0,0.0,0.0,1.0,0.995987890625,-1.03429511719,10.2040874756,1.0,0.0,0.0,0.0,1.0,0.0,0.0,0.0,1.0
1463922772468824709,330,1463922772440981390,,-1.68287086487,-6.77525663376,-61.1948165894,0.0204869993031,1.0,0.0,0.0,0.0,1.0,0.0,0.0,0.0,1.0,-0.792682945728,2.37804889679,0.243902444839,1.0,0.0,0.0,0.0,1.0,0.0,0.0,0.0,1.0,0.948103857422,-0.881066210937,10.2040874756,1.0,0.0,0.0,0.0,1.0,0.0,0.0,0.0,1.0
1463922772469733246,331,1463922772461081096,,-1.6651506424,-6.7797794342,-61.1982879639,0.0203329995275,1.0,0.0,0.0,0.0,1.0,0.0,0.0,0.0,1.0,-1.15853655338,2.43902444839,0.304878056049,1.0,0.0,0.0,0.0,1.0,0.0,0.0,0.0,1.0,0.957680664062,-1.00077629395,10.2280294922,1.0,0.0,0.0,0.0,1.0,0.0,0.0,0.0,1.0
1463922772515098104,332,1463922772481810747,,-1.63863503933,-6.7706284523,-61.2024803162,0.0205029994249,1.0,0.0,0.0,0.0,1.0,0.0,0.0,0.0,1.0,-0.914634168148,2.62195134163,0.304878056049,1.0,0.0,0.0,0.0,1.0,0.0,0.0,0.0,1.0,0.909796630859,-0.92416184082,10.2280294922,1.0,0.0,0.0,0.0,1.0,0.0,0.0,0.0,1.0
1463922772515416020,333,1463922772502287534,,-1.61581981182,-6.7687869072,-61.2086639404,0.0203620009124,1.0,0.0,0.0,0.0,1.0,0.0,0.0,0.0,1.0,-0.792682945728,2.56097555161,0.18292683363,1.0,0.0,0.0,0.0,1.0,0.0,0.0,0.0,1.0,0.9193734375,-1.00556469727,10.180145459,1.0,0.0,0.0,0.0,1.0,0.0,0.0,0.0,1.0
1463922772533963493,334,1463922772522186199,,-1.59563863277,-6.76232051849,-61.2173271179,0.0203520003706,1.0,0.0,0.0,0.0,1.0,0.0,0.0,0.0,1.0,-0.853658556938,2.5,0.0609756112099,1.0,0.0,0.0,0.0,1.0,0.0,0.0,0.0,1.0,0.92416184082,-0.952892260742,10.1753570557,1.0,0.0,0.0,0.0,1.0,0.0,0.0,0.0,1.0
1463922772554281791,335,1463922772543619545,,-1.5762398243,-6.77318716049,-61.2293739319,0.0210890006274,1.0,0.0,0.0,0.0,1.0,0.0,0.0,0.0,1.0,-0.975609779358,2.37804889679,-0.12195122242,1.0,0.0,0.0,0.0,1.0,0.0,0.0,0.0,1.0,0.905008227539,-1.07739082014,10.1322614258,1.0,0.0,0.0,0.0,1.0,0.0,0.0,0.0,1.0
1463922772590932051,336,1463922772562979827,,-1.55319237709,-6.79062509537,-61.2299423218,0.0197340007871,1.0,0.0,0.0,0.0,1.0,0.0,0.0,0.0,1.0,-1.15853655338,2.43902444839,0.426829278469,1.0,0.0,0.0,0.0,1.0,0.0,0.0,0.0,1.0,0.876277807617,-1.10612116699,10.0939541992,1.0,0.0,0.0,0.0,1.0,0.0,0.0,0.0,1.0
1463922772591530903,337,1463922772584213799,,-1.54008293152,-6.79751777649,-61.2397346497,0.0210989993066,1.0,0.0,0.0,0.0,1.0,0.0,0.0,0.0,1.0,-0.609756112099,2.01219511032,-0.0609756112099,1.0,0.0,0.0,0.0,1.0,0.0,0.0,0.0,1.0,0.881066210937,-1.10612116699,10.060435376,1.0,0.0,0.0,0.0,1.0,0.0,0.0,0.0,1.0
1463922772606818181,338,1463922772603836840,,-1.52126204967,-6.81634426117,-61.2483596802,0.0197180006653,1.0,0.0,0.0,0.0,1.0,0.0,0.0,0.0,1.0,-0.853658556938,2.37804889679,0.0,1.0,0.0,0.0,0.0,1.0,0.0,0.0,0.0,1.0,0.890643017578,-1.18273554705,10.1131078125,1.0,0.0,0.0,0.0,1.0,0.0,0.0,0.0,1.0
1463922772626619346,339,1463922772624479512,,-1.49688398838,-6.82957935333,-61.2576675415,0.0204150006175,1.0,0.0,0.0,0.0,1.0,0.0,0.0,0.0,1.0,-0.670731723309,2.5,0.0,1.0,0.0,0.0,0.0,1.0,0.0,0.0,0.0,1.0,0.861912597656,-1.15879360352,10.0700121826,1.0,0.0,0.0,0.0,1.0,0.0,0.0,0.0,1.0
1463922772646013222,340,1463922772644563905,,-1.47395086288,-6.83540773392,-61.2653045654,0.0203930009156,1.0,0.0,0.0,0.0,1.0,0.0,0.0,0.0,1.0,-0.548780500889,2.25609779358,0.0609756112099,1.0,0.0,0.0,0.0,1.0,0.0,0.0,0.0,1.0,0.833182177734,-1.12527478027,10.1418382324,1.0,0.0,0.0,0.0,1.0,0.0,0.0,0.0,1.0
1463922772666994486,341,1463922772665099130,,-1.44127321243,-6.83469295502,-61.2781982422,0.0204189997166,1.0,0.0,0.0,0.0,1.0,0.0,0.0,0.0,1.0,-0.548780500889,2.31707310677,-0.18292683363,1.0,0.0,0.0,0.0,1.0,0.0,0.0,0.0,1.0,0.746990917969,-1.06781401349,10.1274730225,1.0,0.0,0.0,0.0,1.0,0.0,0.0,0.0,1.0
1463922772687780595,342,1463922772685621907,,-1.42707157135,-6.81910705566,-61.2833557129,0.0204179994762,1.0,0.0,0.0,0.0,1.0,0.0,0.0,0.0,1.0,-0.365853667259,2.07317066193,0.18292683363,1.0,0.0,0.0,0.0,1.0,0.0,0.0,0.0,1.0,0.881066210937,-0.981622680664,10.2807019287,1.0,0.0,0.0,0.0,1.0,0.0,0.0,0.0,1.0
1463922772707805093,343,1463922772706022080,,-1.41095554829,-6.82713985443,-61.2842712402,0.0203959997743,1.0,0.0,0.0,0.0,1.0,0.0,0.0,0.0,1.0,-0.548780500889,2.07317066193,0.365853667259,1.0,0.0,0.0,0.0,1.0,0.0,0.0,0.0,1.0,0.871489404297,-1.16358193377,10.3381627686,1.0,0.0,0.0,0.0,1.0,0.0,0.0,0.0,1.0
1463922772728621462,344,1463922772726152827,,-1.40344369411,-6.82478094101,-61.292514801,0.0204109996557,1.0,0.0,0.0,0.0,1.0,0.0,0.0,0.0,1.0,-0.426829278469,1.95121955872,0.0,1.0,0.0,0.0,0.0,1.0,0.0,0.0,0.0,1.0,0.905008227539,-1.08217922346,10.2184526855,1.0,0.0,0.0,0.0,1.0,0.0,0.0,0.0,1.0
1463922772748702002,345,1463922772746530709,,-1.40429389477,-6.81856489182,-61.2981910706,0.0203859992325,1.0,0.0,0.0,0.0,1.0,0.0,0.0,0.0,1.0,0.0,1.46341466904,0.0609756112099,1.0,0.0,0.0,0.0,1.0,0.0,0.0,0.0,1.0,0.881066210937,-1.11090957031,10.0939541992,1.0,0.0,0.0,0.0,1.0,0.0,0.0,0.0,1.0
1463922772769442538,346,1463922772766991194,,-1.42193973064,-6.80525302887,-61.3062858582,0.0204429998994,1.0,0.0,0.0,0.0,1.0,0.0,0.0,0.0,1.0,0.243902444839,1.40243899822,-0.0609756112099,1.0,0.0,0.0,0.0,1.0,0.0,0.0,0.0,1.0,1.02950671387,-1.10612116699,10.2280294922,1.0,0.0,0.0,0.0,1.0,0.0,0.0,0.0,1.0
1463922772790258907,347,1463922772787786418,,-1.4343123436,-6.78887605667,-61.3185539246,0.0203959997743,1.0,0.0,0.0,0.0,1.0,0.0,0.0,0.0,1.0,0.243902444839,1.58536589146,-0.243902444839,1.0,0.0,0.0,0.0,1.0,0.0,0.0,0.0,1.0,1.01514150391,-1.07739082014,10.2328178955,1.0,0.0,0.0,0.0,1.0,0.0,0.0,0.0,1.0
1463922772812690270,348,1463922772809725439,,-1.45590794086,-6.74993658066,-61.3297080994,0.0204520002007,1.0,0.0,0.0,0.0,1.0,0.0,0.0,0.0,1.0,0.304878056049,1.40243899822,-0.18292683363,1.0,0.0,0.0,0.0,1.0,0.0,0.0,0.0,1.0,1.06302561017,-0.881066210937,10.2040874756,1.0,0.0,0.0,0.0,1.0,0.0,0.0,0.0,1.0
1463922772832700497,349,1463922772829012804,,-1.48399806023,-6.72361564636,-61.3387565613,0.0203770007938,1.0,0.0,0.0,0.0,1.0,0.0,0.0,0.0,1.0,0.0,1.64634156227,-0.0609756112099,1.0,0.0,0.0,0.0,1.0,0.0,0.0,0.0,1.0,1.17315874041,-0.928950244141,10.1992990723,1.0,0.0,0.0,0.0,1.0,0.0,0.0,0.0,1.0
1463922772854927537,350,1463922772848799230,,-1.50754570961,-6.70349550247,-61.3500480652,0.0203840006143,1.0,0.0,0.0,0.0,1.0,0.0,0.0,0.0,1.0,0.0609756112099,1.64634156227,-0.18292683363,1.0,0.0,0.0,0.0,1.0,0.0,0.0,0.0,1.0,1.13485158691,-0.991199487305,10.1945106689,1.0,0.0,0.0,0.0,1.0,0.0,0.0,0.0,1.0
1463922772881514455,351,1463922772871256217,,-1.48873376846,-6.668841362,-61.3628425598,0.0204319991171,1.0,0.0,0.0,0.0,1.0,0.0,0.0,0.0,1.0,0.426829278469,2.19512200356,-0.18292683363,1.0,0.0,0.0,0.0,1.0,0.0,0.0,0.0,1.0,0.857124194336,-0.92416184082,10.1753570557,1.0,0.0,0.0,0.0,1.0,0.0,0.0,0.0,1.0
1463922772893126488,352,1463922772889520306,,-1.49376440048,-6.64028310776,-61.3756637573,0.0203850008547,1.0,0.0,0.0,0.0,1.0,0.0,0.0,0.0,1.0,0.609756112099,1.8292683363,-0.243902444839,1.0,0.0,0.0,0.0,1.0,0.0,0.0,0.0,1.0,0.995987890625,-1.00077629395,10.1370498291,1.0,0.0,0.0,0.0,1.0,0.0,0.0,0.0,1.0
1463922772914167492,353,1463922772909864177,,-1.49811458588,-6.59995985031,-61.3874206543,0.0203990004957,1.0,0.0,0.0,0.0,1.0,0.0,0.0,0.0,1.0,0.548780500889,1.76829278469,-0.18292683363,1.0,0.0,0.0,0.0,1.0,0.0,0.0,0.0,1.0,0.986411083984,-0.885854614258,10.2040874756,1.0,0.0,0.0,0.0,1.0,0.0,0.0,0.0,1.0
1463922772941826801,354,1463922772933402358,,-1.50464916229,-6.56466436386,-61.4003372192,0.0204140003771,1.0,0.0,0.0,0.0,1.0,0.0,0.0,0.0,1.0,0.365853667259,1.76829278469,-0.243902444839,1.0,0.0,0.0,0.0,1.0,0.0,0.0,0.0,1.0,1.00556469727,-0.890643017578,10.2040874756,1.0,0.0,0.0,0.0,1.0,0.0,0.0,0.0,1.0
1463922772964699047,355,1463922772950771242,,-1.50720989704,-6.53224468231,-61.4103240967,0.0204150006175,1.0,0.0,0.0,0.0,1.0,0.0,0.0,0.0,1.0,0.548780500889,2.19512200356,-0.0609756112099,1.0,0.0,0.0,0.0,1.0,0.0,0.0,0.0,1.0,1.04866025408,-0.938527050781,10.1609918457,1.0,0.0,0.0,0.0,1.0,0.0,0.0,0.0,1.0
1463922772977674877,356,1463922772975149210,,-1.49354624748,-6.50783252716,-61.4179153442,0.0232790000737,1.0,0.0,0.0,0.0,1.0,0.0,0.0,0.0,1.0,-0.365853667259,1.76829278469,0.0609756112099,1.0,0.0,0.0,0.0,1.0,0.0,0.0,0.0,1.0,0.828393774414,-0.847547387695,9.96466730957,1.0,0.0,0.0,0.0,1.0,0.0,0.0,0.0,1.0
1463922772995589071,357,1463922772991932003,,-1.47850775719,-6.48082590103,-61.4278144836,0.0175509992987,1.0,0.0,0.0,0.0,1.0,0.0,0.0,0.0,1.0,0.304878056049,2.31707310677,-0.12195122242,1.0,0.0,0.0,0.0,1.0,0.0,0.0,0.0,1.0,0.871489404297,-0.876277807617,9.96466730957,1.0,0.0,0.0,0.0,1.0,0.0,0.0,0.0,1.0
1463922773018570848,358,1463922773011945199,,-1.4439150095,-6.45576334,-61.4375610352,0.0203840006143,1.0,0.0,0.0,0.0,1.0,0.0,0.0,0.0,1.0,0.365853667259,2.74390244484,0.0,1.0,0.0,0.0,0.0,1.0,0.0,0.0,0.0,1.0,0.818816967773,-0.962469067383,10.2328178955,1.0,0.0,0.0,0.0,1.0,0.0,0.0,0.0,1.0
1463922773039302478,359,1463922773032405372,,-1.410145998,-6.42076635361,-61.4535903931,0.020433999598,1.0,0.0,0.0,0.0,1.0,0.0,0.0,0.0,1.0,0.365853667259,2.68292689323,-0.304878056049,1.0,0.0,0.0,0.0,1.0,0.0,0.0,0.0,1.0,0.790086547852,-0.857124194336,10.0700121826,1.0,0.0,0.0,0.0,1.0,0.0,0.0,0.0,1.0
1463922773065076430,360,1463922773053744447,,-1.36921823025,-6.38992881775,-61.4641990662,0.020850000903,1.0,0.0,0.0,0.0,1.0,0.0,0.0,0.0,1.0,0.18292683363,2.43902444839,-0.0609756112099,1.0,0.0,0.0,0.0,1.0,0.0,0.0,0.0,1.0,0.684741674805,-0.852335791016,9.99339772949,1.0,0.0,0.0,0.0,1.0,0.0,0.0,0.0,1.0
1463922773080588291,361,1463922773073312280,,-1.33537042141,-6.37398576736,-61.4765892029,0.0199549999088,1.0,0.0,0.0,0.0,1.0,0.0,0.0,0.0,1.0,0.0609756112099,2.5,-0.18292683363,1.0,0.0,0.0,0.0,1.0,0.0,0.0,0.0,1.0,0.727837304687,-0.938527050781,9.90720646973,1.0,0.0,0.0,0.0,1.0,0.0,0.0,0.0,1.0
1463922773099278784,362,1463922773094151775,,-1.29062449932,-6.36494064331,-61.4821357727,0.0204230006784,1.0,0.0,0.0,0.0,1.0,0.0,0.0,0.0,1.0,-0.18292683363,2.13414645195,0.12195122242,1.0,0.0,0.0,0.0,1.0,0.0,0.0,0.0,1.0,0.584185168546,-0.967257470703,10.0412817627,1.0,0.0,0.0,0.0,1.0,0.0,0.0,0.0,1.0
1463922773121016920,363,1463922773115694339,,-1.2677423954,-6.34760427475,-61.4883117676,0.0206530001014,1.0,0.0,0.0,0.0,1.0,0.0,0.0,0.0,1.0,-0.18292683363,1.76829278469,0.0609756112099,1.0,0.0,0.0,0.0,1.0,0.0,0.0,0.0,1.0,0.703895288086,-0.895431420898,10.0508585693,1.0,0.0,0.0,0.0,1.0,0.0,0.0,0.0,1.0
1463922773180224584,364,1463922773136902061,,-1.27095329762,-6.33076143265,-61.4863548279,0.0201660003513,1.0,0.0,0.0,0.0,1.0,0.0,0.0,0.0,1.0,-0.548780500889,1.40243899822,0.426829278469,1.0,0.0,0.0,0.0,1.0,0.0,0.0,0.0,1.0,0.871489404297,-0.828393774414,10.0843773926,1.0,0.0,0.0,0.0,1.0,0.0,0.0,0.0,1.0
1463922773182926239,365,1463922773157822961,,-1.27560305595,-6.30805921555,-61.4839515686,0.0204140003771,1.0,0.0,0.0,0.0,1.0,0.0,0.0,0.0,1.0,-0.365853667259,1.2195122242,0.426829278469,1.0,0.0,0.0,0.0,1.0,0.0,0.0,0.0,1.0,0.852335791016,-0.809240161133,10.0939541992,1.0,0.0,0.0,0.0,1.0,0.0,0.0,0.0,1.0
1463922773183001707,366,1463922773176978973,,-1.27775835991,-6.28725004196,-61.4845809937,0.020911000669,1.0,0.0,0.0,0.0,1.0,0.0,0.0,0.0,1.0,-0.487804889679,1.46341466904,0.304878056049,1.0,0.0,0.0,0.0,1.0,0.0,0.0,0.0,1.0,0.871489404297,-0.804451757813,10.0891657959,1.0,0.0,0.0,0.0,1.0,0.0,0.0,0.0,1.0
1463922773201480430,367,1463922773196604097,,-1.27346539497,-6.26868772507,-61.4813537598,0.0200200006366,1.0,0.0,0.0,0.0,1.0,0.0,0.0,0.0,1.0,-0.487804889679,1.40243899822,0.487804889679,1.0,0.0,0.0,0.0,1.0,0.0,0.0,0.0,1.0,0.804451757813,-0.809240161133,10.0508585693,1.0,0.0,0.0,0.0,1.0,0.0,0.0,0.0,1.0
1463922773222820704,368,1463922773216733907,,-1.28257501125,-6.25073719025,-61.482383728,0.0207439996302,1.0,0.0,0.0,0.0,1.0,0.0,0.0,0.0,1.0,-0.426829278469,1.70731711388,0.304878056049,1.0,0.0,0.0,0.0,1.0,0.0,0.0,0.0,1.0,0.972045874023,-0.828393774414,10.0508585693,1.0,0.0,0.0,0.0,1.0,0.0,0.0,0.0,1.0
1463922773245079775,369,1463922773238481574,,-1.2830581665,-6.24866580963,-61.4825172424,0.0199539996684,1.0,0.0,0.0,0.0,1.0,0.0,0.0,0.0,1.0,-0.487804889679,2.01219511032,0.365853667259,1.0,0.0,0.0,0.0,1.0,0.0,0.0,0.0,1.0,0.962469067383,-0.957680664062,10.1226846191,1.0,0.0,0.0,0.0,1.0,0.0,0.0,0.0,1.0
1463922773266624996,370,1463922773258328833,,-1.27358794212,-6.25797653198,-61.485244751,0.020408000797,1.0,0.0,0.0,0.0,1.0,0.0,0.0,0.0,1.0,-0.792682945728,2.68292689323,0.304878056049,1.0,0.0,0.0,0.0,1.0,0.0,0.0,0.0,1.0,0.981622680664,-0.991199487305,9.99339772949,1.0,0.0,0.0,0.0,1.0,0.0,0.0,0.0,1.0
1463922773285757830,371,1463922773278575726,,-1.26549088955,-6.26409292221,-61.4937171936,0.0204060003161,1.0,0.0,0.0,0.0,1.0,0.0,0.0,0.0,1.0,-0.792682945728,2.43902444839,0.0,1.0,0.0,0.0,0.0,1.0,0.0,0.0,0.0,1.0,0.948103857422,-0.972045874023,10.0556469727,1.0,0.0,0.0,0.0,1.0,0.0,0.0,0.0,1.0
1463922773313043391,372,1463922773299076680,,-1.25855314732,-6.26350927353,-61.4985580444,0.020447999239,1.0,0.0,0.0,0.0,1.0,0.0,0.0,0.0,1.0,-0.914634168148,2.37804889679,0.18292683363,1.0,0.0,0.0,0.0,1.0,0.0,0.0,0.0,1.0,0.948103857422,-0.890643017578,10.046070166,1.0,0.0,0.0,0.0,1.0,0.0,0.0,0.0,1.0
1463922773331385396,373,1463922773319075292,,-1.24839007854,-6.25906229019,-61.5032653809,0.020361000672,1.0,0.0,0.0,0.0,1.0,0.0,0.0,0.0,1.0,-0.792682945728,2.31707310677,0.18292683363,1.0,0.0,0.0,0.0,1.0,0.0,0.0,0.0,1.0,0.905008227539,-0.876277807617,10.0221281494,1.0,0.0,0.0,0.0,1.0,0.0,0.0,0.0,1.0
1463922773345917000,374,1463922773340006973,,-1.24367046356,-6.27291250229,-61.5075454712,0.0205230005085,1.0,0.0,0.0,0.0,1.0,0.0,0.0,0.0,1.0,-0.975609779358,2.25609779358,0.18292683363,1.0,0.0,0.0,0.0,1.0,0.0,0.0,0.0,1.0,0.957680664062,-1.01992990723,10.1945106689,1.0,0.0,0.0,0.0,1.0,0.0,0.0,0.0,1.0
1463922773367889719,375,1463922773359459130,,-1.23583221436,-6.28418779373,-61.5126190186,0.0207369998097,1.0,0.0,0.0,0.0,1.0,0.0,0.0,0.0,1.0,-0.914634168148,2.56097555161,0.18292683363,1.0,0.0,0.0,0.0,1.0,0.0,0.0,0.0,1.0,0.967257470703,-0.991199487305,10.0077629395,1.0,0.0,0.0,0.0,1.0,0.0,0.0,0.0,1.0
1463922773401594731,376,1463922773380694039,,-1.22417271137,-6.29981660843,-61.5210838318,0.0205569993705,1.0,0.0,0.0,0.0,1.0,0.0,0.0,0.0,1.0,-0.731707334518,2.5,0.0,1.0,0.0,0.0,0.0,1.0,0.0,0.0,0.0,1.0,0.92416184082,-1.07260241682,10.0748005859,1.0,0.0,0.0,0.0,1.0,0.0,0.0,0.0,1.0
1463922773431931268,377,1463922773399835311,,-1.22624230385,-6.3049788475,-61.526386261,0.0198539998382,1.0,0.0,0.0,0.0,1.0,0.0,0.0,0.0,1.0,-0.975609779358,2.13414645195,0.12195122242,1.0,0.0,0.0,0.0,1.0,0.0,0.0,0.0,1.0,0.981622680664,-0.943315454102,10.1035310059,1.0,0.0,0.0,0.0,1.0,0.0,0.0,0.0,1.0
1463922773433320064,378,1463922773420250016,,-1.22560095787,-6.32008981705,-61.5309333801,0.0203629992902,1.0,0.0,0.0,0.0,1.0,0.0,0.0,0.0,1.0,-0.914634168148,2.37804889679,0.18292683363,1.0,0.0,0.0,0.0,1.0,0.0,0.0,0.0,1.0,0.995987890625,-1.03429511719,10.0269165527,1.0,0.0,0.0,0.0,1.0,0.0,0.0,0.0,1.0
1463922773455566427,379,1463922773441239561,,-1.22556638718,-6.32296991348,-61.5317459106,0.0203990004957,1.0,0.0,0.0,0.0,1.0,0.0,0.0,0.0,1.0,-0.853658556938,2.25609779358,0.365853667259,1.0,0.0,0.0,0.0,1.0,0.0,0.0,0.0,1.0,0.995987890625,-0.952892260742,10.1705686523,1.0,0.0,0.0,0.0,1.0,0.0,0.0,0.0,1.0
1463922773474894418,380,1463922773461048383,,-1.22211146355,-6.32225704193,-61.5356864929,0.0204109996557,1.0,0.0,0.0,0.0,1.0,0.0,0.0,0.0,1.0,-0.914634168148,1.95121955872,0.18292683363,1.0,0.0,0.0,0.0,1.0,0.0,0.0,0.0,1.0,0.905008227539,-0.909796630859,10.1562034424,1.0,0.0,0.0,0.0,1.0,0.0,0.0,0.0,1.0
1463922773496625887,381,1463922773482789853,,-1.23106729984,-6.32792377472,-61.5352172852,0.020422000438,1.0,0.0,0.0,0.0,1.0,0.0,0.0,0.0,1.0,-0.914634168148,1.70731711388,0.365853667259,1.0,0.0,0.0,0.0,1.0,0.0,0.0,0.0,1.0,0.976834277344,-0.967257470703,10.1753570557,1.0,0.0,0.0,0.0,1.0,0.0,0.0,0.0,1.0
1463922773514023782,382,1463922773502846954,,-1.23869967461,-6.33819293976,-61.5377311707,0.0204070005566,1.0,0.0,0.0,0.0,1.0,0.0,0.0,0.0,1.0,-0.975609779358,1.40243899822,0.18292683363,1.0,0.0,0.0,0.0,1.0,0.0,0.0,0.0,1.0,0.909796630859,-1.00077629395,10.1945106689,1.0,0.0,0.0,0.0,1.0,0.0,0.0,0.0,1.0
1463922773539555131,383,1463922773523144107,,-1.24044561386,-6.35890960693,-61.5414199829,0.0204009991139,1.0,0.0,0.0,0.0,1.0,0.0,0.0,0.0,1.0,-1.03658533096,1.46341466904,0.12195122242,1.0,0.0,0.0,0.0,1.0,0.0,0.0,0.0,1.0,0.866701000977,-1.08217922346,10.165780249,1.0,0.0,0.0,0.0,1.0,0.0,0.0,0.0,1.0
1463922773611816541,384,1463922773542689961,,-1.25841963291,-6.36736869812,-61.5427703857,0.0204409994185,1.0,0.0,0.0,0.0,1.0,0.0,0.0,0.0,1.0,-0.670731723309,1.46341466904,0.243902444839,1.0,0.0,0.0,0.0,1.0,0.0,0.0,0.0,1.0,1.01514150391,-1.04387185076,10.180145459,1.0,0.0,0.0,0.0,1.0,0.0,0.0,0.0,1.0
1463922773612272997,385,1463922773563844662,,-1.25897192955,-6.39221000671,-61.5486946106,0.0210590008646,1.0,0.0,0.0,0.0,1.0,0.0,0.0,0.0,1.0,-1.09756100178,1.8292683363,0.0609756112099,1.0,0.0,0.0,0.0,1.0,0.0,0.0,0.0,1.0,0.92416184082,-1.10612116699,10.1609918457,1.0,0.0,0.0,0.0,1.0,0.0,0.0,0.0,1.0
1463922773612537319,386,1463922773586036390,,-1.2596142292,-6.41511201859,-61.5596504211,0.0201900005341,1.0,0.0,0.0,0.0,1.0,0.0,0.0,0.0,1.0,-0.548780500889,2.07317066193,-0.18292683363,1.0,0.0,0.0,0.0,1.0,0.0,0.0,0.0,1.0,0.952892260742,-1.1875240965,10.0269165527,1.0,0.0,0.0,0.0,1.0,0.0,0.0,0.0,1.0
1463922773612909973,387,1463922773603955376,,-1.2422593832,-6.44328069687,-61.5708122253,0.019938999787,1.0,0.0,0.0,0.0,1.0,0.0,0.0,0.0,1.0,-0.853658556938,2.74390244484,-0.12195122242,1.0,0.0,0.0,0.0,1.0,0.0,0.0,0.0,1.0,0.9193734375,-1.19710090314,10.1131078125,1.0,0.0,0.0,0.0,1.0,0.0,0.0,0.0,1.0
1463922773633368271,388,1463922773624365393,,-1.21879506111,-6.46157598495,-61.5814285278,0.0204119998962,1.0,0.0,0.0,0.0,1.0,0.0,0.0,0.0,1.0,-0.609756112099,2.86585378647,-0.0609756112099,1.0,0.0,0.0,0.0,1.0,0.0,0.0,0.0,1.0,0.885854614258,-1.14921679688,10.0843773926,1.0,0.0,0.0,0.0,1.0,0.0,0.0,0.0,1.0
1463922773657056243,389,1463922773644829785,,-1.19032633305,-6.46589565277,-61.5917472839,0.0204160008579,1.0,0.0,0.0,0.0,1.0,0.0,0.0,0.0,1.0,-0.426829278469,2.62195134163,-0.0609756112099,1.0,0.0,0.0,0.0,1.0,0.0,0.0,0.0,1.0,0.804451757813,-1.07739082014,10.2328178955,1.0,0.0,0.0,0.0,1.0,0.0,0.0,0.0,1.0
1463922773689520062,390,1463922773665247197,,-1.17320799828,-6.46981906891,-61.5998001099,0.0204019993544,1.0,0.0,0.0,0.0,1.0,0.0,0.0,0.0,1.0,-0.243902444839,2.74390244484,0.0609756112099,1.0,0.0,0.0,0.0,1.0,0.0,0.0,0.0,1.0,0.905008227539,-1.08217922346,9.99818613281,1.0,0.0,0.0,0.0,1.0,0.0,0.0,0.0,1.0
1463922773689705166,391,1463922773685592006,,-1.15494132042,-6.4786658287,-61.6095466614,0.0204150006175,1.0,0.0,0.0,0.0,1.0,0.0,0.0,0.0,1.0,-0.609756112099,2.37804889679,-0.0609756112099,1.0,0.0,0.0,0.0,1.0,0.0,0.0,0.0,1.0,0.833182177734,-1.07260241682,10.1083194092,1.0,0.0,0.0,0.0,1.0,0.0,0.0,0.0,1.0
1463922773721066490,392,1463922773708125295,,-1.15242731571,-6.48145055771,-61.6130561829,0.020422000438,1.0,0.0,0.0,0.0,1.0,0.0,0.0,0.0,1.0,-0.18292683363,2.37804889679,0.243902444839,1.0,0.0,0.0,0.0,1.0,0.0,0.0,0.0,1.0,0.972045874023,-1.09175595703,10.0652237793,1.0,0.0,0.0,0.0,1.0,0.0,0.0,0.0,1.0
1463922773733557270,393,1463922773728851978,,-1.16907250881,-6.46476268768,-61.6242141724,0.0228410009295,1.0,0.0,0.0,0.0,1.0,0.0,0.0,0.0,1.0,0.304878056049,1.8902438879,-0.12195122242,1.0,0.0,0.0,0.0,1.0,0.0,0.0,0.0,1.0,1.04387185076,-1.03908344744,10.2040874756,1.0,0.0,0.0,0.0,1.0,0.0,0.0,0.0,1.0
1463922773762216366,394,1463922773746935286,,-1.1800686121,-6.46175765991,-61.6323127747,0.0179769992828,1.0,0.0,0.0,0.0,1.0,0.0,0.0,0.0,1.0,-0.12195122242,1.58536589146,-0.12195122242,1.0,0.0,0.0,0.0,1.0,0.0,0.0,0.0,1.0,0.972045874023,-1.06302561017,10.2232410889,1.0,0.0,0.0,0.0,1.0,0.0,0.0,0.0,1.0
1463922773778893535,395,1463922773767195772,,-1.19696569443,-6.45468997955,-61.6400260925,0.0204050000757,1.0,0.0,0.0,0.0,1.0,0.0,0.0,0.0,1.0,-0.0609756112099,1.46341466904,-0.0609756112099,1.0,0.0,0.0,0.0,1.0,0.0,0.0,0.0,1.0,0.991199487305,-1.03908344744,10.2088758789,1.0,0.0,0.0,0.0,1.0,0.0,0.0,0.0,1.0
1463922773813757292,396,1463922773788238286,,-1.21889436245,-6.4333820343,-61.6438674927,0.0203760005534,1.0,0.0,0.0,0.0,1.0,0.0,0.0,0.0,1.0,0.365853667259,1.34146344662,0.12195122242,1.0,0.0,0.0,0.0,1.0,0.0,0.0,0.0,1.0,1.01514150391,-0.981622680664,10.1514150391,1.0,0.0,0.0,0.0,1.0,0.0,0.0,0.0,1.0
1463922773814191509,397,1463922773809797517,,-1.24372720718,-6.40767097473,-61.6511878967,0.0204179994762,1.0,0.0,0.0,0.0,1.0,0.0,0.0,0.0,1.0,0.18292683363,1.70731711388,0.0,1.0,0.0,0.0,0.0,1.0,0.0,0.0,0.0,1.0,1.10612116699,-0.905008227539,10.1370498291,1.0,0.0,0.0,0.0,1.0,0.0,0.0,0.0,1.0
1463922773833942414,398,1463922773828756707,,-1.27354097366,-6.38969945908,-61.6644592285,0.0204300004989,1.0,0.0,0.0,0.0,1.0,0.0,0.0,0.0,1.0,0.0,1.64634156227,-0.304878056049,1.0,0.0,0.0,0.0,1.0,0.0,0.0,0.0,1.0,1.13963999023,-0.938527050781,10.1514150391,1.0,0.0,0.0,0.0,1.0,0.0,0.0,0.0,1.0
1463922773850897602,399,1463922773848896569,,-1.30573546886,-6.37357664108,-61.6729316711,0.0204099994153,1.0,0.0,0.0,0.0,1.0,0.0,0.0,0.0,1.0,0.12195122242,1.76829278469,-0.0609756112099,1.0,0.0,0.0,0.0,1.0,0.0,0.0,0.0,1.0,1.1875240965,-0.967257470703,10.0939541992,1.0,0.0,0.0,0.0,1.0,0.0,0.0,0.0,1.0
1463922773871821106,400,1463922773869269554,,-1.3208616972,-6.35367631912,-61.6814727783,0.0203970000148,1.0,0.0,0.0,0.0,1.0,0.0,0.0,0.0,1.0,0.426829278469,1.8292683363,-0.0609756112099,1.0,0.0,0.0,0.0,1.0,0.0,0.0,0.0,1.0,1.06302561017,-0.995987890625,10.1945106689,1.0,0.0,0.0,0.0,1.0,0.0,0.0,0.0,1.0
1463922773926843423,401,1463922773889678894,,-1.32580721378,-6.34016132355,-61.6831130981,0.0204019993544,1.0,0.0,0.0,0.0,1.0,0.0,0.0,0.0,1.0,0.12195122242,2.07317066193,0.304878056049,1.0,0.0,0.0,0.0,1.0,0.0,0.0,0.0,1.0,1.02471831055,-0.991199487305,10.180145459,1.0,0.0,0.0,0.0,1.0,0.0,0.0,0.0,1.0
1463922773927154828,402,1463922773910047245,,-1.32701432705,-6.31678342819,-61.6891670227,0.0204089991748,1.0,0.0,0.0,0.0,1.0,0.0,0.0,0.0,1.0,-0.0609756112099,2.25609779358,0.12195122242,1.0,0.0,0.0,0.0,1.0,0.0,0.0,0.0,1.0,1.02950671387,-0.876277807617,10.2711251221,1.0,0.0,0.0,0.0,1.0,0.0,0.0,0.0,1.0
1463922773935636979,403,1463922773930535178,,-1.31881701946,-6.2906293869,-61.6959991455,0.0204029995948,1.0,0.0,0.0,0.0,1.0,0.0,0.0,0.0,1.0,0.12195122242,2.62195134163,0.12195122242,1.0,0.0,0.0,0.0,1.0,0.0,0.0,0.0,1.0,0.995987890625,-0.866701000977,10.1083194092,1.0,0.0,0.0,0.0,1.0,0.0,0.0,0.0,1.0
1463922773960661664,404,1463922773950945976,,-1.31649565697,-6.27830410004,-61.7056121826,0.0204130001366,1.0,0.0,0.0,0.0,1.0,0.0,0.0,0.0,1.0,-0.12195122242,2.31707310677,-0.0609756112099,1.0,0.0,0.0,0.0,1.0,0.0,0.0,0.0,1.0,0.991199487305,-0.943315454102,10.1322614258,1.0,0.0,0.0,0.0,1.0,0.0,0.0,0.0,1.0
1463922773982498237,405,1463922773975203112,,-1.29042983055,-6.27691888809,-61.7047920227,0.0206339992583,1.0,0.0,0.0,0.0,1.0,0.0,0.0,0.0,1.0,-0.792682945728,2.62195134163,0.487804889679,1.0,0.0,0.0,0.0,1.0,0.0,0.0,0.0,1.0,0.847547387695,-0.91458503418,10.1274730225,1.0,0.0,0.0,0.0,1.0,0.0,0.0,0.0,1.0
1463922773997925359,406,1463922773993628971,,-1.27022361755,-6.27416801453,-61.7030067444,0.0201820004731,1.0,0.0,0.0,0.0,1.0,0.0,0.0,0.0,1.0,-0.670731723309,2.19512200356,0.487804889679,1.0,0.0,0.0,0.0,1.0,0.0,0.0,0.0,1.0,0.814028564453,-0.92416184082,10.1322614258,1.0,0.0,0.0,0.0,1.0,0.0,0.0,0.0,1.0
1463922774015116066,407,1463922774013781124,,-1.23200559616,-6.2591047287,-61.7152557373,0.0204670000821,1.0,0.0,0.0,0.0,1.0,0.0,0.0,0.0,1.0,-0.12195122242,2.92682933807,-0.12195122242,1.0,0.0,0.0,0.0,1.0,0.0,0.0,0.0,1.0,0.77093293457,-0.91458503418,10.1035310059,1.0,0.0,0.0,0.0,1.0,0.0,0.0,0.0,1.0
1463922774036731130,408,1463922774033673747,,-1.19498980045,-6.26659870148,-61.7316513062,0.0204729996622,1.0,0.0,0.0,0.0,1.0,0.0,0.0,0.0,1.0,-0.0609756112099,2.80487799644,-0.365853667259,1.0,0.0,0.0,0.0,1.0,0.0,0.0,0.0,1.0,0.732625708008,-1.09654436035,9.86889924316,1.0,0.0,0.0,0.0,1.0,0.0,0.0,0.0,1.0
1463922774075874088,409,1463922774053240278,,-1.13139343262,-6.27471828461,-61.740436554,0.0203230008483,1.0,0.0,0.0,0.0,1.0,0.0,0.0,0.0,1.0,0.12195122242,3.90243911743,0.12195122242,1.0,0.0,0.0,0.0,1.0,0.0,0.0,0.0,1.0,0.718260498047,-1.17315874041,10.2040874756,1.0,0.0,0.0,0.0,1.0,0.0,0.0,0.0,1.0
1463922774075927421,410,1463922774073716337,,-1.08699393272,-6.24873685837,-61.7523193359,0.0203959997743,1.0,0.0,0.0,0.0,1.0,0.0,0.0,0.0,1.0,0.365853667259,3.35365867615,-0.0609756112099,1.0,0.0,0.0,0.0,1.0,0.0,0.0,0.0,1.0,0.751779321289,-0.885854614258,9.88805285645,1.0,0.0,0.0,0.0,1.0,0.0,0.0,0.0,1.0
1463922774126296060,411,1463922774101430072,,-1.042304039,-6.22638225555,-61.7636642456,0.0237789992243,1.0,0.0,0.0,0.0,1.0,0.0,0.0,0.0,1.0,-0.609756112099,3.96341490746,0.12195122242,1.0,0.0,0.0,0.0,1.0,0.0,0.0,0.0,1.0,0.943315454102,-0.799663354492,10.299855542,1.0,0.0,0.0,0.0,1.0,0.0,0.0,0.0,1.0
1463922774126746943,412,1463922774114587360,,-1.00784897804,-6.20589590073,-61.7713813782,0.0171450003982,1.0,0.0,0.0,0.0,1.0,0.0,0.0,0.0,1.0,-0.12195122242,2.68292689323,0.0,1.0,0.0,0.0,0.0,1.0,0.0,0.0,0.0,1.0,0.656011254883,-0.814028564453,9.99818613281,1.0,0.0,0.0,0.0,1.0,0.0,0.0,0.0,1.0
1463922774142879999,413,1463922774134746232,,-0.969818115234,-6.19322729111,-61.7730712891,0.0202719997615,1.0,0.0,0.0,0.0,1.0,0.0,0.0,0.0,1.0,-0.609756112099,2.13414645195,0.304878056049,1.0,0.0,0.0,0.0,1.0,0.0,0.0,0.0,1.0,0.588973571866,-0.833182177734,10.1083194092,1.0,0.0,0.0,0.0,1.0,0.0,0.0,0.0,1.0
1463922774158092642,414,1463922774155129530,,-0.976724684238,-6.1963801384,-61.7759094238,0.0204160008579,1.0,0.0,0.0,0.0,1.0,0.0,0.0,0.0,1.0,-0.548780500889,0.0,0.0,1.0,0.0,0.0,0.0,1.0,0.0,0.0,0.0,1.0,0.579396801758,-0.957680664062,9.8545340332,1.0,0.0,0.0,0.0,1.0,0.0,0.0,0.0,1.0
1463922774183227275,415,1463922774175510068,,-1.00948441029,-6.19306564331,-61.7600517273,0.0204130001366,1.0,0.0,0.0,0.0,1.0,0.0,0.0,0.0,1.0,-0.18292683363,-0.609756112099,0.853658556938,1.0,0.0,0.0,0.0,1.0,0.0,0.0,0.0,1.0,0.732625708008,-0.991199487305,10.1322614258,1.0,0.0,0.0,0.0,1.0,0.0,0.0,0.0,1.0
1463922774204768276,416,1463922774195919043,,-1.09309375286,-6.16912603378,-61.7432670593,0.0204179994762,1.0,0.0,0.0,0.0,1.0,0.0,0.0,0.0,1.0,0.18292683363,-1.70731711388,0.792682945728,1.0,0.0,0.0,0.0,1.0,0.0,0.0,0.0,1.0,0.972045874023,-0.857124194336,9.94551369629,1.0,0.0,0.0,0.0,1.0,0.0,0.0,0.0,1.0
1463922774227883698,417,1463922774216308487,,-1.16099214554,-6.13337659836,-61.7411880493,0.0203939992934,1.0,0.0,0.0,0.0,1.0,0.0,0.0,0.0,1.0,-0.304878056049,-0.304878056049,0.243902444839,1.0,0.0,0.0,0.0,1.0,0.0,0.0,0.0,1.0,1.12527478027,-0.689530078125,10.3046439453,1.0,0.0,0.0,0.0,1.0,0.0,0.0,0.0,1.0
1463922774239658440,418,1463922774236638036,,-1.18789935112,-6.11474180222,-61.7401542664,0.0204009991139,1.0,0.0,0.0,0.0,1.0,0.0,0.0,0.0,1.0,-0.914634168148,1.34146344662,0.365853667259,1.0,0.0,0.0,0.0,1.0,0.0,0.0,0.0,1.0,1.0534486574,-0.713472094727,10.1322614258,1.0,0.0,0.0,0.0,1.0,0.0,0.0,0.0,1.0
1463922774260884755,419,1463922774257126490,,-1.18503975868,-6.12175130844,-61.752696991,0.0204310007393,1.0,0.0,0.0,0.0,1.0,0.0,0.0,0.0,1.0,-0.731707334518,3.29268312454,-0.12195122242,1.0,0.0,0.0,0.0,1.0,0.0,0.0,0.0,1.0,1.1540052002,-0.986411083984,10.2711251221,1.0,0.0,0.0,0.0,1.0,0.0,0.0,0.0,1.0
1463922774290194630,420,1463922774277553903,,-1.15494799614,-6.13317251205,-61.7643203735,0.0204150006175,1.0,0.0,0.0,0.0,1.0,0.0,0.0,0.0,1.0,-0.548780500889,4.08536577225,0.0,1.0,0.0,0.0,0.0,1.0,0.0,0.0,0.0,1.0,1.02950671387,-1.03429511719,10.0125513428,1.0,0.0,0.0,0.0,1.0,0.0,0.0,0.0,1.0
1463922774300126723,421,1463922774298141835,,-1.0877559185,-6.14156770706,-61.7795791626,0.0203750003129,1.0,0.0,0.0,0.0,1.0,0.0,0.0,0.0,1.0,-0.426829278469,5.18292713165,-0.0609756112099,1.0,0.0,0.0,0.0,1.0,0.0,0.0,0.0,1.0,0.905008227539,-1.04866025408,10.1705686523,1.0,0.0,0.0,0.0,1.0,0.0,0.0,0.0,1.0
1463922774330360448,422,1463922774318320916,,-1.03280234337,-6.13002634048,-61.7917366028,0.0204269997776,1.0,0.0,0.0,0.0,1.0,0.0,0.0,0.0,1.0,-0.365853667259,4.14634132385,0.0,1.0,0.0,0.0,0.0,1.0,0.0,0.0,0.0,1.0,0.814028564453,-0.881066210937,10.1466266357,1.0,0.0,0.0,0.0,1.0,0.0,0.0,0.0,1.0
1463922774351596190,423,1463922774338692443,,-0.992811083794,-6.11246871948,-61.8051071167,0.0205000005662,1.0,0.0,0.0,0.0,1.0,0.0,0.0,0.0,1.0,-0.670731723309,3.47560977936,-0.12195122242,1.0,0.0,0.0,0.0,1.0,0.0,0.0,0.0,1.0,0.818816967773,-0.775721337891,10.2040874756,1.0,0.0,0.0,0.0,1.0,0.0,0.0,0.0,1.0
1463922774368951272,424,1463922774360536204,,-0.976359188557,-6.10779237747,-61.8159370422,0.0202929992229,1.0,0.0,0.0,0.0,1.0,0.0,0.0,0.0,1.0,-1.09756100178,2.98780488968,-0.0609756112099,1.0,0.0,0.0,0.0,1.0,0.0,0.0,0.0,1.0,0.933738647461,-0.809240161133,10.2184526855,1.0,0.0,0.0,0.0,1.0,0.0,0.0,0.0,1.0
1463922774388767073,425,1463922774379452269,,-0.962081193924,-6.11036300659,-61.8198890686,0.020428000018,1.0,0.0,0.0,0.0,1.0,0.0,0.0,0.0,1.0,-0.731707334518,2.19512200356,0.18292683363,1.0,0.0,0.0,0.0,1.0,0.0,0.0,0.0,1.0,0.804451757813,-0.928950244141,10.1083194092,1.0,0.0,0.0,0.0,1.0,0.0,0.0,0.0,1.0
1463922774406571736,426,1463922774399960775,,-0.956374406815,-6.13291215897,-61.8268013,0.0204109996557,1.0,0.0,0.0,0.0,1.0,0.0,0.0,0.0,1.0,-0.365853667259,2.07317066193,0.0,1.0,0.0,0.0,0.0,1.0,0.0,0.0,0.0,1.0,0.847547387695,-1.16358193377,10.0269165527,1.0,0.0,0.0,0.0,1.0,0.0,0.0,0.0,1.0
1463922774429608617,427,1463922774420262720,,-0.961523830891,-6.16123819351,-61.8341712952,0.0203939992934,1.0,0.0,0.0,0.0,1.0,0.0,0.0,0.0,1.0,-0.670731723309,2.25609779358,0.0,1.0,0.0,0.0,0.0,1.0,0.0,0.0,0.0,1.0,0.986411083984,-1.17794714373,10.1466266357,1.0,0.0,0.0,0.0,1.0,0.0,0.0,0.0,1.0
1463922774442817467,428,1463922774440686070,,-0.954930245876,-6.15691328049,-61.8502731323,0.0204039998353,1.0,0.0,0.0,0.0,1.0,0.0,0.0,0.0,1.0,-0.0609756112099,2.68292689323,-0.365853667259,1.0,0.0,0.0,0.0,1.0,0.0,0.0,0.0,1.0,0.943315454102,-0.995987890625,10.0652237793,1.0,0.0,0.0,0.0,1.0,0.0,0.0,0.0,1.0
1463922774465572005,429,1463922774461094889,,-0.93281263113,-6.14662981033,-61.8722763062,0.0204160008579,1.0,0.0,0.0,0.0,1.0,0.0,0.0,0.0,1.0,-0.914634168148,2.92682933807,-0.609756112099,1.0,0.0,0.0,0.0,1.0,0.0,0.0,0.0,1.0,0.857124194336,-0.804451757813,10.2423947021,1.0,0.0,0.0,0.0,1.0,0.0,0.0,0.0,1.0
1463922774483073076,430,1463922774481566103,,-0.900510668755,-6.14223718643,-61.8877601624,0.0204349998385,1.0,0.0,0.0,0.0,1.0,0.0,0.0,0.0,1.0,-0.670731723309,2.86585378647,-0.304878056049,1.0,0.0,0.0,0.0,1.0,0.0,0.0,0.0,1.0,0.746990917969,-0.885854614258,10.0939541992,1.0,0.0,0.0,0.0,1.0,0.0,0.0,0.0,1.0
1463922774512531544,431,1463922774502180078,,-0.887503743172,-6.11584186554,-61.9106254578,0.020361000672,1.0,0.0,0.0,0.0,1.0,0.0,0.0,0.0,1.0,-0.243902444839,3.35365867615,-0.609756112099,1.0,0.0,0.0,0.0,1.0,0.0,0.0,0.0,1.0,0.995987890625,-0.77093293457,10.1370498291,1.0,0.0,0.0,0.0,1.0,0.0,0.0,0.0,1.0
1463922774523804412,432,1463922774522232440,,-0.817368507385,-6.04949855804,-61.946434021,0.0204169992357,1.0,0.0,0.0,0.0,1.0,0.0,0.0,0.0,1.0,-1.52439022064,5.42682933807,-0.975609779358,1.0,0.0,0.0,0.0,1.0,0.0,0.0,0.0,1.0,0.876277807617,-0.191536132812,10.4482960449,1.0,0.0,0.0,0.0,1.0,0.0,0.0,0.0,1.0
1463922774549944196,433,1463922774542788185,,-0.764126777649,-6.12885522842,-61.9832038879,0.0204230006784,1.0,0.0,0.0,0.0,1.0,0.0,0.0,0.0,1.0,-2.74390244484,3.90243911743,-1.2804877758,1.0,0.0,0.0,0.0,1.0,0.0,0.0,0.0,1.0,0.737414111328,-1.28329208984,10.4722380615,1.0,0.0,0.0,0.0,1.0,0.0,0.0,0.0,1.0
1463922774565537619,434,1463922774563004297,,-0.749813973904,-6.26818275452,-62.0407028198,0.0204070005566,1.0,0.0,0.0,0.0,1.0,0.0,0.0,0.0,1.0,-0.731707334518,0.365853667259,-2.74390244484,1.0,0.0,0.0,0.0,1.0,0.0,0.0,0.0,1.0,0.339976635742,-1.89620771484,8.84896933594,1.0,0.0,0.0,0.0,1.0,0.0,0.0,0.0,1.0
1463922774588010075,435,1463922774583917801,,-0.732051193714,-6.26959085464,-62.0130004883,0.0204300004989,1.0,0.0,0.0,0.0,1.0,0.0,0.0,0.0,1.0,0.304878056049,3.04878044128,1.8292683363,1.0,0.0,0.0,0.0,1.0,0.0,0.0,0.0,1.0,1.00556469727,-1.23540805664,11.0420580566,1.0,0.0,0.0,0.0,1.0,0.0,0.0,0.0,1.0
1463922774620958059,436,1463922774605664375,,-0.706085920334,-6.26353263855,-62.065448761,0.0218359995633,1.0,0.0,0.0,0.0,1.0,0.0,0.0,0.0,1.0,-2.07317066193,-0.0609756112099,-2.25609779358,1.0,0.0,0.0,0.0,1.0,0.0,0.0,0.0,1.0,0.215478149414,-0.632069238281,9.83538041992,1.0,0.0,0.0,0.0,1.0,0.0,0.0,0.0,1.0
1463922774638921993,437,1463922774624974501,,-0.764816939831,-6.28792190552,-62.1266899109,0.0194409992546,1.0,0.0,0.0,0.0,1.0,0.0,0.0,0.0,1.0,-1.03658533096,0.975609779358,-2.92682933807,1.0,0.0,0.0,0.0,1.0,0.0,0.0,0.0,1.0,1.1540052002,-1.11569797363,10.1370498291,1.0,0.0,0.0,0.0,1.0,0.0,0.0,0.0,1.0
1463922774647135552,438,1463922774644551865,,-0.711062312126,-6.30542993546,-62.1278457642,0.0199069995433,1.0,0.0,0.0,0.0,1.0,0.0,0.0,0.0,1.0,-0.670731723309,0.426829278469,0.12195122242,1.0,0.0,0.0,0.0,1.0,0.0,0.0,0.0,1.0,0.0861912597656,-1.0534486574,9.61032604839,1.0,0.0,0.0,0.0,1.0,0.0,0.0,0.0,1.0
1463922774669300509,439,1463922774664957142,,-0.763651192188,-6.32634019852,-62.1413497925,0.0204060003161,1.0,0.0,0.0,0.0,1.0,0.0,0.0,0.0,1.0,-1.09756100178,-1.8292683363,-0.731707334518,1.0,0.0,0.0,0.0,1.0,0.0,0.0,0.0,1.0,0.612915625,-1.06781401349,10.165780249,1.0,0.0,0.0,0.0,1.0,0.0,0.0,0.0,1.0
1463922774688482875,440,1463922774685350909,,-0.968253791332,-6.4026222229,-62.0892028809,0.0204000007361,1.0,0.0,0.0,0.0,1.0,0.0,0.0,0.0,1.0,-0.12195122242,-8.47560977936,1.70731711388,1.0,0.0,0.0,0.0,1.0,0.0,0.0,0.0,1.0,0.775721337891,-1.61848032227,9.45230756977,1.0,0.0,0.0,0.0,1.0,0.0,0.0,0.0,1.0
1463922774722638718,441,1463922774707763001,,-1.13101911545,-6.47118091583,-61.9669151306,0.0204109996557,1.0,0.0,0.0,0.0,1.0,0.0,0.0,0.0,1.0,-0.853658556938,-4.51219558716,5.60975599289,1.0,0.0,0.0,0.0,1.0,0.0,0.0,0.0,1.0,1.35990654297,-1.61369191895,10.673351001,1.0,0.0,0.0,0.0,1.0,0.0,0.0,0.0,1.0
1463922774731221755,442,1463922774726399327,,-1.32539319992,-6.41030168533,-61.9439964294,0.0204089991748,1.0,0.0,0.0,0.0,1.0,0.0,0.0,0.0,1.0,0.548780500889,-5.24390268326,0.731707334518,1.0,0.0,0.0,0.0,1.0,0.0,0.0,0.0,1.0,1.28808049316,-0.622492431641,9.59117243511,1.0,0.0,0.0,0.0,1.0,0.0,0.0,0.0,1.0
1463922774749304281,443,1463922774746683407,,-1.49946582317,-6.3839597702,-61.9821281433,0.0204150006175,1.0,0.0,0.0,0.0,1.0,0.0,0.0,0.0,1.0,0.12195122242,-1.64634156227,-1.8902438879,1.0,0.0,0.0,0.0,1.0,0.0,0.0,0.0,1.0,1.97282216797,-0.962469067383,10.9798088135,1.0,0.0,0.0,0.0,1.0,0.0,0.0,0.0,1.0
1463922774769647736,444,1463922774767009779,,-1.53526699543,-6.42855834961,-62.01304245,0.0203990004957,1.0,0.0,0.0,0.0,1.0,0.0,0.0,0.0,1.0,-1.52439022064,2.13414645195,-1.15853655338,1.0,0.0,0.0,0.0,1.0,0.0,0.0,0.0,1.0,1.32638771973,-1.23061965332,10.2376062988,1.0,0.0,0.0,0.0,1.0,0.0,0.0,0.0,1.0
1463922774797612565,445,1463922774789891816,,-1.65023124218,-6.49391889572,-62.0102500916,0.0219260007143,1.0,0.0,0.0,0.0,1.0,0.0,0.0,0.0,1.0,-2.19512200356,0.487804889679,0.304878056049,1.0,0.0,0.0,0.0,1.0,0.0,0.0,0.0,1.0,1.68551796875,-1.23540805664,10.0843773926,1.0,0.0,0.0,0.0,1.0,0.0,0.0,0.0,1.0
1463922774842997162,446,1463922774818201799,,-1.55648314953,-6.48788738251,-61.9797019958,0.0190650001168,1.0,0.0,0.0,0.0,1.0,0.0,0.0,0.0,1.0,1.15853655338,8.29268264771,2.68292689323,1.0,0.0,0.0,0.0,1.0,0.0,0.0,0.0,1.0,1.29286889648,-1.23061965332,9.93593688965,1.0,0.0,0.0,0.0,1.0,0.0,0.0,0.0,1.0
1463922774843588358,447,1463922774830233363,,-1.51301860809,-6.44985818863,-62.0183181763,0.0221190005541,1.0,0.0,0.0,0.0,1.0,0.0,0.0,0.0,1.0,1.95121955872,7.19512224197,-0.792682945728,1.0,0.0,0.0,0.0,1.0,0.0,0.0,0.0,1.0,1.58974990234,-1.17315874041,10.2567599121,1.0,0.0,0.0,0.0,1.0,0.0,0.0,0.0,1.0
1463922774867651744,448,1463922774851311450,,-1.3176882267,-6.41331863403,-62.0969238281,0.0185339991003,1.0,0.0,0.0,0.0,1.0,0.0,0.0,0.0,1.0,1.34146344662,16.8292694092,-2.19512200356,1.0,0.0,0.0,0.0,1.0,0.0,0.0,0.0,1.0,1.75734401855,-1.02950671387,10.3812583984,1.0,0.0,0.0,0.0,1.0,0.0,0.0,0.0,1.0
1463922774876167645,449,1463922774869155748,,-0.955075621605,-6.36422872543,-62.1803703308,0.0204130001366,1.0,0.0,0.0,0.0,1.0,0.0,0.0,0.0,1.0,0.914634168148,18.1707305908,-1.8902438879,1.0,0.0,0.0,0.0,1.0,0.0,0.0,0.0,1.0,0.603338854892,-0.833182177734,10.046070166,1.0,0.0,0.0,0.0,1.0,0.0,0.0,0.0,1.0
1463922774906610588,450,1463922774890453418,,-0.660608768463,-6.34621572495,-62.2583694458,0.0212060008198,1.0,0.0,0.0,0.0,1.0,0.0,0.0,0.0,1.0,-0.487804889679,11.4634151459,-2.25609779358,1.0,0.0,0.0,0.0,1.0,0.0,0.0,0.0,1.0,0.0383072265625,-0.885854614258,10.5009684814,1.0,0.0,0.0,0.0,1.0,0.0,0.0,0.0,1.0
1463922775004755898,451,1463922774910002449,,-0.61583262682,-6.2887544632,-62.2927398682,0.0196160003543,1.0,0.0,0.0,0.0,1.0,0.0,0.0,0.0,1.0,-0.365853667259,1.64634156227,-1.40243899822,1.0,0.0,0.0,0.0,1.0,0.0,0.0,0.0,1.0,0.31124621582,-0.45968671875,9.4570959731,1.0,0.0,0.0,0.0,1.0,0.0,0.0,0.0,1.0
1463922775005468968,452,1463922774930526736,,-0.598257124424,-6.29538488388,-62.2619514465,0.0204160008579,1.0,0.0,0.0,0.0,1.0,0.0,0.0,0.0,1.0,-0.670731723309,1.58536589146,1.8292683363,1.0,0.0,0.0,0.0,1.0,0.0,0.0,0.0,1.0,0.679953271484,-1.07739082014,10.8361567139,1.0,0.0,0.0,0.0,1.0,0.0,0.0,0.0,1.0
1463922775008840359,453,1463922774950912065,,-0.576563715935,-6.34205198288,-62.2840919495,0.0203980002552,1.0,0.0,0.0,0.0,1.0,0.0,0.0,0.0,1.0,-0.426829278469,-0.548780500889,-1.03658533096,1.0,0.0,0.0,0.0,1.0,0.0,0.0,0.0,1.0,0.15322890625,-1.36469494629,9.77791958008,1.0,0.0,0.0,0.0,1.0,0.0,0.0,0.0,1.0
1463922775010234260,454,1463922774971350520,,-0.752469003201,-6.33518600464,-62.3385696411,0.0204150006175,1.0,0.0,0.0,0.0,1.0,0.0,0.0,0.0,1.0,-0.365853667259,-6.7682929039,-3.29268312454,1.0,0.0,0.0,0.0,1.0,0.0,0.0,0.0,1.0,0.751779321289,-0.976834277344,10.299855542,1.0,0.0,0.0,0.0,1.0,0.0,0.0,0.0,1.0
1463922775010729153,455,1463922774991820640,,-0.839192390442,-6.33816099167,-62.3132133484,0.0204130001366,1.0,0.0,0.0,0.0,1.0,0.0,0.0,0.0,1.0,-0.426829278469,-2.62195134163,1.09756100178,1.0,0.0,0.0,0.0,1.0,0.0,0.0,0.0,1.0,0.842758984375,-1.06302561017,10.4866032715,1.0,0.0,0.0,0.0,1.0,0.0,0.0,0.0,1.0
1463922775151436312,456,1463922775012218678,,-1.00548446178,-6.33460855484,-62.2783355713,0.0203980002552,1.0,0.0,0.0,0.0,1.0,0.0,0.0,0.0,1.0,-0.426829278469,-7.43902492523,1.03658533096,1.0,0.0,0.0,0.0,1.0,0.0,0.0,0.0,1.0,0.665588061523,-0.962469067383,10.0748005859,1.0,0.0,0.0,0.0,1.0,0.0,0.0,0.0,1.0
1463922775151740582,457,1463922775032528279,,-1.16560077667,-6.30937671661,-62.2406921387,0.020422000438,1.0,0.0,0.0,0.0,1.0,0.0,0.0,0.0,1.0,-0.609756112099,-3.41463422775,1.64634156227,1.0,0.0,0.0,0.0,1.0,0.0,0.0,0.0,1.0,1.35990654297,-0.727837304687,9.98382092285,1.0,0.0,0.0,0.0,1.0,0.0,0.0,0.0,1.0
1463922775152601411,458,1463922775052861421,,-1.25941860676,-6.31529664993,-62.2286758423,0.0203959997743,1.0,0.0,0.0,0.0,1.0,0.0,0.0,0.0,1.0,-0.609756112099,-0.0609756112099,0.731707334518,1.0,0.0,0.0,0.0,1.0,0.0,0.0,0.0,1.0,1.40300217285,-1.01035310059,10.0795889893,1.0,0.0,0.0,0.0,1.0,0.0,0.0,0.0,1.0
1463922775153032139,459,1463922775073352896,,-1.21346759796,-6.34390687943,-62.281375885,0.0204160008579,1.0,0.0,0.0,0.0,1.0,0.0,0.0,0.0,1.0,0.0,4.81707286835,-1.95121955872,1.0,0.0,0.0,0.0,1.0,0.0,0.0,0.0,1.0,1.02950671387,-1.36948334961,10.3333743652,1.0,0.0,0.0,0.0,1.0,0.0,0.0,0.0,1.0
1463922775153316356,460,1463922775093778225,,-1.18011498451,-6.36221218109,-62.3132705688,0.0204029995948,1.0,0.0,0.0,0.0,1.0,0.0,0.0,0.0,1.0,0.365853667259,2.68292689323,-1.15853655338,1.0,0.0,0.0,0.0,1.0,0.0,0.0,0.0,1.0,0.713472094727,-1.26413847656,9.71567033691,1.0,0.0,0.0,0.0,1.0,0.0,0.0,0.0,1.0
1463922775153614636,461,1463922775114203398,,-1.18146932125,-6.32688570023,-62.2879714966,0.0204070005566,1.0,0.0,0.0,0.0,1.0,0.0,0.0,0.0,1.0,1.03658533096,1.09756100178,1.52439022064,1.0,0.0,0.0,0.0,1.0,0.0,0.0,0.0,1.0,0.833182177734,-0.981622680664,10.4099888184,1.0,0.0,0.0,0.0,1.0,0.0,0.0,0.0,1.0
1463922775236433449,462,1463922775134531280,,-1.24007308483,-6.28584623337,-62.2590408325,0.0204140003771,1.0,0.0,0.0,0.0,1.0,0.0,0.0,0.0,1.0,0.365853667259,-1.2195122242,1.46341466904,1.0,0.0,0.0,0.0,1.0,0.0,0.0,0.0,1.0,0.909796630859,-0.785298144531,10.2471831055,1.0,0.0,0.0,0.0,1.0,0.0,0.0,0.0,1.0
1463922775236972822,463,1463922775155025464,,-1.30865526199,-6.26232433319,-62.2550735474,0.0203920006752,1.0,0.0,0.0,0.0,1.0,0.0,0.0,0.0,1.0,-0.243902444839,0.548780500889,0.426829278469,1.0,0.0,0.0,0.0,1.0,0.0,0.0,0.0,1.0,1.31681091309,-0.828393774414,10.2711251221,1.0,0.0,0.0,0.0,1.0,0.0,0.0,0.0,1.0
1463922775238183337,464,1463922775175504022,,-1.26985764503,-6.24405527115,-62.2664871216,0.0204930007458,1.0,0.0,0.0,0.0,1.0,0.0,0.0,0.0,1.0,-0.609756112099,5.18292713165,0.18292683363,1.0,0.0,0.0,0.0,1.0,0.0,0.0,0.0,1.0,1.19710090314,-0.804451757813,10.2184526855,1.0,0.0,0.0,0.0,1.0,0.0,0.0,0.0,1.0
1463922775238844324,465,1463922775197971634,,-1.23486745358,-6.23385667801,-62.3075256348,0.0203310009092,1.0,0.0,0.0,0.0,1.0,0.0,0.0,0.0,1.0,0.243902444839,3.84146332741,-1.46341466904,1.0,0.0,0.0,0.0,1.0,0.0,0.0,0.0,1.0,0.928950244141,-1.01514150391,10.0269165527,1.0,0.0,0.0,0.0,1.0,0.0,0.0,0.0,1.0
1463922775304133003,466,1463922775217283270,,-1.13712441921,-6.23319578171,-62.3170700073,0.0204259995371,1.0,0.0,0.0,0.0,1.0,0.0,0.0,0.0,1.0,0.426829278469,6.46341466904,0.365853667259,1.0,0.0,0.0,0.0,1.0,0.0,0.0,0.0,1.0,0.866701000977,-1.11090957031,9.90720646973,1.0,0.0,0.0,0.0,1.0,0.0,0.0,0.0,1.0
1463922775304412481,467,1463922775239010886,,-1.02970767021,-6.23299694061,-62.3021278381,0.0204089991748,1.0,0.0,0.0,0.0,1.0,0.0,0.0,0.0,1.0,-0.243902444839,7.01219511032,1.64634156227,1.0,0.0,0.0,0.0,1.0,0.0,0.0,0.0,1.0,0.909796630859,-1.01992990723,10.1897222656,1.0,0.0,0.0,0.0,1.0,0.0,0.0,0.0,1.0
1463922775304733209,468,1463922775258501375,,-0.911559641361,-6.17096376419,-62.3195037842,0.0203980002552,1.0,0.0,0.0,0.0,1.0,0.0,0.0,0.0,1.0,0.304878056049,6.70731735229,0.0609756112099,1.0,0.0,0.0,0.0,1.0,0.0,0.0,0.0,1.0,0.699106884766,-0.569819995117,10.1035310059,1.0,0.0,0.0,0.0,1.0,0.0,0.0,0.0,1.0
1463922775305053260,469,1463922775278983579,,-0.78939974308,-6.13256597519,-62.3609199524,0.0212479997426,1.0,0.0,0.0,0.0,1.0,0.0,0.0,0.0,1.0,-0.18292683363,7.56097555161,-0.975609779358,1.0,0.0,0.0,0.0,1.0,0.0,0.0,0.0,1.0,0.823605371094,-0.699106884766,10.1609918457,1.0,0.0,0.0,0.0,1.0,0.0,0.0,0.0,1.0
1463922775332146998,470,1463922775297924540,,-0.66668099165,-6.11397218704,-62.3972702026,0.0195659995079,1.0,0.0,0.0,0.0,1.0,0.0,0.0,0.0,1.0,-0.548780500889,5.18292713165,-1.15853655338,1.0,0.0,0.0,0.0,1.0,0.0,0.0,0.0,1.0,0.272938989258,-0.76614453125,9.96945571289,1.0,0.0,0.0,0.0,1.0,0.0,0.0,0.0,1.0
1463922775335335891,471,1463922775320693766,,-0.642324030399,-6.12215518951,-62.3968658447,0.0204000007361,1.0,0.0,0.0,0.0,1.0,0.0,0.0,0.0,1.0,-0.548780500889,0.304878056049,0.18292683363,1.0,0.0,0.0,0.0,1.0,0.0,0.0,0.0,1.0,0.316034619141,-0.991199487305,9.89762966309,1.0,0.0,0.0,0.0,1.0,0.0,0.0,0.0,1.0
1463922775379749919,472,1463922775339718945,,-0.7616147995,-6.13408088684,-62.354133606,0.0208439994603,1.0,0.0,0.0,0.0,1.0,0.0,0.0,0.0,1.0,-0.12195122242,-5.54878091812,1.58536589146,1.0,0.0,0.0,0.0,1.0,0.0,0.0,0.0,1.0,0.531512805087,-1.09175595703,9.8784760498,1.0,0.0,0.0,0.0,1.0,0.0,0.0,0.0,1.0
1463922775380421271,473,1463922775361296196,,-0.891636312008,-6.12041378021,-62.3198318481,0.0209410004318,1.0,0.0,0.0,0.0,1.0,0.0,0.0,0.0,1.0,-0.792682945728,-3.65853667259,1.40243899822,1.0,0.0,0.0,0.0,1.0,0.0,0.0,0.0,1.0,1.01992990723,-0.804451757813,10.4626612549,1.0,0.0,0.0,0.0,1.0,0.0,0.0,0.0,1.0
1463922775408198131,474,1463922775379726482,,-1.04255616665,-6.11528730392,-62.3158035278,0.0195569992065,1.0,0.0,0.0,0.0,1.0,0.0,0.0,0.0,1.0,-1.03658533096,-3.90243911743,-0.0609756112099,1.0,0.0,0.0,0.0,1.0,0.0,0.0,0.0,1.0,1.21146604004,-0.804451757813,10.1131078125,1.0,0.0,0.0,0.0,1.0,0.0,0.0,0.0,1.0
1463922775408902399,475,1463922775399882125,,-1.1458286047,-6.10665750504,-62.3281021118,0.0202939994633,1.0,0.0,0.0,0.0,1.0,0.0,0.0,0.0,1.0,-0.914634168148,-1.46341466904,-0.609756112099,1.0,0.0,0.0,0.0,1.0,0.0,0.0,0.0,1.0,1.17794714373,-0.790086547852,10.0029745361,1.0,0.0,0.0,0.0,1.0,0.0,0.0,0.0,1.0
1463922775454280695,476,1463922775420232142,,-1.20443224907,-6.11760282516,-62.3179626465,0.0204019993544,1.0,0.0,0.0,0.0,1.0,0.0,0.0,0.0,1.0,-0.975609779358,0.853658556938,0.731707334518,1.0,0.0,0.0,0.0,1.0,0.0,0.0,0.0,1.0,1.25456166992,-0.957680664062,10.1274730225,1.0,0.0,0.0,0.0,1.0,0.0,0.0,0.0,1.0
1463922775454579860,477,1463922775440755232,,-1.2469483614,-6.13466691971,-62.298625946,0.0204199999571,1.0,0.0,0.0,0.0,1.0,0.0,0.0,0.0,1.0,-0.731707334518,1.2804877758,1.2195122242,1.0,0.0,0.0,0.0,1.0,0.0,0.0,0.0,1.0,1.21625444336,-1.06302561017,10.1897222656,1.0,0.0,0.0,0.0,1.0,0.0,0.0,0.0,1.0
1463922775504510376,478,1463922775461343841,,-1.23820328712,-6.16108846664,-62.2927055359,0.020408000797,1.0,0.0,0.0,0.0,1.0,0.0,0.0,0.0,1.0,-0.426829278469,4.14634132385,0.853658556938,1.0,0.0,0.0,0.0,1.0,0.0,0.0,0.0,1.0,1.2737152832,-1.20188930646,10.1322614258,1.0,0.0,0.0,0.0,1.0,0.0,0.0,0.0,1.0
1463922775504918238,479,1463922775481594067,,-1.19476568699,-6.14399147034,-62.316192627,0.0204039998353,1.0,0.0,0.0,0.0,1.0,0.0,0.0,0.0,1.0,-0.0609756112099,4.75609779358,-0.487804889679,1.0,0.0,0.0,0.0,1.0,0.0,0.0,0.0,1.0,1.05823706072,-0.905008227539,10.2902787354,1.0,0.0,0.0,0.0,1.0,0.0,0.0,0.0,1.0
1463922775532595099,480,1463922775502082834,,-1.11299169064,-6.14607715607,-62.3550453186,0.0204070005566,1.0,0.0,0.0,0.0,1.0,0.0,0.0,0.0,1.0,-0.548780500889,5.67073154449,-1.15853655338,1.0,0.0,0.0,0.0,1.0,0.0,0.0,0.0,1.0,0.861912597656,-0.991199487305,10.3237975586,1.0,0.0,0.0,0.0,1.0,0.0,0.0,0.0,1.0
1463922775533069524,481,1463922775522318320,,-1.08798480034,-6.15473937988,-62.3630180359,0.0204039998353,1.0,0.0,0.0,0.0,1.0,0.0,0.0,0.0,1.0,-0.975609779358,2.86585378647,0.0609756112099,1.0,0.0,0.0,0.0,1.0,0.0,0.0,0.0,1.0,0.861912597656,-0.957680664062,10.2280294922,1.0,0.0,0.0,0.0,1.0,0.0,0.0,0.0,1.0
1463922775571953160,482,1463922775543567500,,-1.06555211544,-6.17563247681,-62.3550682068,0.0204099994153,1.0,0.0,0.0,0.0,1.0,0.0,0.0,0.0,1.0,-0.853658556938,1.95121955872,0.731707334518,1.0,0.0,0.0,0.0,1.0,0.0,0.0,0.0,1.0,0.718260498047,-1.07260241682,10.0795889893,1.0,0.0,0.0,0.0,1.0,0.0,0.0,0.0,1.0
1463922775572254096,483,1463922775563491842,,-1.08532118797,-6.22367668152,-62.3475265503,0.020422000438,1.0,0.0,0.0,0.0,1.0,0.0,0.0,0.0,1.0,-0.548780500889,1.2804877758,0.609756112099,1.0,0.0,0.0,0.0,1.0,0.0,0.0,0.0,1.0,0.962469067383,-1.36469494629,10.0221281494,1.0,0.0,0.0,0.0,1.0,0.0,0.0,0.0,1.0
1463922775616093336,484,1463922775583460559,,-1.06366920471,-6.26512765884,-62.3649101257,0.0204000007361,1.0,0.0,0.0,0.0,1.0,0.0,0.0,0.0,1.0,-0.670731723309,3.47560977936,-0.365853667259,1.0,0.0,0.0,0.0,1.0,0.0,0.0,0.0,1.0,0.991199487305,-1.32159931641,10.2088758789,1.0,0.0,0.0,0.0,1.0,0.0,0.0,0.0,1.0
1463922775617394112,485,1463922775604667343,,-0.983660638332,-6.29064083099,-62.3966636658,0.0204470008612,1.0,0.0,0.0,0.0,1.0,0.0,0.0,0.0,1.0,-0.487804889679,5.30487823486,-0.853658556938,1.0,0.0,0.0,0.0,1.0,0.0,0.0,0.0,1.0,0.790086547852,-1.22583125,10.2519715088,1.0,0.0,0.0,0.0,1.0,0.0,0.0,0.0,1.0
1463922775664874794,486,1463922775624447571,,-0.913905262947,-6.30346775055,-62.4114646912,0.020361000672,1.0,0.0,0.0,0.0,1.0,0.0,0.0,0.0,1.0,-0.548780500889,4.2682929039,-0.12195122242,1.0,0.0,0.0,0.0,1.0,0.0,0.0,0.0,1.0,0.679953271484,-1.08696755371,10.1035310059,1.0,0.0,0.0,0.0,1.0,0.0,0.0,0.0,1.0
1463922775665962133,487,1463922775645164670,,-0.861447811127,-6.28314208984,-62.407081604,0.0204189997166,1.0,0.0,0.0,0.0,1.0,0.0,0.0,0.0,1.0,0.0609756112099,3.29268312454,0.731707334518,1.0,0.0,0.0,0.0,1.0,0.0,0.0,0.0,1.0,0.660799658203,-0.900219824219,10.0700121826,1.0,0.0,0.0,0.0,1.0,0.0,0.0,0.0,1.0
1463922775705027331,488,1463922775666070258,,-0.841027736664,-6.26763105392,-62.3932647705,0.020408000797,1.0,0.0,0.0,0.0,1.0,0.0,0.0,0.0,1.0,-0.365853667259,1.8292683363,1.03658533096,1.0,0.0,0.0,0.0,1.0,0.0,0.0,0.0,1.0,0.689530078125,-0.876277807617,10.2471831055,1.0,0.0,0.0,0.0,1.0,0.0,0.0,0.0,1.0
1463922775705457746,489,1463922775686229182,,-0.833939194679,-6.27408790588,-62.4055099487,0.0204070005566,1.0,0.0,0.0,0.0,1.0,0.0,0.0,0.0,1.0,-0.426829278469,1.46341466904,-0.304878056049,1.0,0.0,0.0,0.0,1.0,0.0,0.0,0.0,1.0,0.713472094727,-1.06302561017,10.2519715088,1.0,0.0,0.0,0.0,1.0,0.0,0.0,0.0,1.0
1463922775734037415,490,1463922775706056389,,-0.884642422199,-6.29508924484,-62.4202079773,0.0204639993608,1.0,0.0,0.0,0.0,1.0,0.0,0.0,0.0,1.0,-0.792682945728,-0.731707334518,-0.670731723309,1.0,0.0,0.0,0.0,1.0,0.0,0.0,0.0,1.0,0.804451757813,-1.10133276367,10.0125513428,1.0,0.0,0.0,0.0,1.0,0.0,0.0,0.0,1.0
1463922775734460017,491,1463922775726416146,,-0.954939246178,-6.29660749435,-62.4205436707,0.0203479994088,1.0,0.0,0.0,0.0,1.0,0.0,0.0,0.0,1.0,-0.18292683363,-2.19512200356,-0.12195122242,1.0,0.0,0.0,0.0,1.0,0.0,0.0,0.0,1.0,0.756567724609,-1.06781401349,10.2615483154,1.0,0.0,0.0,0.0,1.0,0.0,0.0,0.0,1.0
1463922775749710942,492,1463922775747673815,,-1.10025656223,-6.29583930969,-62.4022140503,0.0204070005566,1.0,0.0,0.0,0.0,1.0,0.0,0.0,0.0,1.0,-0.0609756112099,-3.35365867615,0.670731723309,1.0,0.0,0.0,0.0,1.0,0.0,0.0,0.0,1.0,1.24498486328,-1.06302561017,10.2280294922,1.0,0.0,0.0,0.0,1.0,0.0,0.0,0.0,1.0
1463922775769059765,493,1463922775767621803,,-1.23718678951,-6.28582811356,-62.3796958923,0.0204150006175,1.0,0.0,0.0,0.0,1.0,0.0,0.0,0.0,1.0,-0.0609756112099,-2.56097555161,0.975609779358,1.0,0.0,0.0,0.0,1.0,0.0,0.0,0.0,1.0,1.35032973633,-0.981622680664,10.2615483154,1.0,0.0,0.0,0.0,1.0,0.0,0.0,0.0,1.0
1463922775792187427,494,1463922775787663905,,-1.31960308552,-6.28503704071,-62.382850647,0.0204029995948,1.0,0.0,0.0,0.0,1.0,0.0,0.0,0.0,1.0,-0.426829278469,1.15853655338,0.12195122242,1.0,0.0,0.0,0.0,1.0,0.0,0.0,0.0,1.0,1.56580788574,-1.01035310059,10.3668931885,1.0,0.0,0.0,0.0,1.0,0.0,0.0,0.0,1.0
1463922775812909474,495,1463922775808174911,,-1.33063900471,-6.28611326218,-62.409122467,0.0204019993544,1.0,0.0,0.0,0.0,1.0,0.0,0.0,0.0,1.0,-0.304878056049,3.7804877758,-0.731707334518,1.0,0.0,0.0,0.0,1.0,0.0,0.0,0.0,1.0,1.37427175293,-1.03908344744,10.2088758789,1.0,0.0,0.0,0.0,1.0,0.0,0.0,0.0,1.0
1463922775833341522,496,1463922775829970026,,-1.27229607105,-6.29146337509,-62.4431190491,0.0204230006784,1.0,0.0,0.0,0.0,1.0,0.0,0.0,0.0,1.0,0.0609756112099,6.21951246262,-0.853658556938,1.0,0.0,0.0,0.0,1.0,0.0,0.0,0.0,1.0,1.16358193377,-1.11569797363,9.93593688965,1.0,0.0,0.0,0.0,1.0,0.0,0.0,0.0,1.0
1463922775850509209,497,1463922775848768175,,-1.22106707096,-6.28888893127,-62.4512062073,0.0204089991748,1.0,0.0,0.0,0.0,1.0,0.0,0.0,0.0,1.0,0.243902444839,5.12195110321,0.304878056049,1.0,0.0,0.0,0.0,1.0,0.0,0.0,0.0,1.0,1.06302561017,-1.09654436035,10.1370498291,1.0,0.0,0.0,0.0,1.0,0.0,0.0,0.0,1.0
1463922775870789174,498,1463922775869156890,,-1.16478312016,-6.24749088287,-62.4562911987,0.0203910004348,1.0,0.0,0.0,0.0,1.0,0.0,0.0,0.0,1.0,0.731707334518,4.63414621353,0.426829278469,1.0,0.0,0.0,0.0,1.0,0.0,0.0,0.0,1.0,0.9193734375,-0.837970581055,10.1274730225,1.0,0.0,0.0,0.0,1.0,0.0,0.0,0.0,1.0
1463922775891518200,499,1463922775889522896,,-1.11610603333,-6.2085351944,-62.4761047363,0.0204230006784,1.0,0.0,0.0,0.0,1.0,0.0,0.0,0.0,1.0,0.365853667259,4.02439022064,-0.365853667259,1.0,0.0,0.0,0.0,1.0,0.0,0.0,0.0,1.0,0.847547387695,-0.785298144531,10.0748005859,1.0,0.0,0.0,0.0,1.0,0.0,0.0,0.0,1.0
1463922775911741707,500,1463922775909801976,,-1.080534935,-6.18089580536,-62.5031051636,0.0203709993511,1.0,0.0,0.0,0.0,1.0,0.0,0.0,0.0,1.0,0.12195122242,2.92682933807,-0.853658556938,1.0,0.0,0.0,0.0,1.0,0.0,0.0,0.0,1.0,0.746990917969,-0.833182177734,10.0556469727,1.0,0.0,0.0,0.0,1.0,0.0,0.0,0.0,1.0
1463922775932612868,501,1463922775930188972,,-1.06302499771,-6.18148374557,-62.5177268982,0.0204140003771,1.0,0.0,0.0,0.0,1.0,0.0,0.0,0.0,1.0,-0.0609756112099,1.46341466904,-0.426829278469,1.0,0.0,0.0,0.0,1.0,0.0,0.0,0.0,1.0,0.656011254883,-1.0534486574,10.165780249,1.0,0.0,0.0,0.0,1.0,0.0,0.0,0.0,1.0
1463922775952603668,502,1463922775950584354,,-1.09387338161,-6.19808626175,-62.5120925903,0.0204089991748,1.0,0.0,0.0,0.0,1.0,0.0,0.0,0.0,1.0,-0.18292683363,-0.304878056049,0.365853667259,1.0,0.0,0.0,0.0,1.0,0.0,0.0,0.0,1.0,0.775721337891,-1.16358193377,10.1035310059,1.0,0.0,0.0,0.0,1.0,0.0,0.0,0.0,1.0
1463922775973109830,503,1463922775971003798,,-1.11336886883,-6.19465446472,-62.5064353943,0.0204070005566,1.0,0.0,0.0,0.0,1.0,0.0,0.0,0.0,1.0,0.426829278469,0.731707334518,0.487804889679,1.0,0.0,0.0,0.0,1.0,0.0,0.0,0.0,1.0,0.866701000977,-1.09654436035,10.0795889893,1.0,0.0,0.0,0.0,1.0,0.0,0.0,0.0,1.0
1463922775993337661,504,1463922775991403034,,-1.13636803627,-6.17143630981,-62.5168838501,0.020408000797,1.0,0.0,0.0,0.0,1.0,0.0,0.0,0.0,1.0,0.243902444839,1.64634156227,-0.18292683363,1.0,0.0,0.0,0.0,1.0,0.0,0.0,0.0,1.0,1.07260241682,-0.909796630859,10.2950671387,1.0,0.0,0.0,0.0,1.0,0.0,0.0,0.0,1.0
1463922776015254338,505,1463922776012992681,,-1.09808290005,-6.14524126053,-62.5352554321,0.0204230006784,1.0,0.0,0.0,0.0,1.0,0.0,0.0,0.0,1.0,0.243902444839,3.53658556938,-0.365853667259,1.0,0.0,0.0,0.0,1.0,0.0,0.0,0.0,1.0,0.852335791016,-0.866701000977,10.1322614258,1.0,0.0,0.0,0.0,1.0,0.0,0.0,0.0,1.0
1463922776035062118,506,1463922776033124574,,-1.04822289944,-6.1213722229,-62.5506744385,0.0203980002552,1.0,0.0,0.0,0.0,1.0,0.0,0.0,0.0,1.0,0.0609756112099,3.35365867615,-0.243902444839,1.0,0.0,0.0,0.0,1.0,0.0,0.0,0.0,1.0,0.699106884766,-0.833182177734,9.94551369629,1.0,0.0,0.0,0.0,1.0,0.0,0.0,0.0,1.0
1463922776054464274,507,1463922776052634751,,-0.995927393436,-6.10779857635,-62.550945282,0.0204029995948,1.0,0.0,0.0,0.0,1.0,0.0,0.0,0.0,1.0,-0.12195122242,2.74390244484,0.426829278469,1.0,0.0,0.0,0.0,1.0,0.0,0.0,0.0,1.0,0.579396801758,-0.890643017578,10.0221281494,1.0,0.0,0.0,0.0,1.0,0.0,0.0,0.0,1.0
1463922776075180019,508,1463922776073061278,,-0.989206731319,-6.09551477432,-62.5445747375,0.0204119998962,1.0,0.0,0.0,0.0,1.0,0.0,0.0,0.0,1.0,0.243902444839,0.914634168148,0.548780500889,1.0,0.0,0.0,0.0,1.0,0.0,0.0,0.0,1.0,0.636857641602,-0.948103857422,9.85932243652,1.0,0.0,0.0,0.0,1.0,0.0,0.0,0.0,1.0
1463922776095392954,509,1463922776093436764,,-1.01020038128,-6.08599233627,-62.5410995483,0.0204000007361,1.0,0.0,0.0,0.0,1.0,0.0,0.0,0.0,1.0,0.12195122242,0.548780500889,0.365853667259,1.0,0.0,0.0,0.0,1.0,0.0,0.0,0.0,1.0,0.818816967773,-0.962469067383,10.0029745361,1.0,0.0,0.0,0.0,1.0,0.0,0.0,0.0,1.0
1463922776117358849,510,1463922776113917301,,-1.03157377243,-6.06418371201,-62.5522193909,0.0204140003771,1.0,0.0,0.0,0.0,1.0,0.0,0.0,0.0,1.0,0.243902444839,0.914634168148,-0.304878056049,1.0,0.0,0.0,0.0,1.0,0.0,0.0,0.0,1.0,0.881066210937,-0.881066210937,10.046070166,1.0,0.0,0.0,0.0,1.0,0.0,0.0,0.0,1.0
1463922776135954343,511,1463922776134267162,,-1.06773459911,-6.03929853439,-62.5535011292,0.0204029995948,1.0,0.0,0.0,0.0,1.0,0.0,0.0,0.0,1.0,0.0,0.304878056049,0.12195122242,1.0,0.0,0.0,0.0,1.0,0.0,0.0,0.0,1.0,0.92416184082,-0.814028564453,10.1609918457,1.0,0.0,0.0,0.0,1.0,0.0,0.0,0.0,1.0
1463922776157389668,512,1463922776155122906,,-1.08206868172,-6.03513002396,-62.5463447571,0.0204319991171,1.0,0.0,0.0,0.0,1.0,0.0,0.0,0.0,1.0,-0.487804889679,1.09756100178,0.609756112099,1.0,0.0,0.0,0.0,1.0,0.0,0.0,0.0,1.0,0.881066210937,-0.895431420898,10.0652237793,1.0,0.0,0.0,0.0,1.0,0.0,0.0,0.0,1.0
1463922776177060104,513,1463922776175163810,,-1.08554637432,-6.02778816223,-62.5339927673,0.0203840006143,1.0,0.0,0.0,0.0,1.0,0.0,0.0,0.0,1.0,-0.243902444839,2.13414645195,0.975609779358,1.0,0.0,0.0,0.0,1.0,0.0,0.0,0.0,1.0,0.991199487305,-0.9193734375,10.1753570557,1.0,0.0,0.0,0.0,1.0,0.0,0.0,0.0,1.0
1463922776199255791,514,1463922776195566119,,-1.04487264156,-6.0171957016,-62.5372467041,0.0204109996557,1.0,0.0,0.0,0.0,1.0,0.0,0.0,0.0,1.0,-0.12195122242,4.20731735229,0.426829278469,1.0,0.0,0.0,0.0,1.0,0.0,0.0,0.0,1.0,0.943315454102,-0.895431420898,9.96945571289,1.0,0.0,0.0,0.0,1.0,0.0,0.0,0.0,1.0
1463922776217720712,515,1463922776215931761,,-0.983145356178,-6.01103019714,-62.5554542542,0.0204050000757,1.0,0.0,0.0,0.0,1.0,0.0,0.0,0.0,1.0,-0.18292683363,4.87804889679,-0.243902444839,1.0,0.0,0.0,0.0,1.0,0.0,0.0,0.0,1.0,0.876277807617,-0.943315454102,10.180145459,1.0,0.0,0.0,0.0,1.0,0.0,0.0,0.0,1.0
1463922776238306457,516,1463922776236383913,,-0.905217647552,-5.98576498032,-62.5654830933,0.0204119998962,1.0,0.0,0.0,0.0,1.0,0.0,0.0,0.0,1.0,-0.243902444839,4.39024400711,0.12195122242,1.0,0.0,0.0,0.0,1.0,0.0,0.0,0.0,1.0,0.632069238281,-0.751779321289,10.0652237793,1.0,0.0,0.0,0.0,1.0,0.0,0.0,0.0,1.0
1463922776258607672,517,1463922776256925961,,-0.852166652679,-5.96117925644,-62.5741729736,0.0204109996557,1.0,0.0,0.0,0.0,1.0,0.0,0.0,0.0,1.0,-0.243902444839,3.23170733452,0.0609756112099,1.0,0.0,0.0,0.0,1.0,0.0,0.0,0.0,1.0,0.632069238281,-0.756567724609,10.1131078125,1.0,0.0,0.0,0.0,1.0,0.0,0.0,0.0,1.0
1463922776285657453,518,1463922776279307011,,-0.875850498676,-5.96298599243,-62.5634727478,0.0204169992357,1.0,0.0,0.0,0.0,1.0,0.0,0.0,0.0,1.0,-0.792682945728,0.670731723309,0.731707334518,1.0,0.0,0.0,0.0,1.0,0.0,0.0,0.0,1.0,0.857124194336,-0.885854614258,10.1418382324,1.0,0.0,0.0,0.0,1.0,0.0,0.0,0.0,1.0
1463922776308899801,519,1463922776304695809,,-0.910080313683,-5.98660087585,-62.5565605164,0.0204029995948,1.0,0.0,0.0,0.0,1.0,0.0,0.0,0.0,1.0,-0.975609779358,0.243902444839,0.487804889679,1.0,0.0,0.0,0.0,1.0,0.0,0.0,0.0,1.0,0.876277807617,-1.04866025408,10.1562034424,1.0,0.0,0.0,0.0,1.0,0.0,0.0,0.0,1.0
1463922776321318863,520,1463922776319392360,,-0.969147205353,-6.02339410782,-62.5601234436,0.0216520000249,1.0,0.0,0.0,0.0,1.0,0.0,0.0,0.0,1.0,-1.2195122242,-0.12195122242,-0.0609756112099,1.0,0.0,0.0,0.0,1.0,0.0,0.0,0.0,1.0,0.991199487305,-1.10133276367,10.0891657959,1.0,0.0,0.0,0.0,1.0,0.0,0.0,0.0,1.0
1463922776340786956,521,1463922776338769569,,-1.0189602375,-6.04181718826,-62.5615882874,0.0192610006779,1.0,0.0,0.0,0.0,1.0,0.0,0.0,0.0,1.0,-0.792682945728,0.12195122242,0.0609756112099,1.0,0.0,0.0,0.0,1.0,0.0,0.0,0.0,1.0,1.02471831055,-1.0534486574,10.1178962158,1.0,0.0,0.0,0.0,1.0,0.0,0.0,0.0,1.0
1463922776361625201,522,1463922776359146722,,-1.05707097054,-6.06588554382,-62.5558738708,0.0203210003674,1.0,0.0,0.0,0.0,1.0,0.0,0.0,0.0,1.0,-0.792682945728,0.792682945728,0.487804889679,1.0,0.0,0.0,0.0,1.0,0.0,0.0,0.0,1.0,1.02950671387,-1.09175595703,10.0700121826,1.0,0.0,0.0,0.0,1.0,0.0,0.0,0.0,1.0
1463922776381560949,523,1463922776379510437,,-1.08312594891,-6.07027482986,-62.5492286682,0.0204249992967,1.0,0.0,0.0,0.0,1.0,0.0,0.0,0.0,1.0,-0.548780500889,1.95121955872,0.670731723309,1.0,0.0,0.0,0.0,1.0,0.0,0.0,0.0,1.0,1.16358193377,-0.986411083984,10.2950671387,1.0,0.0,0.0,0.0,1.0,0.0,0.0,0.0,1.0
1463922776414692578,524,1463922776400017537,,-1.06563198566,-6.07778453827,-62.5532569885,0.0204310007393,1.0,0.0,0.0,0.0,1.0,0.0,0.0,0.0,1.0,-0.792682945728,3.41463422775,0.304878056049,1.0,0.0,0.0,0.0,1.0,0.0,0.0,0.0,1.0,1.01514150391,-0.952892260742,10.0891657959,1.0,0.0,0.0,0.0,1.0,0.0,0.0,0.0,1.0
1463922776430820582,525,1463922776420257398,,-1.02694678307,-6.08751964569,-62.5663146973,0.0203620009124,1.0,0.0,0.0,0.0,1.0,0.0,0.0,0.0,1.0,-0.975609779358,4.14634132385,-0.0609756112099,1.0,0.0,0.0,0.0,1.0,0.0,0.0,0.0,1.0,0.952892260742,-0.948103857422,10.1466266357,1.0,0.0,0.0,0.0,1.0,0.0,0.0,0.0,1.0
1463922776445939944,526,1463922776442471418,,-0.975347101688,-6.09592008591,-62.5849075317,0.0207800008357,1.0,0.0,0.0,0.0,1.0,0.0,0.0,0.0,1.0,-0.670731723309,3.71951246262,-0.365853667259,1.0,0.0,0.0,0.0,1.0,0.0,0.0,0.0,1.0,0.756567724609,-0.991199487305,10.1322614258,1.0,0.0,0.0,0.0,1.0,0.0,0.0,0.0,1.0
1463922776463418672,527,1463922776461672846,,-0.962216556072,-6.11595487595,-62.5868797302,0.0201050005853,1.0,0.0,0.0,0.0,1.0,0.0,0.0,0.0,1.0,-0.792682945728,2.01219511032,0.243902444839,1.0,0.0,0.0,0.0,1.0,0.0,0.0,0.0,1.0,0.785298144531,-1.07739082014,10.1514150391,1.0,0.0,0.0,0.0,1.0,0.0,0.0,0.0,1.0
1463922776484309676,528,1463922776482351143,,-0.988529622555,-6.13268566132,-62.5803871155,0.0203339997679,1.0,0.0,0.0,0.0,1.0,0.0,0.0,0.0,1.0,-0.670731723309,0.365853667259,0.487804889679,1.0,0.0,0.0,0.0,1.0,0.0,0.0,0.0,1.0,0.857124194336,-1.08696755371,10.3094323486,1.0,0.0,0.0,0.0,1.0,0.0,0.0,0.0,1.0
1463922776509627120,529,1463922776504080842,,-1.01885962486,-6.14577770233,-62.5764160156,0.0204300004989,1.0,0.0,0.0,0.0,1.0,0.0,0.0,0.0,1.0,-0.609756112099,0.365853667259,0.365853667259,1.0,0.0,0.0,0.0,1.0,0.0,0.0,0.0,1.0,0.866701000977,-1.03429511719,9.98382092285,1.0,0.0,0.0,0.0,1.0,0.0,0.0,0.0,1.0
1463922776529635107,530,1463922776522764668,,-1.04611039162,-6.16971349716,-62.5918579102,0.0204770006239,1.0,0.0,0.0,0.0,1.0,0.0,0.0,0.0,1.0,-0.792682945728,1.34146344662,-0.487804889679,1.0,0.0,0.0,0.0,1.0,0.0,0.0,0.0,1.0,1.01514150391,-1.11569797363,10.1131078125,1.0,0.0,0.0,0.0,1.0,0.0,0.0,0.0,1.0
1463922776546255765,531,1463922776542624896,,-1.05290234089,-6.1970243454,-62.6135749817,0.0203290004283,1.0,0.0,0.0,0.0,1.0,0.0,0.0,0.0,1.0,-0.853658556938,2.56097555161,-0.670731723309,1.0,0.0,0.0,0.0,1.0,0.0,0.0,0.0,1.0,1.05823706072,-1.14442839355,10.1370498291,1.0,0.0,0.0,0.0,1.0,0.0,0.0,0.0,1.0
1463922776565640787,532,1463922776563217099,,-1.03440451622,-6.23342037201,-62.6243629456,0.0204499997199,1.0,0.0,0.0,0.0,1.0,0.0,0.0,0.0,1.0,-0.487804889679,3.29268312454,-0.0609756112099,1.0,0.0,0.0,0.0,1.0,0.0,0.0,0.0,1.0,0.972045874023,-1.28329208984,10.0556469727,1.0,0.0,0.0,0.0,1.0,0.0,0.0,0.0,1.0
1463922776586770019,533,1463922776584866850,,-0.983016192913,-6.24238061905,-62.6297683716,0.0204530004412,1.0,0.0,0.0,0.0,1.0,0.0,0.0,0.0,1.0,-0.12195122242,4.02439022064,0.304878056049,1.0,0.0,0.0,0.0,1.0,0.0,0.0,0.0,1.0,0.814028564453,-1.11090957031,10.0412817627,1.0,0.0,0.0,0.0,1.0,0.0,0.0,0.0,1.0
1463922776606597851,534,1463922776604439215,,-0.922205448151,-6.24056816101,-62.6360206604,0.0203430000693,1.0,0.0,0.0,0.0,1.0,0.0,0.0,0.0,1.0,-0.12195122242,4.87804889679,0.365853667259,1.0,0.0,0.0,0.0,1.0,0.0,0.0,0.0,1.0,0.885854614258,-1.03429511719,10.2040874756,1.0,0.0,0.0,0.0,1.0,0.0,0.0,0.0,1.0
1463922776694941224,535,1463922776624873711,,-0.855260252953,-6.23369073868,-62.6550292969,0.020408000797,1.0,0.0,0.0,0.0,1.0,0.0,0.0,0.0,1.0,-0.18292683363,4.45121955872,-0.304878056049,1.0,0.0,0.0,0.0,1.0,0.0,0.0,0.0,1.0,0.718260498047,-0.962469067383,10.0269165527,1.0,0.0,0.0,0.0,1.0,0.0,0.0,0.0,1.0
1463922776695214660,536,1463922776645043572,,-0.810828566551,-6.22814083099,-62.673828125,0.0203879997134,1.0,0.0,0.0,0.0,1.0,0.0,0.0,0.0,1.0,-0.426829278469,3.23170733452,-0.426829278469,1.0,0.0,0.0,0.0,1.0,0.0,0.0,0.0,1.0,0.694318481445,-0.943315454102,10.180145459,1.0,0.0,0.0,0.0,1.0,0.0,0.0,0.0,1.0
1463922776695567731,537,1463922776665337704,,-0.794667184353,-6.25039243698,-62.6735610962,0.0204240009189,1.0,0.0,0.0,0.0,1.0,0.0,0.0,0.0,1.0,-0.487804889679,1.52439022064,0.304878056049,1.0,0.0,0.0,0.0,1.0,0.0,0.0,0.0,1.0,0.636857641602,-1.15879360352,10.0269165527,1.0,0.0,0.0,0.0,1.0,0.0,0.0,0.0,1.0
1463922776695607575,538,1463922776686015116,,-0.830200135708,-6.27160739899,-62.6699066162,0.0203939992934,1.0,0.0,0.0,0.0,1.0,0.0,0.0,0.0,1.0,-0.365853667259,0.0,0.304878056049,1.0,0.0,0.0,0.0,1.0,0.0,0.0,0.0,1.0,0.828393774414,-1.19231249982,10.1705686523,1.0,0.0,0.0,0.0,1.0,0.0,0.0,0.0,1.0
1463922776754279095,539,1463922776706777319,,-0.886053621769,-6.27397298813,-62.663066864,0.0204969998449,1.0,0.0,0.0,0.0,1.0,0.0,0.0,0.0,1.0,-0.304878056049,0.12195122242,0.487804889679,1.0,0.0,0.0,0.0,1.0,0.0,0.0,0.0,1.0,1.05823706072,-1.05823706072,10.3668931885,1.0,0.0,0.0,0.0,1.0,0.0,0.0,0.0,1.0
1463922776754322376,540,1463922776726634630,,-0.932529330254,-6.27500200272,-62.6680259705,0.0203450005502,1.0,0.0,0.0,0.0,1.0,0.0,0.0,0.0,1.0,-0.12195122242,0.975609779358,0.0,1.0,0.0,0.0,0.0,1.0,0.0,0.0,0.0,1.0,1.13485158691,-1.08217922346,10.3668931885,1.0,0.0,0.0,0.0,1.0,0.0,0.0,0.0,1.0
1463922776754360084,541,1463922776748008288,,-0.959215760231,-6.2684879303,-62.6846542358,0.0204089991748,1.0,0.0,0.0,0.0,1.0,0.0,0.0,0.0,1.0,0.0,1.70731711388,-0.487804889679,1.0,0.0,0.0,0.0,1.0,0.0,0.0,0.0,1.0,1.07739082014,-1.02950671387,10.2807019287,1.0,0.0,0.0,0.0,1.0,0.0,0.0,0.0,1.0
1463922776807902980,542,1463922776767755496,,-0.964870870113,-6.26875591278,-62.6945228577,0.0203850008547,1.0,0.0,0.0,0.0,1.0,0.0,0.0,0.0,1.0,0.0,2.62195134163,-0.0609756112099,1.0,0.0,0.0,0.0,1.0,0.0,0.0,0.0,1.0,1.05823706072,-1.07739082014,10.1753570557,1.0,0.0,0.0,0.0,1.0,0.0,0.0,0.0,1.0
1463922776808313603,543,1463922776787944420,,-0.970778107643,-6.27594518661,-62.6992225647,0.0204210001975,1.0,0.0,0.0,0.0,1.0,0.0,0.0,0.0,1.0,-0.0609756112099,2.56097555161,0.18292683363,1.0,0.0,0.0,0.0,1.0,0.0,0.0,0.0,1.0,1.05823706072,-1.13006318359,10.1992990723,1.0,0.0,0.0,0.0,1.0,0.0,0.0,0.0,1.0
1463922777145756223,544,1463922776810058283,,-0.953807413578,-6.26609992981,-62.7115859985,0.020422000438,1.0,0.0,0.0,0.0,1.0,0.0,0.0,0.0,1.0,0.487804889679,3.17073178291,-0.12195122242,1.0,0.0,0.0,0.0,1.0,0.0,0.0,0.0,1.0,0.943315454102,-1.06302561017,10.0364933594,1.0,0.0,0.0,0.0,1.0,0.0,0.0,0.0,1.0
1463922777146211898,545,1463922776829069921,,-0.945270001888,-6.24969434738,-62.7257652283,0.0204060003161,1.0,0.0,0.0,0.0,1.0,0.0,0.0,0.0,1.0,0.243902444839,2.80487799644,-0.243902444839,1.0,0.0,0.0,0.0,1.0,0.0,0.0,0.0,1.0,0.952892260742,-0.967257470703,10.1131078125,1.0,0.0,0.0,0.0,1.0,0.0,0.0,0.0,1.0
1463922777146529970,546,1463922776849771707,,-0.943655908108,-6.23613405228,-62.7428588867,0.0204349998385,1.0,0.0,0.0,0.0,1.0,0.0,0.0,0.0,1.0,0.12195122242,1.8902438879,-0.487804889679,1.0,0.0,0.0,0.0,1.0,0.0,0.0,0.0,1.0,0.842758984375,-0.967257470703,10.1035310059,1.0,0.0,0.0,0.0,1.0,0.0,0.0,0.0,1.0
1463922777146821375,547,1463922776871831040,,-0.945145130157,-6.21133852005,-62.7515525818,0.0204460006207,1.0,0.0,0.0,0.0,1.0,0.0,0.0,0.0,1.0,0.18292683363,1.40243899822,-0.12195122242,1.0,0.0,0.0,0.0,1.0,0.0,0.0,0.0,1.0,0.785298144531,-0.871489404297,10.0556469727,1.0,0.0,0.0,0.0,1.0,0.0,0.0,0.0,1.0
1463922777147330800,548,1463922776891175437,,-0.949819505215,-6.18461322784,-62.751739502,0.0203779991716,1.0,0.0,0.0,0.0,1.0,0.0,0.0,0.0,1.0,0.12195122242,1.46341466904,0.304878056049,1.0,0.0,0.0,0.0,1.0,0.0,0.0,0.0,1.0,0.842758984375,-0.847547387695,10.180145459,1.0,0.0,0.0,0.0,1.0,0.0,0.0,0.0,1.0
1463922777147758350,549,1463922776910576552,,-0.959602534771,-6.16904258728,-62.7585868835,0.0203760005534,1.0,0.0,0.0,0.0,1.0,0.0,0.0,0.0,1.0,0.426829278469,1.8292683363,0.0,1.0,0.0,0.0,0.0,1.0,0.0,0.0,0.0,1.0,0.952892260742,-1.00077629395,10.2040874756,1.0,0.0,0.0,0.0,1.0,0.0,0.0,0.0,1.0
1463922777148443191,550,1463922776931088860,,-0.939265847206,-6.15368270874,-62.7753143311,0.0204130001366,1.0,0.0,0.0,0.0,1.0,0.0,0.0,0.0,1.0,0.243902444839,3.47560977936,-0.304878056049,1.0,0.0,0.0,0.0,1.0,0.0,0.0,0.0,1.0,0.957680664062,-0.948103857422,9.99339772949,1.0,0.0,0.0,0.0,1.0,0.0,0.0,0.0,1.0
1463922777148974334,551,1463922776951422992,,-0.898511052132,-6.1398267746,-62.7928276062,0.0203779991716,1.0,0.0,0.0,0.0,1.0,0.0,0.0,0.0,1.0,0.426829278469,3.90243911743,-0.304878056049,1.0,0.0,0.0,0.0,1.0,0.0,0.0,0.0,1.0,0.842758984375,-0.981622680664,9.89762966309,1.0,0.0,0.0,0.0,1.0,0.0,0.0,0.0,1.0
1463922777149649957,552,1463922776971158324,,-0.84621566534,-6.1103386879,-62.8090248108,0.0204099994153,1.0,0.0,0.0,0.0,1.0,0.0,0.0,0.0,1.0,0.487804889679,3.7804877758,-0.243902444839,1.0,0.0,0.0,0.0,1.0,0.0,0.0,0.0,1.0,0.732625708008,-0.876277807617,10.1466266357,1.0,0.0,0.0,0.0,1.0,0.0,0.0,0.0,1.0
1463922777149705946,553,1463922776992766773,,-0.784034967422,-6.08003377914,-62.8126106262,0.0207700002939,1.0,0.0,0.0,0.0,1.0,0.0,0.0,0.0,1.0,0.426829278469,3.10975623131,0.304878056049,1.0,0.0,0.0,0.0,1.0,0.0,0.0,0.0,1.0,0.536301208408,-0.857124194336,10.1609918457,1.0,0.0,0.0,0.0,1.0,0.0,0.0,0.0,1.0
1463922777149762456,554,1463922777013684652,,-0.74879938364,-6.06265640259,-62.8145446777,0.0200800001621,1.0,0.0,0.0,0.0,1.0,0.0,0.0,0.0,1.0,-0.0609756112099,2.43902444839,0.304878056049,1.0,0.0,0.0,0.0,1.0,0.0,0.0,0.0,1.0,0.622492431641,-0.861912597656,10.060435376,1.0,0.0,0.0,0.0,1.0,0.0,0.0,0.0,1.0
1463922777150806462,555,1463922777033244360,,-0.731575191021,-6.05132246017,-62.8236236572,0.0203990004957,1.0,0.0,0.0,0.0,1.0,0.0,0.0,0.0,1.0,-0.12195122242,1.76829278469,-0.12195122242,1.0,0.0,0.0,0.0,1.0,0.0,0.0,0.0,1.0,0.656011254883,-0.909796630859,10.1226846191,1.0,0.0,0.0,0.0,1.0,0.0,0.0,0.0,1.0
1463922777150866358,556,1463922777053303129,,-0.736857891083,-6.03767108917,-62.8348388672,0.0203799996525,1.0,0.0,0.0,0.0,1.0,0.0,0.0,0.0,1.0,0.0609756112099,0.487804889679,-0.365853667259,1.0,0.0,0.0,0.0,1.0,0.0,0.0,0.0,1.0,0.598550451572,-0.890643017578,9.79707319336,1.0,0.0,0.0,0.0,1.0,0.0,0.0,0.0,1.0
1463922777151238856,557,1463922777073761219,,-0.755598366261,-6.0285282135,-62.8273162842,0.0205380003899,1.0,0.0,0.0,0.0,1.0,0.0,0.0,0.0,1.0,-0.0609756112099,-0.12195122242,0.487804889679,1.0,0.0,0.0,0.0,1.0,0.0,0.0,0.0,1.0,0.636857641602,-0.92416184082,10.0125513428,1.0,0.0,0.0,0.0,1.0,0.0,0.0,0.0,1.0
1463922777151727239,558,1463922777093983788,,-0.810108542442,-6.01926136017,-62.8150138855,0.0203310009092,1.0,0.0,0.0,0.0,1.0,0.0,0.0,0.0,1.0,-0.12195122242,-0.670731723309,0.670731723309,1.0,0.0,0.0,0.0,1.0,0.0,0.0,0.0,1.0,0.876277807617,-0.92416184082,10.180145459,1.0,0.0,0.0,0.0,1.0,0.0,0.0,0.0,1.0
1463922777152280935,559,1463922777114704741,,-0.86066609621,-6.00066661835,-62.8083457947,0.0203549992293,1.0,0.0,0.0,0.0,1.0,0.0,0.0,0.0,1.0,-0.365853667259,0.12195122242,0.487804889679,1.0,0.0,0.0,0.0,1.0,0.0,0.0,0.0,1.0,0.976834277344,-0.785298144531,10.0508585693,1.0,0.0,0.0,0.0,1.0,0.0,0.0,0.0,1.0
1463922777344701154,560,1463922777134941478,,-0.888472437859,-5.99491214752,-62.8127975464,0.0204050000757,1.0,0.0,0.0,0.0,1.0,0.0,0.0,0.0,1.0,-0.487804889679,1.34146344662,0.0609756112099,1.0,0.0,0.0,0.0,1.0,0.0,0.0,0.0,1.0,0.991199487305,-0.871489404297,10.0125513428,1.0,0.0,0.0,0.0,1.0,0.0,0.0,0.0,1.0
1463922777345146308,561,1463922777155480921,,-0.880901992321,-5.9794716835,-62.8246917725,0.020422000438,1.0,0.0,0.0,0.0,1.0,0.0,0.0,0.0,1.0,-0.0609756112099,2.5,-0.18292683363,1.0,0.0,0.0,0.0,1.0,0.0,0.0,0.0,1.0,0.895431420898,-0.871489404297,10.1083194092,1.0,0.0,0.0,0.0,1.0,0.0,0.0,0.0,1.0
1463922777345882972,562,1463922777176453957,,-0.855623781681,-5.95995521545,-62.82837677,0.0206330008805,1.0,0.0,0.0,0.0,1.0,0.0,0.0,0.0,1.0,-0.0609756112099,2.68292689323,0.243902444839,1.0,0.0,0.0,0.0,1.0,0.0,0.0,0.0,1.0,0.775721337891,-0.828393774414,10.046070166,1.0,0.0,0.0,0.0,1.0,0.0,0.0,0.0,1.0
1463922777346230418,563,1463922777197284336,,-0.852075517178,-5.95748901367,-62.8280029297,0.0202929992229,1.0,0.0,0.0,0.0,1.0,0.0,0.0,0.0,1.0,-0.487804889679,2.62195134163,0.426829278469,1.0,0.0,0.0,0.0,1.0,0.0,0.0,0.0,1.0,0.952892260742,-0.895431420898,10.046070166,1.0,0.0,0.0,0.0,1.0,0.0,0.0,0.0,1.0
1463922777347012915,564,1463922777216074412,,-0.84501594305,-5.9345703125,-62.8210906982,0.0202670004219,1.0,0.0,0.0,0.0,1.0,0.0,0.0,0.0,1.0,-0.304878056049,2.31707310677,0.731707334518,1.0,0.0,0.0,0.0,1.0,0.0,0.0,0.0,1.0,0.866701000977,-0.742202514648,9.99339772949,1.0,0.0,0.0,0.0,1.0,0.0,0.0,0.0,1.0
1463922777347525413,565,1463922777237000416,,-0.842210590839,-5.92867136002,-62.8312339783,0.0206729993224,1.0,0.0,0.0,0.0,1.0,0.0,0.0,0.0,1.0,-0.487804889679,2.25609779358,-0.12195122242,1.0,0.0,0.0,0.0,1.0,0.0,0.0,0.0,1.0,0.885854614258,-0.866701000977,10.0891657959,1.0,0.0,0.0,0.0,1.0,0.0,0.0,0.0,1.0
1463922777348126191,566,1463922777257125070,,-0.844344377518,-5.92732000351,-62.836566925,0.0201760008931,1.0,0.0,0.0,0.0,1.0,0.0,0.0,0.0,1.0,-0.975609779358,2.37804889679,0.12195122242,1.0,0.0,0.0,0.0,1.0,0.0,0.0,0.0,1.0,0.957680664062,-0.818816967773,10.1178962158,1.0,0.0,0.0,0.0,1.0,0.0,0.0,0.0,1.0
1463922777348881553,567,1463922777277850763,,-0.857900619507,-5.93754005432,-62.8405265808,0.0204390008003,1.0,0.0,0.0,0.0,1.0,0.0,0.0,0.0,1.0,-0.670731723309,1.8292683363,0.12195122242,1.0,0.0,0.0,0.0,1.0,0.0,0.0,0.0,1.0,0.962469067383,-0.976834277344,10.1274730225,1.0,0.0,0.0,0.0,1.0,0.0,0.0,0.0,1.0
1463922777349339207,568,1463922777298280050,,-0.872925341129,-5.95599603653,-62.8401527405,0.0204019993544,1.0,0.0,0.0,0.0,1.0,0.0,0.0,0.0,1.0,-0.548780500889,2.19512200356,0.365853667259,1.0,0.0,0.0,0.0,1.0,0.0,0.0,0.0,1.0,1.05823706072,-1.08217922346,10.2088758789,1.0,0.0,0.0,0.0,1.0,0.0,0.0,0.0,1.0
1463922777349729622,569,1463922777319925010,,-0.879001677036,-5.96794271469,-62.8418540955,0.0203879997134,1.0,0.0,0.0,0.0,1.0,0.0,0.0,0.0,1.0,-0.670731723309,2.5,0.304878056049,1.0,0.0,0.0,0.0,1.0,0.0,0.0,0.0,1.0,1.01035310059,-0.981622680664,9.96945571289,1.0,0.0,0.0,0.0,1.0,0.0,0.0,0.0,1.0
1463922777382751564,570,1463922777340196017,,-0.868303120136,-5.96897411346,-62.8476982117,0.0208550002426,1.0,0.0,0.0,0.0,1.0,0.0,0.0,0.0,1.0,-0.487804889679,3.17073178291,0.18292683363,1.0,0.0,0.0,0.0,1.0,0.0,0.0,0.0,1.0,1.00077629395,-0.938527050781,10.1562034424,1.0,0.0,0.0,0.0,1.0,0.0,0.0,0.0,1.0
1463922777383000521,571,1463922777360188900,,-0.861117780209,-5.97373580933,-62.8557624817,0.0199420005083,1.0,0.0,0.0,0.0,1.0,0.0,0.0,0.0,1.0,-0.792682945728,3.17073178291,0.0609756112099,1.0,0.0,0.0,0.0,1.0,0.0,0.0,0.0,1.0,1.01514150391,-0.909796630859,10.0652237793,1.0,0.0,0.0,0.0,1.0,0.0,0.0,0.0,1.0
1463922777410300978,572,1463922777380182773,,-0.848792850971,-5.97389411926,-62.855632782,0.0205109994859,1.0,0.0,0.0,0.0,1.0,0.0,0.0,0.0,1.0,-0.914634168148,2.68292689323,0.426829278469,1.0,0.0,0.0,0.0,1.0,0.0,0.0,0.0,1.0,0.890643017578,-0.847547387695,10.0795889893,1.0,0.0,0.0,0.0,1.0,0.0,0.0,0.0,1.0
1463922777410778423,573,1463922777400880289,,-0.848537743092,-5.99253845215,-62.8501968384,0.0205370001495,1.0,0.0,0.0,0.0,1.0,0.0,0.0,0.0,1.0,-0.914634168148,2.07317066193,0.609756112099,1.0,0.0,0.0,0.0,1.0,0.0,0.0,0.0,1.0,0.895431420898,-1.01514150391,10.1418382324,1.0,0.0,0.0,0.0,1.0,0.0,0.0,0.0,1.0
1463922777447874411,574,1463922777421661033,,-0.866794109344,-5.99886131287,-62.8503112793,0.0202890001237,1.0,0.0,0.0,0.0,1.0,0.0,0.0,0.0,1.0,-0.487804889679,1.15853655338,0.243902444839,1.0,0.0,0.0,0.0,1.0,0.0,0.0,0.0,1.0,0.895431420898,-0.995987890625,10.2184526855,1.0,0.0,0.0,0.0,1.0,0.0,0.0,0.0,1.0
1463922777447962327,575,1463922777441713812,,-0.896020293236,-6.01565122604,-62.8500175476,0.0203510001302,1.0,0.0,0.0,0.0,1.0,0.0,0.0,0.0,1.0,-0.792682945728,0.975609779358,0.243902444839,1.0,0.0,0.0,0.0,1.0,0.0,0.0,0.0,1.0,0.972045874023,-1.04387185076,10.3046439453,1.0,0.0,0.0,0.0,1.0,0.0,0.0,0.0,1.0
1463922777488770486,576,1463922777460944615,,-0.930418074131,-6.01984739304,-62.8461875916,0.0204050000757,1.0,0.0,0.0,0.0,1.0,0.0,0.0,0.0,1.0,-0.548780500889,0.426829278469,0.365853667259,1.0,0.0,0.0,0.0,1.0,0.0,0.0,0.0,1.0,0.92416184082,-0.976834277344,10.299855542,1.0,0.0,0.0,0.0,1.0,0.0,0.0,0.0,1.0
1463922777488821475,577,1463922777481364372,,-0.95734333992,-6.02719640732,-62.8460578918,0.0203440003097,1.0,0.0,0.0,0.0,1.0,0.0,0.0,0.0,1.0,-0.792682945728,0.975609779358,0.243902444839,1.0,0.0,0.0,0.0,1.0,0.0,0.0,0.0,1.0,0.952892260742,-0.952892260742,10.2040874756,1.0,0.0,0.0,0.0,1.0,0.0,0.0,0.0,1.0
1463922777527909173,578,1463922777501943971,,-0.983601331711,-6.04143619537,-62.8393287659,0.0204099994153,1.0,0.0,0.0,0.0,1.0,0.0,0.0,0.0,1.0,-0.426829278469,1.46341466904,0.609756112099,1.0,0.0,0.0,0.0,1.0,0.0,0.0,0.0,1.0,1.0534486574,-1.08696755371,10.2567599121,1.0,0.0,0.0,0.0,1.0,0.0,0.0,0.0,1.0
1463922777529677394,579,1463922777522109927,,-0.989205479622,-6.07956838608,-62.8460617065,0.0204070005566,1.0,0.0,0.0,0.0,1.0,0.0,0.0,0.0,1.0,-0.914634168148,2.07317066193,0.0,1.0,0.0,0.0,0.0,1.0,0.0,0.0,0.0,1.0,0.972045874023,-1.21625444336,10.2471831055,1.0,0.0,0.0,0.0,1.0,0.0,0.0,0.0,1.0
1463922777571452841,580,1463922777542578537,,-0.979250907898,-6.09677696228,-62.8594360352,0.020408000797,1.0,0.0,0.0,0.0,1.0,0.0,0.0,0.0,1.0,-0.304878056049,2.74390244484,-0.243902444839,1.0,0.0,0.0,0.0,1.0,0.0,0.0,0.0,1.0,0.943315454102,-1.13963999023,10.1753570557,1.0,0.0,0.0,0.0,1.0,0.0,0.0,0.0,1.0
1463922777571501278,581,1463922777562950065,,-0.890971124172,-6.10635471344,-62.8759536743,0.0204259995371,1.0,0.0,0.0,0.0,1.0,0.0,0.0,0.0,1.0,-0.426829278469,3.53658556938,-0.304878056049,1.0,0.0,0.0,0.0,1.0,0.0,0.0,0.0,1.0,0.378283862305,-1.02950671387,9.95030209961,1.0,0.0,0.0,0.0,1.0,0.0,0.0,0.0,1.0
1463922777610793818,582,1463922777583261801,,-0.782964706421,-6.04704284668,-62.8497848511,0.0203820001334,1.0,0.0,0.0,0.0,1.0,0.0,0.0,0.0,1.0,2.19512200356,-0.792682945728,1.34146344662,1.0,0.0,0.0,0.0,1.0,0.0,0.0,0.0,1.0,-0.521935925381,-0.861912597656,9.62947966167,1.0,0.0,0.0,0.0,1.0,0.0,0.0,0.0,1.0
1463922777611067255,583,1463922777603817546,,-0.791931867599,-6.05111598969,-62.8057823181,0.020422000438,1.0,0.0,0.0,0.0,1.0,0.0,0.0,0.0,1.0,1.2804877758,-1.2804877758,2.13414645195,1.0,0.0,0.0,0.0,1.0,0.0,0.0,0.0,1.0,0.397437475586,-1.30723410645,10.2519715088,1.0,0.0,0.0,0.0,1.0,0.0,0.0,0.0,1.0
1463922777652783847,584,1463922777624187615,,-0.871820211411,-5.95516109467,-62.800743103,0.0204019993544,1.0,0.0,0.0,0.0,1.0,0.0,0.0,0.0,1.0,0.304878056049,-2.98780488968,0.12195122242,1.0,0.0,0.0,0.0,1.0,0.0,0.0,0.0,1.0,0.641646044922,-0.225054956055,9.66299848491,1.0,0.0,0.0,0.0,1.0,0.0,0.0,0.0,1.0
1463922777652853326,585,1463922777644932110,,-1.10012209415,-5.91061782837,-62.8107948303,0.0204390008003,1.0,0.0,0.0,0.0,1.0,0.0,0.0,0.0,1.0,1.03658533096,-5.42682933807,-0.914634168148,1.0,0.0,0.0,0.0,1.0,0.0,0.0,0.0,1.0,1.57538469238,-0.818816967773,10.299855542,1.0,0.0,0.0,0.0,1.0,0.0,0.0,0.0,1.0
1463922777688200883,586,1463922777665216815,,-1.23705470562,-5.84313201904,-62.7613182068,0.0204050000757,1.0,0.0,0.0,0.0,1.0,0.0,0.0,0.0,1.0,-0.18292683363,1.64634156227,2.80487799644,1.0,0.0,0.0,0.0,1.0,0.0,0.0,0.0,1.0,2.23139594727,-0.368707055664,10.5632177246,1.0,0.0,0.0,0.0,1.0,0.0,0.0,0.0,1.0
1463922777688261195,587,1463922777685563447,,-1.20715415478,-5.81322908401,-62.7579498291,0.0203959997743,1.0,0.0,0.0,0.0,1.0,0.0,0.0,0.0,1.0,1.8292683363,8.5365858078,1.15853655338,1.0,0.0,0.0,0.0,1.0,0.0,0.0,0.0,1.0,1.87705410156,-1.04866025408,10.046070166,1.0,0.0,0.0,0.0,1.0,0.0,0.0,0.0,1.0
1463922777738112493,588,1463922777706006224,,-1.08082509041,-5.60781002045,-62.8387069702,0.020433999598,1.0,0.0,0.0,0.0,1.0,0.0,0.0,0.0,1.0,7.19512224197,5.54878091812,-3.23170733452,1.0,0.0,0.0,0.0,1.0,0.0,0.0,0.0,1.0,0.407014282227,-0.497993945312,10.3716815918,1.0,0.0,0.0,0.0,1.0,0.0,0.0,0.0,1.0
1463922777738443533,589,1463922777726374262,,-0.800151288509,-5.20848989487,-62.9532966614,0.0203789994121,1.0,0.0,0.0,0.0,1.0,0.0,0.0,0.0,1.0,12.1341466904,3.23170733452,-5.12195110321,1.0,0.0,0.0,0.0,1.0,0.0,0.0,0.0,1.0,-1.39821376953,0.378283862305,9.82101520996,1.0,0.0,0.0,0.0,1.0,0.0,0.0,0.0,1.0
1463922777759388600,590,1463922777747390526,,-0.798453211784,-5.06517791748,-62.8672981262,0.0204489994794,1.0,0.0,0.0,0.0,1.0,0.0,0.0,0.0,1.0,4.63414621353,-4.20731735229,3.96341490746,1.0,0.0,0.0,0.0,1.0,0.0,0.0,0.0,1.0,-0.196324536133,-0.435744702148,10.0125513428,1.0,0.0,0.0,0.0,1.0,0.0,0.0,0.0,1.0
1463922777780168146,591,1463922777767549659,,-0.90150231123,-4.67435121536,-62.7424125671,0.020372999832,1.0,0.0,0.0,0.0,1.0,0.0,0.0,0.0,1.0,2.86585378647,1.76829278469,6.64634132385,1.0,0.0,0.0,0.0,1.0,0.0,0.0,0.0,1.0,1.76213242187,2.06859023437,9.4570959731,1.0,0.0,0.0,0.0,1.0,0.0,0.0,0.0,1.0
1463922777790077948,592,1463922777787863374,,-0.926462054253,-4.03265142441,-62.6323890686,0.0203879997134,1.0,0.0,0.0,0.0,1.0,0.0,0.0,0.0,1.0,14.5121955872,7.74390268326,6.40243911743,1.0,0.0,0.0,0.0,1.0,0.0,0.0,0.0,1.0,2.43250888672,2.57137258301,10.6637741943,1.0,0.0,0.0,0.0,1.0,0.0,0.0,0.0,1.0
1463922777819053553,593,1463922777809231355,,-0.719322681427,-3.52846860886,-62.6673202515,0.0204189997166,1.0,0.0,0.0,0.0,1.0,0.0,0.0,0.0,1.0,13.7804880142,15.4878053665,-0.426829278469,1.0,0.0,0.0,0.0,1.0,0.0,0.0,0.0,1.0,1.67115275879,1.4844050293,11.3628810791,1.0,0.0,0.0,0.0,1.0,0.0,0.0,0.0,1.0
1463922777835368692,594,1463922777829137729,,-0.45200291276,-3.24927163124,-62.5852622986,0.0204230006784,1.0,0.0,0.0,0.0,1.0,0.0,0.0,0.0,1.0,4.32926845551,8.90243911743,4.69512224197,1.0,0.0,0.0,0.0,1.0,0.0,0.0,0.0,1.0,-0.234631762695,1.19710090314,10.898405957,1.0,0.0,0.0,0.0,1.0,0.0,0.0,0.0,1.0
1463922777859766816,595,1463922777849689307,,-0.269733279943,-3.29101276398,-62.4496192932,0.0204520002007,1.0,0.0,0.0,0.0,1.0,0.0,0.0,0.0,1.0,-0.304878056049,6.34146356583,7.01219511032,1.0,0.0,0.0,0.0,1.0,0.0,0.0,0.0,1.0,0.0478840332031,-0.804451757813,9.78749638672,1.0,0.0,0.0,0.0,1.0,0.0,0.0,0.0,1.0
1463922777878320122,596,1463922777869489066,,-0.0719221234322,-3.33557248116,-62.3327598572,0.0205269996077,1.0,0.0,0.0,0.0,1.0,0.0,0.0,0.0,1.0,-3.90243911743,4.20731735229,5.97560977936,1.0,0.0,0.0,0.0,1.0,0.0,0.0,0.0,1.0,-0.541089611728,-0.239420166016,10.8888291504,1.0,0.0,0.0,0.0,1.0,0.0,0.0,0.0,1.0
1463922777895340258,597,1463922777889900802,,-0.223532274365,-3.34818887711,-61.9690551758,0.02024500072,1.0,0.0,0.0,0.0,1.0,0.0,0.0,0.0,1.0,-2.43902444839,2.80487799644,18.1707305908,1.0,0.0,0.0,0.0,1.0,0.0,0.0,0.0,1.0,2.26491477051,-0.181959326172,9.27513723145,1.0,0.0,0.0,0.0,1.0,0.0,0.0,0.0,1.0
1463922777912219405,598,1463922777909946966,,-0.18309494853,-3.46101307869,-61.7308158875,0.0204039998353,1.0,0.0,0.0,0.0,1.0,0.0,0.0,0.0,1.0,-3.96341490746,1.03658533096,11.7682924271,1.0,0.0,0.0,0.0,1.0,0.0,0.0,0.0,1.0,0.335188232422,-0.77093293457,9.5193463853,1.0,0.0,0.0,0.0,1.0,0.0,0.0,0.0,1.0
1463922777939165956,599,1463922777930623180,,-0.177365466952,-3.24622440338,-61.3990058899,0.0204089991748,1.0,0.0,0.0,0.0,1.0,0.0,0.0,0.0,1.0,-0.609756112099,-1.95121955872,16.2195110321,1.0,0.0,0.0,0.0,1.0,0.0,0.0,0.0,1.0,0.15322890625,1.35511813965,9.39963513325,1.0,0.0,0.0,0.0,1.0,0.0,0.0,0.0,1.0
1463922777953692613,600,1463922777951027832,,-0.170195430517,-3.07079601288,-61.0352554321,0.0203920006752,1.0,0.0,0.0,0.0,1.0,0.0,0.0,0.0,1.0,1.2195122242,-1.58536589146,17.8048782349,1.0,0.0,0.0,0.0,1.0,0.0,0.0,0.0,1.0,0.244208569336,0.890643017578,11.1617681396,1.0,0.0,0.0,0.0,1.0,0.0,0.0,0.0,1.0
1463922777977603292,601,1463922777971817275,,-0.213314130902,-3.10905694962,-60.6782875061,0.0204470008612,1.0,0.0,0.0,0.0,1.0,0.0,0.0,0.0,1.0,-0.365853667259,-2.98780488968,17.317073822,1.0,0.0,0.0,0.0,1.0,0.0,0.0,0.0,1.0,0.392649072266,-0.737414111328,9.8784760498,1.0,0.0,0.0,0.0,1.0,0.0,0.0,0.0,1.0
1463922777998343568,602,1463922777991627919,,-0.342422366142,-3.15902018547,-60.3301734924,0.0203740000725,1.0,0.0,0.0,0.0,1.0,0.0,0.0,0.0,1.0,-2.01219511032,-2.92682933807,16.9512195587,1.0,0.0,0.0,0.0,1.0,0.0,0.0,0.0,1.0,1.28808049316,-0.61770402832,11.0276928467,1.0,0.0,0.0,0.0,1.0,0.0,0.0,0.0,1.0
1463922778013840168,603,1463922778011973457,,-0.468340724707,-3.34962415695,-59.9401550293,0.0204029995948,1.0,0.0,0.0,0.0,1.0,0.0,0.0,0.0,1.0,-4.39024400711,-4.81707286835,18.841463089,1.0,0.0,0.0,0.0,1.0,0.0,0.0,0.0,1.0,0.833182177734,-1.33117612305,9.73003554687,1.0,0.0,0.0,0.0,1.0,0.0,0.0,0.0,1.0
1463922778036142364,604,1463922778032312016,,-0.589792966843,-3.24968862534,-59.5923652649,0.0204179994762,1.0,0.0,0.0,0.0,1.0,0.0,0.0,0.0,1.0,-6.52439069748,-3.84146332741,16.9512195587,1.0,0.0,0.0,0.0,1.0,0.0,0.0,0.0,1.0,0.842758984375,1.30244570312,8.45153127583,1.0,0.0,0.0,0.0,1.0,0.0,0.0,0.0,1.0
1463922778054932961,605,1463922778052842762,,-0.805597662926,-3.33785033226,-59.2241897583,0.020408000797,1.0,0.0,0.0,0.0,1.0,0.0,0.0,0.0,1.0,-1.2804877758,-6.28048801422,17.6829280853,1.0,0.0,0.0,0.0,1.0,0.0,0.0,0.0,1.0,1.35032973633,-0.976834277344,9.50976957866,1.0,0.0,0.0,0.0,1.0,0.0,0.0,0.0,1.0
1463922778078063331,606,1463922778073126842,,-0.902200698853,-3.46128535271,-58.7703437805,0.0203930009156,1.0,0.0,0.0,0.0,1.0,0.0,0.0,0.0,1.0,-5.36585378647,-2.68292689323,22.1341457367,1.0,0.0,0.0,0.0,1.0,0.0,0.0,0.0,1.0,1.13963999023,-0.622492431641,10.3668931885,1.0,0.0,0.0,0.0,1.0,0.0,0.0,0.0,1.0
1463922778107050342,607,1463922778093763212,,-1.02825856209,-3.56124067307,-58.3314704895,0.0204349998385,1.0,0.0,0.0,0.0,1.0,0.0,0.0,0.0,1.0,-5.54878091812,-4.2682929039,21.2804889679,1.0,0.0,0.0,0.0,1.0,0.0,0.0,0.0,1.0,1.06302561017,-0.368707055664,9.76834277344,1.0,0.0,0.0,0.0,1.0,0.0,0.0,0.0,1.0
1463922778118330607,608,1463922778114599894,,-1.06381130219,-3.9430911541,-57.9346427917,0.0203980002552,1.0,0.0,0.0,0.0,1.0,0.0,0.0,0.0,1.0,-14.5121955872,-0.731707334518,19.3902435303,1.0,0.0,0.0,0.0,1.0,0.0,0.0,0.0,1.0,0.986411083984,-1.31681091309,10.3956236084,1.0,0.0,0.0,0.0,1.0,0.0,0.0,0.0,1.0
1463922778201646969,609,1463922778135026994,,-1.0818696022,-4.21178293228,-57.5050239563,0.0204230006784,1.0,0.0,0.0,0.0,1.0,0.0,0.0,0.0,1.0,-11.8292684555,0.853658556938,21.158536911,1.0,0.0,0.0,0.0,1.0,0.0,0.0,0.0,1.0,1.10133276367,-0.794874951172,9.79707319336,1.0,0.0,0.0,0.0,1.0,0.0,0.0,0.0,1.0
1463922778204533572,610,1463922778155020189,,-1.05751860142,-4.83510065079,-57.0813903809,0.0204169992357,1.0,0.0,0.0,0.0,1.0,0.0,0.0,0.0,1.0,-25.5487804413,0.365853667259,20.7926826477,1.0,0.0,0.0,0.0,1.0,0.0,0.0,0.0,1.0,0.732625708008,-1.59453830566,10.5105452881,1.0,0.0,0.0,0.0,1.0,0.0,0.0,0.0,1.0
1463922778204967476,611,1463922778175820726,,-1.02090227604,-5.33286428452,-56.7175712585,0.0204140003771,1.0,0.0,0.0,0.0,1.0,0.0,0.0,0.0,1.0,-14.6341466904,-0.487804889679,17.7439022064,1.0,0.0,0.0,0.0,1.0,0.0,0.0,0.0,1.0,0.474051928711,-2.80121594238,11.0947304932,1.0,0.0,0.0,0.0,1.0,0.0,0.0,0.0,1.0
1463922778205273464,612,1463922778196440117,,-0.943871438503,-5.40191984177,-56.3772888184,0.0203959997743,1.0,0.0,0.0,0.0,1.0,0.0,0.0,0.0,1.0,2.25609779358,0.853658556938,16.8292694092,1.0,0.0,0.0,0.0,1.0,0.0,0.0,0.0,1.0,0.378283862305,-2.33674067418,12.5982891357,1.0,0.0,0.0,0.0,1.0,0.0,0.0,0.0,1.0
1463922778305306839,613,1463922778216819769,,-0.796016693115,-5.26380300522,-55.9185752869,0.0203900001943,1.0,0.0,0.0,0.0,1.0,0.0,0.0,0.0,1.0,6.82926845551,-1.2195122242,22.5609760284,1.0,0.0,0.0,0.0,1.0,0.0,0.0,0.0,1.0,-0.703895288086,-0.986411083984,11.6118780518,1.0,0.0,0.0,0.0,1.0,0.0,0.0,0.0,1.0
1463922778305547098,614,1463922778236707861,,-0.718020319939,-5.23832798004,-55.3030471802,0.0204230006784,1.0,0.0,0.0,0.0,1.0,0.0,0.0,0.0,1.0,4.51219558716,-5.85365867615,29.7560997009,1.0,0.0,0.0,0.0,1.0,0.0,0.0,0.0,1.0,-0.91458503418,-1.72861359863,12.4306950195,1.0,0.0,0.0,0.0,1.0,0.0,0.0,0.0,1.0
1463922778305790899,615,1463922778257075482,,-0.799278974533,-5.16987705231,-54.6191673279,0.0204050000757,1.0,0.0,0.0,0.0,1.0,0.0,0.0,0.0,1.0,8.78048801422,-15.3048791885,32.2560958862,1.0,0.0,0.0,0.0,1.0,0.0,0.0,0.0,1.0,-1.25935007324,-2.21224233398,12.4833674561,1.0,0.0,0.0,0.0,1.0,0.0,0.0,0.0,1.0
1463922778352445387,616,1463922778277533259,,-1.12490618229,-4.98265028,-53.8634681702,0.0204000007361,1.0,0.0,0.0,0.0,1.0,0.0,0.0,0.0,1.0,12.8658542633,-27.3780498505,34.7560997009,1.0,0.0,0.0,0.0,1.0,0.0,0.0,0.0,1.0,-1.2497732666,-1.81959326172,12.9095353516,1.0,0.0,0.0,0.0,1.0,0.0,0.0,0.0,1.0
1463922778352486741,617,1463922778298170098,,-1.6613689661,-4.75320768356,-53.025970459,0.0203980002552,1.0,0.0,0.0,0.0,1.0,0.0,0.0,0.0,1.0,16.6463413239,-37.7439041138,37.9268302917,1.0,0.0,0.0,0.0,1.0,0.0,0.0,0.0,1.0,-1.13006318359,-2.06380183105,12.7610948486,1.0,0.0,0.0,0.0,1.0,0.0,0.0,0.0,1.0
1463922778364672887,618,1463922778318780948,,-2.29985356331,-4.46512556076,-52.0652198792,0.020428000018,1.0,0.0,0.0,0.0,1.0,0.0,0.0,0.0,1.0,21.0365848541,-40.3048782349,43.7804870605,1.0,0.0,0.0,0.0,1.0,0.0,0.0,0.0,1.0,-0.387860668945,-2.20266552734,12.6701151855,1.0,0.0,0.0,0.0,1.0,0.0,0.0,0.0,1.0
1463922778364940907,619,1463922778339087475,,-2.83512663841,-4.09059476852,-50.9408416748,0.0205070003867,1.0,0.0,0.0,0.0,1.0,0.0,0.0,0.0,1.0,25.0609760284,-32.9268302917,52.317073822,1.0,0.0,0.0,0.0,1.0,0.0,0.0,0.0,1.0,0.339976635742,-1.92014973145,12.7179992187,1.0,0.0,0.0,0.0,1.0,0.0,0.0,0.0,1.0
1463922778399782528,620,1463922778359427909,,-3.16774249077,-3.67167258263,-49.7315597534,0.0203210003674,1.0,0.0,0.0,0.0,1.0,0.0,0.0,0.0,1.0,29.1463413239,-24.0243911743,57.6829299927,1.0,0.0,0.0,0.0,1.0,0.0,0.0,0.0,1.0,0.268150604204,-2.13083962367,13.0196686279,1.0,0.0,0.0,0.0,1.0,0.0,0.0,0.0,1.0
1463922778403876209,621,1463922778379277095,,-3.41620492935,-3.19082689285,-48.5409622192,0.0203699991107,1.0,0.0,0.0,0.0,1.0,0.0,0.0,0.0,1.0,32.0121955872,-22.3780498505,56.8292694092,1.0,0.0,0.0,0.0,1.0,0.0,0.0,0.0,1.0,-0.354341845703,-1.89141931152,12.6509615723,1.0,0.0,0.0,0.0,1.0,0.0,0.0,0.0,1.0
1463922778451048090,622,1463922778402866005,,-3.73501110077,-2.66586208344,-47.4220352173,0.0204419996589,1.0,0.0,0.0,0.0,1.0,0.0,0.0,0.0,1.0,32.5,-28.7804889679,52.9878044128,1.0,0.0,0.0,0.0,1.0,0.0,0.0,0.0,1.0,-1.13006318359,-1.40300217285,12.5887123291,1.0,0.0,0.0,0.0,1.0,0.0,0.0,0.0,1.0
1463922778451104184,623,1463922778420406815,,-4.23512554169,-2.18234109879,-46.3443870544,0.0204290002584,1.0,0.0,0.0,0.0,1.0,0.0,0.0,0.0,1.0,30.1219520569,-36.0975646973,50.9146347046,1.0,0.0,0.0,0.0,1.0,0.0,0.0,0.0,1.0,-0.842758984375,-1.16837033709,12.8424977051,1.0,0.0,0.0,0.0,1.0,0.0,0.0,0.0,1.0
1463922778516946663,624,1463922778441949015,,-4.8078956604,-1.78384518623,-45.2549209595,0.0203709993511,1.0,0.0,0.0,0.0,1.0,0.0,0.0,0.0,1.0,26.7073173523,-37.9878044128,51.7682952881,1.0,0.0,0.0,0.0,1.0,0.0,0.0,0.0,1.0,-0.411802685547,-1.08696755371,12.7994020752,1.0,0.0,0.0,0.0,1.0,0.0,0.0,0.0,1.0
1463922778517341870,625,1463922778461434973,,-5.35199069977,-1.49936652184,-44.102973938,0.0204240009189,1.0,0.0,0.0,0.0,1.0,0.0,0.0,0.0,1.0,22.7439041138,-35.5487823486,54.817073822,1.0,0.0,0.0,0.0,1.0,0.0,0.0,0.0,1.0,-0.114921679688,-1.17794714373,12.5504051025,1.0,0.0,0.0,0.0,1.0,0.0,0.0,0.0,1.0
1463922778534789191,626,1463922778481745407,,-5.77651929855,-1.32805466652,-42.8679885864,0.0204019993544,1.0,0.0,0.0,0.0,1.0,0.0,0.0,0.0,1.0,18.1097564697,-29.0853672028,59.1463394165,1.0,0.0,0.0,0.0,1.0,0.0,0.0,0.0,1.0,0.119710083008,-1.12527478027,12.6030775391,1.0,0.0,0.0,0.0,1.0,0.0,0.0,0.0,1.0
1463922778534854347,627,1463922778501995737,,-6.04781007767,-1.23664283752,-41.562713623,0.0203709993511,1.0,0.0,0.0,0.0,1.0,0.0,0.0,0.0,1.0,14.4512205124,-22.682926178,62.865852356,1.0,0.0,0.0,0.0,1.0,0.0,0.0,0.0,1.0,-0.0430956298828,-0.976834277344,12.5695587158,1.0,0.0,0.0,0.0,1.0,0.0,0.0,0.0,1.0
1463922778559612835,628,1463922778524899702,,-6.26287984848,-1.24295854568,-40.0555725098,0.0230390001088,1.0,0.0,0.0,0.0,1.0,0.0,0.0,0.0,1.0,9.14634132385,-20.5487823486,64.3292694092,1.0,0.0,0.0,0.0,1.0,0.0,0.0,0.0,1.0,-0.373495458984,-0.694318481445,11.7555301514,1.0,0.0,0.0,0.0,1.0,0.0,0.0,0.0,1.0
1463922778559653564,629,1463922778546544818,,-6.49799156189,-1.35607516766,-38.6909751892,0.0213259998709,1.0,0.0,0.0,0.0,1.0,0.0,0.0,0.0,1.0,4.63414621353,-26.6463432312,62.682926178,1.0,0.0,0.0,0.0,1.0,0.0,0.0,0.0,1.0,-1.25456166992,-0.785298144531,11.7220113281,1.0,0.0,0.0,0.0,1.0,0.0,0.0,0.0,1.0
