%time,field.header.seq,field.header.stamp,field.header.frame_id,field.orientation.x,field.orientation.y,field.orientation.z,field.orientation.w,field.orientation_covariance0,field.orientation_covariance1,field.orientation_covariance2,field.orientation_covariance3,field.orientation_covariance4,field.orientation_covariance5,field.orientation_covariance6,field.orientation_covariance7,field.orientation_covariance8,field.angular_velocity.x,field.angular_velocity.y,field.angular_velocity.z,field.angular_velocity_covariance0,field.angular_velocity_covariance1,field.angular_velocity_covariance2,field.angular_velocity_covariance3,field.angular_velocity_covariance4,field.angular_velocity_covariance5,field.angular_velocity_covariance6,field.angular_velocity_covariance7,field.angular_velocity_covariance8,field.linear_acceleration.x,field.linear_acceleration.y,field.linear_acceleration.z,field.linear_acceleration_covariance0,field.linear_acceleration_covariance1,field.linear_acceleration_covariance2,field.linear_acceleration_covariance3,field.linear_acceleration_covariance4,field.linear_acceleration_covariance5,field.linear_acceleration_covariance6,field.linear_acceleration_covariance7,field.linear_acceleration_covariance8
1463929914924880017,238,1463929914922427163,,-11.6627693176,-16.5646152496,119.7579422,0.00170599995181,1.0,0.0,0.0,0.0,1.0,0.0,0.0,0.0,1.0,-0.731707334518,1.15853655338,-4.20731735229,1.0,0.0,0.0,0.0,1.0,0.0,0.0,0.0,1.0,0.0335188255255,-0.742202514648,10.0508585693,1.0,0.0,0.0,0.0,1.0,0.0,0.0,0.0,1.0
1463929914945121649,239,1463929914942612545,,-11.3410263062,-16.3102588654,119.618598938,0.00139600003604,1.0,0.0,0.0,0.0,1.0,0.0,0.0,0.0,1.0,-1.34146344662,1.70731711388,-3.53658556938,1.0,0.0,0.0,0.0,1.0,0.0,0.0,0.0,1.0,-0.0191536132812,-0.756567724609,9.97424411621,1.0,0.0,0.0,0.0,1.0,0.0,0.0,0.0,1.0
1463929914968242175,240,1463929914964652139,,-11.0027828217,-16.0635948181,119.490623474,0.0020459999796,1.0,0.0,0.0,0.0,1.0,0.0,0.0,0.0,1.0,-1.64634156227,1.46341466904,-3.41463422775,1.0,0.0,0.0,0.0,1.0,0.0,0.0,0.0,1.0,-0.320823022461,-0.794874951172,10.1131078125,1.0,0.0,0.0,0.0,1.0,0.0,0.0,0.0,1.0
1463929914989562188,241,1463929914986606368,,-10.691567421,-15.8285598755,119.370643616,0.00157399999443,1.0,0.0,0.0,0.0,1.0,0.0,0.0,0.0,1.0,-1.95121955872,2.07317066193,-2.74390244484,1.0,0.0,0.0,0.0,1.0,0.0,0.0,0.0,1.0,-0.205901342773,-0.555454785156,10.3237975586,1.0,0.0,0.0,0.0,1.0,0.0,0.0,0.0,1.0
1463929915010161475,242,1463929915007697475,,-10.3730354309,-15.6096467972,119.271850586,0.00169399997685,1.0,0.0,0.0,0.0,1.0,0.0,0.0,0.0,1.0,-0.914634168148,1.70731711388,-2.43902444839,1.0,0.0,0.0,0.0,1.0,0.0,0.0,0.0,1.0,-0.143652099609,-0.900219824219,10.285490332,1.0,0.0,0.0,0.0,1.0,0.0,0.0,0.0,1.0
1463929915031093261,243,1463929915028431241,,-10.0828266144,-15.3921527863,119.175193787,0.00151099998038,1.0,0.0,0.0,0.0,1.0,0.0,0.0,0.0,1.0,-0.670731723309,1.58536589146,-3.10975623131,1.0,0.0,0.0,0.0,1.0,0.0,0.0,0.0,1.0,0.0191536132812,-1.04387185076,10.2184526855,1.0,0.0,0.0,0.0,1.0,0.0,0.0,0.0,1.0
1463929915051570777,244,1463929915049849431,,-9.78138065338,-15.1777772903,119.084991455,0.00158200005535,1.0,0.0,0.0,0.0,1.0,0.0,0.0,0.0,1.0,-0.853658556938,1.15853655338,-1.46341466904,1.0,0.0,0.0,0.0,1.0,0.0,0.0,0.0,1.0,0.00478840332031,-0.723048901367,10.2232410889,1.0,0.0,0.0,0.0,1.0,0.0,0.0,0.0,1.0
1463929915075335415,245,1463929915070444447,,-9.49619865417,-14.9795036316,119.017036438,0.00151099998038,1.0,0.0,0.0,0.0,1.0,0.0,0.0,0.0,1.0,-0.731707334518,1.8902438879,-1.52439022064,1.0,0.0,0.0,0.0,1.0,0.0,0.0,0.0,1.0,0.076614453125,-0.727837304687,10.3381627686,1.0,0.0,0.0,0.0,1.0,0.0,0.0,0.0,1.0
1463929915104645134,246,1463929915090684673,,-9.20450019836,-14.7766571045,118.946434021,0.00122099998407,1.0,0.0,0.0,0.0,1.0,0.0,0.0,0.0,1.0,0.243902444839,1.8902438879,-1.64634156227,1.0,0.0,0.0,0.0,1.0,0.0,0.0,0.0,1.0,-0.124498486328,-0.823605371094,10.3046439453,1.0,0.0,0.0,0.0,1.0,0.0,0.0,0.0,1.0
1463929915118757105,247,1463929915112560569,,-8.91248512268,-14.5502815247,118.879364014,0.00158000004012,1.0,0.0,0.0,0.0,1.0,0.0,0.0,0.0,1.0,0.12195122242,0.914634168148,-1.8902438879,1.0,0.0,0.0,0.0,1.0,0.0,0.0,0.0,1.0,-0.0957680664062,-0.871489404297,10.2471831055,1.0,0.0,0.0,0.0,1.0,0.0,0.0,0.0,1.0
1463929915138060928,248,1463929915133563135,,-8.66219520569,-14.3301897049,118.809593201,0.00142400001641,1.0,0.0,0.0,0.0,1.0,0.0,0.0,0.0,1.0,0.487804889679,1.2804877758,-2.5,1.0,0.0,0.0,0.0,1.0,0.0,0.0,0.0,1.0,-0.129286889648,-0.895431420898,10.0652237793,1.0,0.0,0.0,0.0,1.0,0.0,0.0,0.0,1.0
1463929915184068128,249,1463929915155069710,,-8.38078212738,-14.1124038696,118.755126953,0.00146399997175,1.0,0.0,0.0,0.0,1.0,0.0,0.0,0.0,1.0,0.365853667259,2.07317066193,-0.304878056049,1.0,0.0,0.0,0.0,1.0,0.0,0.0,0.0,1.0,-0.129286889648,-0.881066210937,10.2088758789,1.0,0.0,0.0,0.0,1.0,0.0,0.0,0.0,1.0
1463929915184826926,250,1463929915176771128,,-8.09209823608,-13.9104099274,118.727386475,0.00146800000221,1.0,0.0,0.0,0.0,1.0,0.0,0.0,0.0,1.0,0.426829278469,2.86585378647,0.304878056049,1.0,0.0,0.0,0.0,1.0,0.0,0.0,0.0,1.0,-0.0861912597656,-0.857124194336,10.4291424316,1.0,0.0,0.0,0.0,1.0,0.0,0.0,0.0,1.0
1463929915309285248,251,1463929915197749423,,-7.79154396057,-13.7022695541,118.707313538,0.00156300002709,1.0,0.0,0.0,0.0,1.0,0.0,0.0,0.0,1.0,1.2195122242,2.80487799644,0.0609756112099,1.0,0.0,0.0,0.0,1.0,0.0,0.0,0.0,1.0,-0.00478840332031,-0.809240161133,10.2136642822,1.0,0.0,0.0,0.0,1.0,0.0,0.0,0.0,1.0
1463929915309918683,252,1463929915219198082,,-7.50416660309,-13.4843025208,118.686225891,0.00137700000778,1.0,0.0,0.0,0.0,1.0,0.0,0.0,0.0,1.0,0.975609779358,3.04878044128,0.365853667259,1.0,0.0,0.0,0.0,1.0,0.0,0.0,0.0,1.0,-0.0909796630859,-0.814028564453,10.2088758789,1.0,0.0,0.0,0.0,1.0,0.0,0.0,0.0,1.0
1463929915309970818,253,1463929915240982416,,-7.20473384857,-13.2737321854,118.681159973,0.00223500002176,1.0,0.0,0.0,0.0,1.0,0.0,0.0,0.0,1.0,1.46341466904,2.56097555161,1.2195122242,1.0,0.0,0.0,0.0,1.0,0.0,0.0,0.0,1.0,0.0,-0.909796630859,10.2567599121,1.0,0.0,0.0,0.0,1.0,0.0,0.0,0.0,1.0
1463929915310009360,254,1463929915262169617,,-6.95227193832,-13.0599193573,118.674194336,0.00288200005889,1.0,0.0,0.0,0.0,1.0,0.0,0.0,0.0,1.0,1.8292683363,2.07317066193,0.304878056049,1.0,0.0,0.0,0.0,1.0,0.0,0.0,0.0,1.0,0.0861912597656,-0.881066210937,10.2184526855,1.0,0.0,0.0,0.0,1.0,0.0,0.0,0.0,1.0
1463929915310311286,255,1463929915286692272,,-6.67348766327,-12.8380250931,118.651145935,0.00256299995817,1.0,0.0,0.0,0.0,1.0,0.0,0.0,0.0,1.0,1.64634156227,2.13414645195,-0.548780500889,1.0,0.0,0.0,0.0,1.0,0.0,0.0,0.0,1.0,-0.205901342773,-0.785298144531,10.2040874756,1.0,0.0,0.0,0.0,1.0,0.0,0.0,0.0,1.0
1463929915323176283,256,1463929915307875515,,-6.42210388184,-12.6143321991,118.609893799,0.00412099994719,1.0,0.0,0.0,0.0,1.0,0.0,0.0,0.0,1.0,1.15853655338,1.64634156227,-1.52439022064,1.0,0.0,0.0,0.0,1.0,0.0,0.0,0.0,1.0,-0.0861912597656,-0.76135612793,10.1370498291,1.0,0.0,0.0,0.0,1.0,0.0,0.0,0.0,1.0
1463929915412834650,257,1463929915330440939,,-6.18868350983,-12.394080162,118.574302673,0.00398499984294,1.0,0.0,0.0,0.0,1.0,0.0,0.0,0.0,1.0,1.76829278469,2.43902444839,-0.426829278469,1.0,0.0,0.0,0.0,1.0,0.0,0.0,0.0,1.0,0.129286889648,-0.61770402832,10.2232410889,1.0,0.0,0.0,0.0,1.0,0.0,0.0,0.0,1.0
1463929915413118919,258,1463929915350678405,,-5.95580530167,-12.1912078857,118.555953979,0.00317599996924,1.0,0.0,0.0,0.0,1.0,0.0,0.0,0.0,1.0,1.58536589146,2.31707310677,-0.365853667259,1.0,0.0,0.0,0.0,1.0,0.0,0.0,0.0,1.0,0.100556469727,-0.627280834961,10.1370498291,1.0,0.0,0.0,0.0,1.0,0.0,0.0,0.0,1.0
1463929915413428084,259,1463929915374581896,,-5.68236732483,-11.9850301743,118.518692017,0.00466899992898,1.0,0.0,0.0,0.0,1.0,0.0,0.0,0.0,1.0,0.243902444839,2.43902444839,-0.609756112099,1.0,0.0,0.0,0.0,1.0,0.0,0.0,0.0,1.0,-0.0383072265625,-0.641646044922,10.1322614258,1.0,0.0,0.0,0.0,1.0,0.0,0.0,0.0,1.0
1463929915413723656,260,1463929915397461382,,-5.44009590149,-11.7836704254,118.488357544,0.00274599995464,1.0,0.0,0.0,0.0,1.0,0.0,0.0,0.0,1.0,1.03658533096,3.10975623131,-0.731707334518,1.0,0.0,0.0,0.0,1.0,0.0,0.0,0.0,1.0,0.00478840332031,-0.76135612793,10.2615483154,1.0,0.0,0.0,0.0,1.0,0.0,0.0,0.0,1.0
1463929915429277496,261,1463929915417508327,,-5.21728658676,-11.6134500504,118.456382751,0.00174400000833,1.0,0.0,0.0,0.0,1.0,0.0,0.0,0.0,1.0,1.2195122242,2.43902444839,-1.34146344662,1.0,0.0,0.0,0.0,1.0,0.0,0.0,0.0,1.0,0.0814028564453,-0.799663354492,10.165780249,1.0,0.0,0.0,0.0,1.0,0.0,0.0,0.0,1.0
1463929915449234754,262,1463929915441329528,,-4.97680091858,-11.4190559387,118.414733887,0.00447200005874,1.0,0.0,0.0,0.0,1.0,0.0,0.0,0.0,1.0,0.609756112099,2.07317066193,-1.40243899822,1.0,0.0,0.0,0.0,1.0,0.0,0.0,0.0,1.0,0.119710083008,-0.660799658203,10.2950671387,1.0,0.0,0.0,0.0,1.0,0.0,0.0,0.0,1.0
1463929915469788885,263,1463929915462695374,,-4.75557994843,-11.2513628006,118.381752014,0.00235800002702,1.0,0.0,0.0,0.0,1.0,0.0,0.0,0.0,1.0,0.487804889679,2.80487799644,-1.03658533096,1.0,0.0,0.0,0.0,1.0,0.0,0.0,0.0,1.0,0.0191536132812,-0.560243188477,10.1131078125,1.0,0.0,0.0,0.0,1.0,0.0,0.0,0.0,1.0
1463929915488797606,264,1463929915484685072,,-4.53521156311,-11.0883169174,118.351852417,0.0018459999701,1.0,0.0,0.0,0.0,1.0,0.0,0.0,0.0,1.0,-0.0609756112099,2.5,-1.2804877758,1.0,0.0,0.0,0.0,1.0,0.0,0.0,0.0,1.0,-0.0526724365234,-0.632069238281,10.3333743652,1.0,0.0,0.0,0.0,1.0,0.0,0.0,0.0,1.0
1463929915510863605,265,1463929915506055918,,-4.32449054718,-10.9321527481,118.321327209,0.00175299996044,1.0,0.0,0.0,0.0,1.0,0.0,0.0,0.0,1.0,0.0,2.37804889679,-0.914634168148,1.0,0.0,0.0,0.0,1.0,0.0,0.0,0.0,1.0,-0.138863696289,-0.478840332031,10.2184526855,1.0,0.0,0.0,0.0,1.0,0.0,0.0,0.0,1.0
1463929915532342003,266,1463929915526836350,,-4.12050390244,-10.7959871292,118.306343079,0.00249100010842,1.0,0.0,0.0,0.0,1.0,0.0,0.0,0.0,1.0,0.0,2.19512200356,0.18292683363,1.0,0.0,0.0,0.0,1.0,0.0,0.0,0.0,1.0,-0.0526724365234,-0.598550451572,10.1945106689,1.0,0.0,0.0,0.0,1.0,0.0,0.0,0.0,1.0
1463929915589090354,267,1463929915548575840,,-3.91491651535,-10.6624832153,118.316864014,0.00376700004563,1.0,0.0,0.0,0.0,1.0,0.0,0.0,0.0,1.0,-0.18292683363,2.19512200356,0.914634168148,1.0,0.0,0.0,0.0,1.0,0.0,0.0,0.0,1.0,0.0430956298828,-0.670376464844,10.165780249,1.0,0.0,0.0,0.0,1.0,0.0,0.0,0.0,1.0
1463929915621851673,268,1463929915569472209,,-3.70555520058,-10.5227947235,118.339126587,0.00279899989255,1.0,0.0,0.0,0.0,1.0,0.0,0.0,0.0,1.0,0.243902444839,1.70731711388,1.46341466904,1.0,0.0,0.0,0.0,1.0,0.0,0.0,0.0,1.0,-0.119710083008,-0.675164868164,10.2376062988,1.0,0.0,0.0,0.0,1.0,0.0,0.0,0.0,1.0
1463929915644075171,269,1463929915590718577,,-3.5222299099,-10.374341011,118.375366211,0.00282700010575,1.0,0.0,0.0,0.0,1.0,0.0,0.0,0.0,1.0,0.365853667259,0.487804889679,1.58536589146,1.0,0.0,0.0,0.0,1.0,0.0,0.0,0.0,1.0,-0.105344873047,-0.545877978516,10.3094323486,1.0,0.0,0.0,0.0,1.0,0.0,0.0,0.0,1.0
1463929915644274441,270,1463929915612565410,,-3.37437105179,-10.2301845551,118.409690857,0.00141999998596,1.0,0.0,0.0,0.0,1.0,0.0,0.0,0.0,1.0,0.853658556938,0.670731723309,1.52439022064,1.0,0.0,0.0,0.0,1.0,0.0,0.0,0.0,1.0,-0.143652099609,-0.775721337891,10.1131078125,1.0,0.0,0.0,0.0,1.0,0.0,0.0,0.0,1.0
1463929915644434441,271,1463929915633814798,,-3.21008515358,-10.0826063156,118.440940857,0.00166599999648,1.0,0.0,0.0,0.0,1.0,0.0,0.0,0.0,1.0,-0.12195122242,2.56097555161,1.03658533096,1.0,0.0,0.0,0.0,1.0,0.0,0.0,0.0,1.0,0.114921679688,-0.699106884766,10.285490332,1.0,0.0,0.0,0.0,1.0,0.0,0.0,0.0,1.0
1463929915659671875,272,1463929915655774184,,-2.99877882004,-9.96669006348,118.474479675,0.00164499995299,1.0,0.0,0.0,0.0,1.0,0.0,0.0,0.0,1.0,-0.12195122242,3.10975623131,1.76829278469,1.0,0.0,0.0,0.0,1.0,0.0,0.0,0.0,1.0,-0.0718260498047,-0.823605371094,10.1322614258,1.0,0.0,0.0,0.0,1.0,0.0,0.0,0.0,1.0
1463929915688994146,273,1463929915677319352,,-2.78698563576,-9.85508728027,118.519638062,0.00211800006218,1.0,0.0,0.0,0.0,1.0,0.0,0.0,0.0,1.0,-0.975609779358,3.47560977936,2.25609779358,1.0,0.0,0.0,0.0,1.0,0.0,0.0,0.0,1.0,-0.119710083008,-0.689530078125,10.2136642822,1.0,0.0,0.0,0.0,1.0,0.0,0.0,0.0,1.0
1463929915703026794,274,1463929915699685350,,-2.5947022438,-9.75870990753,118.559875488,0.00200899993069,1.0,0.0,0.0,0.0,1.0,0.0,0.0,0.0,1.0,-0.670731723309,2.68292689323,2.07317066193,1.0,0.0,0.0,0.0,1.0,0.0,0.0,0.0,1.0,0.00478840332031,-0.689530078125,10.1083194092,1.0,0.0,0.0,0.0,1.0,0.0,0.0,0.0,1.0
1463929915755031884,275,1463929915721398330,,-2.42228150368,-9.65285205841,118.603500366,0.00156200001948,1.0,0.0,0.0,0.0,1.0,0.0,0.0,0.0,1.0,-0.0609756112099,1.95121955872,1.8292683363,1.0,0.0,0.0,0.0,1.0,0.0,0.0,0.0,1.0,0.0143652099609,-0.756567724609,10.2423947021,1.0,0.0,0.0,0.0,1.0,0.0,0.0,0.0,1.0
1463929915757999007,276,1463929915740847935,,-2.27023744583,-9.53119468689,118.636207581,0.00347099988721,1.0,0.0,0.0,0.0,1.0,0.0,0.0,0.0,1.0,0.243902444839,1.58536589146,1.15853655338,1.0,0.0,0.0,0.0,1.0,0.0,0.0,0.0,1.0,0.067037651051,-0.612915625,10.3621047852,1.0,0.0,0.0,0.0,1.0,0.0,0.0,0.0,1.0
1463929915817207192,277,1463929915761690971,,-2.11171364784,-9.40788841248,118.66595459,0.00313100009225,1.0,0.0,0.0,0.0,1.0,0.0,0.0,0.0,1.0,1.09756100178,1.2195122242,1.2804877758,1.0,0.0,0.0,0.0,1.0,0.0,0.0,0.0,1.0,-0.201112939453,-0.732625708008,10.2328178955,1.0,0.0,0.0,0.0,1.0,0.0,0.0,0.0,1.0
1463929915818181719,278,1463929915784407592,,-1.98667025566,-9.26120471954,118.71295166,0.00185500003863,1.0,0.0,0.0,0.0,1.0,0.0,0.0,0.0,1.0,2.56097555161,0.12195122242,1.46341466904,1.0,0.0,0.0,0.0,1.0,0.0,0.0,0.0,1.0,0.0143652099609,-0.823605371094,10.2950671387,1.0,0.0,0.0,0.0,1.0,0.0,0.0,0.0,1.0
1463929915818469999,279,1463929915810688261,,-1.83348035812,-9.10278511047,118.733856201,0.00608099997044,1.0,0.0,0.0,0.0,1.0,0.0,0.0,0.0,1.0,1.09756100178,0.853658556938,0.243902444839,1.0,0.0,0.0,0.0,1.0,0.0,0.0,0.0,1.0,-0.0430956298828,-0.699106884766,10.1753570557,1.0,0.0,0.0,0.0,1.0,0.0,0.0,0.0,1.0
1463929915838200123,280,1463929915830714113,,-1.71854948997,-8.97106933594,118.721282959,0.00138000003062,1.0,0.0,0.0,0.0,1.0,0.0,0.0,0.0,1.0,0.609756112099,1.46341466904,-1.46341466904,1.0,0.0,0.0,0.0,1.0,0.0,0.0,0.0,1.0,0.119710083008,-0.502782348633,10.2136642822,1.0,0.0,0.0,0.0,1.0,0.0,0.0,0.0,1.0
1463929915853924274,281,1463929915851453764,,-1.58595192432,-8.87139320374,118.685371399,0.00132200005464,1.0,0.0,0.0,0.0,1.0,0.0,0.0,0.0,1.0,-0.548780500889,1.95121955872,-1.76829278469,1.0,0.0,0.0,0.0,1.0,0.0,0.0,0.0,1.0,-0.15322890625,-0.708683691406,10.1514150391,1.0,0.0,0.0,0.0,1.0,0.0,0.0,0.0,1.0
1463929915876304439,282,1463929915871818677,,-1.46004521847,-8.77503681183,118.660522461,0.00125500001013,1.0,0.0,0.0,0.0,1.0,0.0,0.0,0.0,1.0,-0.304878056049,2.13414645195,-1.2804877758,1.0,0.0,0.0,0.0,1.0,0.0,0.0,0.0,1.0,0.0191536132812,-0.579396801758,10.1705686523,1.0,0.0,0.0,0.0,1.0,0.0,0.0,0.0,1.0
1463929915913654435,283,1463929915893363376,,-1.3116414547,-8.67651557922,118.651191711,0.00149099994451,1.0,0.0,0.0,0.0,1.0,0.0,0.0,0.0,1.0,-1.09756100178,2.43902444839,-0.426829278469,1.0,0.0,0.0,0.0,1.0,0.0,0.0,0.0,1.0,-0.124498486328,-0.584185168546,10.046070166,1.0,0.0,0.0,0.0,1.0,0.0,0.0,0.0,1.0
1463929915917887438,284,1463929915914551619,,-1.17436718941,-8.5948381424,118.64666748,0.00133500003722,1.0,0.0,0.0,0.0,1.0,0.0,0.0,0.0,1.0,-1.2195122242,2.98780488968,-0.243902444839,1.0,0.0,0.0,0.0,1.0,0.0,0.0,0.0,1.0,-0.105344873047,-0.660799658203,10.3812583984,1.0,0.0,0.0,0.0,1.0,0.0,0.0,0.0,1.0
1463929915959241793,285,1463929915936070850,,-1.0137206316,-8.5024023056,118.646339417,0.00153600005433,1.0,0.0,0.0,0.0,1.0,0.0,0.0,0.0,1.0,-0.914634168148,2.25609779358,-0.487804889679,1.0,0.0,0.0,0.0,1.0,0.0,0.0,0.0,1.0,-0.0239420166016,-0.579396801758,10.0748005859,1.0,0.0,0.0,0.0,1.0,0.0,0.0,0.0,1.0
1463929915960804078,286,1463929915957675393,,-0.870925962925,-8.42296504974,118.629364014,0.00148500001524,1.0,0.0,0.0,0.0,1.0,0.0,0.0,0.0,1.0,-1.70731711388,1.52439022064,-2.01219511032,1.0,0.0,0.0,0.0,1.0,0.0,0.0,0.0,1.0,0.00478840332031,-0.636857641602,10.165780249,1.0,0.0,0.0,0.0,1.0,0.0,0.0,0.0,1.0
1463929916013672341,287,1463929915978021869,,-0.767057240009,-8.37296009064,118.601600647,0.00136999995448,1.0,0.0,0.0,0.0,1.0,0.0,0.0,0.0,1.0,-1.8292683363,1.8902438879,-1.8292683363,1.0,0.0,0.0,0.0,1.0,0.0,0.0,0.0,1.0,0.0718260498047,-0.780509741211,10.3190091553,1.0,0.0,0.0,0.0,1.0,0.0,0.0,0.0,1.0
1463929916013967027,288,1463929915999130997,,-0.65349894762,-8.31663227081,118.590301514,0.00207699998282,1.0,0.0,0.0,0.0,1.0,0.0,0.0,0.0,1.0,-0.426829278469,1.2804877758,-0.670731723309,1.0,0.0,0.0,0.0,1.0,0.0,0.0,0.0,1.0,-0.0383072265625,-0.790086547852,10.2950671387,1.0,0.0,0.0,0.0,1.0,0.0,0.0,0.0,1.0
1463929916022666886,289,1463929916020199084,,-0.547877669334,-8.23390769958,118.584922791,0.00187399995048,1.0,0.0,0.0,0.0,1.0,0.0,0.0,0.0,1.0,-0.609756112099,1.09756100178,-1.34146344662,1.0,0.0,0.0,0.0,1.0,0.0,0.0,0.0,1.0,-0.0957680664062,-0.732625708008,10.1035310059,1.0,0.0,0.0,0.0,1.0,0.0,0.0,0.0,1.0
1463929916162347487,290,1463929916041538420,,-0.451610177755,-8.16971969604,118.560447693,0.00153999996837,1.0,0.0,0.0,0.0,1.0,0.0,0.0,0.0,1.0,-1.15853655338,0.975609779358,-2.01219511032,1.0,0.0,0.0,0.0,1.0,0.0,0.0,0.0,1.0,0.0814028564453,-0.76614453125,10.3668931885,1.0,0.0,0.0,0.0,1.0,0.0,0.0,0.0,1.0
1463929916163829512,291,1463929916063225567,,-0.357481390238,-8.10228061676,118.558433533,0.00158699997701,1.0,0.0,0.0,0.0,1.0,0.0,0.0,0.0,1.0,-0.487804889679,1.70731711388,0.12195122242,1.0,0.0,0.0,0.0,1.0,0.0,0.0,0.0,1.0,0.0526724365234,-0.737414111328,10.2136642822,1.0,0.0,0.0,0.0,1.0,0.0,0.0,0.0,1.0
1463929916164171802,292,1463929916084709121,,-0.23786842823,-8.0219783783,118.571853638,0.0015190000413,1.0,0.0,0.0,0.0,1.0,0.0,0.0,0.0,1.0,-0.609756112099,2.37804889679,-0.0609756112099,1.0,0.0,0.0,0.0,1.0,0.0,0.0,0.0,1.0,-0.239420166016,-0.641646044922,10.2471831055,1.0,0.0,0.0,0.0,1.0,0.0,0.0,0.0,1.0
1463929916164482269,293,1463929916106925640,,-0.123780198395,-7.95041561127,118.578285217,0.00165800005198,1.0,0.0,0.0,0.0,1.0,0.0,0.0,0.0,1.0,-0.853658556938,1.03658533096,-0.792682945728,1.0,0.0,0.0,0.0,1.0,0.0,0.0,0.0,1.0,-0.134075302102,-0.689530078125,10.2328178955,1.0,0.0,0.0,0.0,1.0,0.0,0.0,0.0,1.0
1463929916164762268,294,1463929916127836697,,-0.0396650470793,-7.88597583771,118.576721191,0.00163900002372,1.0,0.0,0.0,0.0,1.0,0.0,0.0,0.0,1.0,-0.853658556938,0.914634168148,-0.609756112099,1.0,0.0,0.0,0.0,1.0,0.0,0.0,0.0,1.0,0.076614453125,-0.852335791016,10.2088758789,1.0,0.0,0.0,0.0,1.0,0.0,0.0,0.0,1.0
1463929916165040548,295,1463929916148838274,,0.0523303560913,-7.82273340225,118.598686218,0.00192299997434,1.0,0.0,0.0,0.0,1.0,0.0,0.0,0.0,1.0,-1.70731711388,2.19512200356,1.2195122242,1.0,0.0,0.0,0.0,1.0,0.0,0.0,0.0,1.0,0.210689746094,-0.593762048251,10.2807019287,1.0,0.0,0.0,0.0,1.0,0.0,0.0,0.0,1.0
1463929916211152434,296,1463929916169773445,,0.175174981356,-7.76863479614,118.644683838,0.0018530000234,1.0,0.0,0.0,0.0,1.0,0.0,0.0,0.0,1.0,-1.2804877758,2.68292689323,1.76829278469,1.0,0.0,0.0,0.0,1.0,0.0,0.0,0.0,1.0,-0.076614453125,-0.521935925381,10.4099888184,1.0,0.0,0.0,0.0,1.0,0.0,0.0,0.0,1.0
1463929916211499152,297,1463929916190123930,,0.295668900013,-7.71275901794,118.682426453,0.00179500004742,1.0,0.0,0.0,0.0,1.0,0.0,0.0,0.0,1.0,-1.2804877758,2.56097555161,0.792682945728,1.0,0.0,0.0,0.0,1.0,0.0,0.0,0.0,1.0,-0.186747729492,-0.684741674805,10.3573163818,1.0,0.0,0.0,0.0,1.0,0.0,0.0,0.0,1.0
1463929916334620917,298,1463929916212433575,,0.393537253141,-7.65899038315,118.701568604,0.00179699994624,1.0,0.0,0.0,0.0,1.0,0.0,0.0,0.0,1.0,-0.243902444839,0.853658556938,0.12195122242,1.0,0.0,0.0,0.0,1.0,0.0,0.0,0.0,1.0,-0.0478840332031,-0.790086547852,10.1370498291,1.0,0.0,0.0,0.0,1.0,0.0,0.0,0.0,1.0
1463929916334945238,299,1463929916233986868,,0.46459710598,-7.59580087662,118.71395874,0.00142500002403,1.0,0.0,0.0,0.0,1.0,0.0,0.0,0.0,1.0,0.0609756112099,1.2804877758,-0.18292683363,1.0,0.0,0.0,0.0,1.0,0.0,0.0,0.0,1.0,-0.0335188255255,-0.76614453125,10.2519715088,1.0,0.0,0.0,0.0,1.0,0.0,0.0,0.0,1.0
1463929916335259091,300,1463929916255376881,,0.544358253479,-7.52846717834,118.733787537,0.00158200005535,1.0,0.0,0.0,0.0,1.0,0.0,0.0,0.0,1.0,0.243902444839,2.07317066193,0.792682945728,1.0,0.0,0.0,0.0,1.0,0.0,0.0,0.0,1.0,0.138863696289,-0.775721337891,10.2711251221,1.0,0.0,0.0,0.0,1.0,0.0,0.0,0.0,1.0
1463929916335634558,301,1463929916279515632,,0.649690628052,-7.45047950745,118.768592834,0.00285100005567,1.0,0.0,0.0,0.0,1.0,0.0,0.0,0.0,1.0,0.0609756112099,2.56097555161,0.853658556938,1.0,0.0,0.0,0.0,1.0,0.0,0.0,0.0,1.0,0.114921679688,-0.684741674805,10.180145459,1.0,0.0,0.0,0.0,1.0,0.0,0.0,0.0,1.0
1463929916335956797,302,1463929916299430911,,0.742492437363,-7.38117313385,118.791023254,0.00161699997261,1.0,0.0,0.0,0.0,1.0,0.0,0.0,0.0,1.0,0.0609756112099,1.95121955872,0.18292683363,1.0,0.0,0.0,0.0,1.0,0.0,0.0,0.0,1.0,-0.00957680664062,-0.780509741211,10.2328178955,1.0,0.0,0.0,0.0,1.0,0.0,0.0,0.0,1.0
1463929916336244400,303,1463929916320285978,,0.829185962677,-7.32000827789,118.809814453,0.00149099994451,1.0,0.0,0.0,0.0,1.0,0.0,0.0,0.0,1.0,0.12195122242,1.95121955872,0.12195122242,1.0,0.0,0.0,0.0,1.0,0.0,0.0,0.0,1.0,0.0143652099609,-0.804451757813,10.4291424316,1.0,0.0,0.0,0.0,1.0,0.0,0.0,0.0,1.0
1463929916356543792,304,1463929916341714793,,0.909097671509,-7.24460268021,118.836921692,0.00151800003368,1.0,0.0,0.0,0.0,1.0,0.0,0.0,0.0,1.0,0.426829278469,3.04878044128,0.914634168148,1.0,0.0,0.0,0.0,1.0,0.0,0.0,0.0,1.0,0.162805712891,-0.794874951172,10.2136642822,1.0,0.0,0.0,0.0,1.0,0.0,0.0,0.0,1.0
1463929916403234113,305,1463929916362720693,,1.01354968548,-7.16789770126,118.872512817,0.00152399996296,1.0,0.0,0.0,0.0,1.0,0.0,0.0,0.0,1.0,0.914634168148,3.29268312454,0.975609779358,1.0,0.0,0.0,0.0,1.0,0.0,0.0,0.0,1.0,0.0814028564453,-0.636857641602,10.2280294922,1.0,0.0,0.0,0.0,1.0,0.0,0.0,0.0,1.0
1463929916403709371,306,1463929916384135705,,1.13140285015,-7.08376312256,118.9087677,0.00143699999899,1.0,0.0,0.0,0.0,1.0,0.0,0.0,0.0,1.0,1.03658533096,2.68292689323,0.426829278469,1.0,0.0,0.0,0.0,1.0,0.0,0.0,0.0,1.0,-0.0430956298828,-0.723048901367,10.1609918457,1.0,0.0,0.0,0.0,1.0,0.0,0.0,0.0,1.0
1463929916443012016,307,1463929916405927956,,1.21513795853,-6.99625110626,118.924209595,0.00166299997363,1.0,0.0,0.0,0.0,1.0,0.0,0.0,0.0,1.0,0.426829278469,3.23170733452,0.304878056049,1.0,0.0,0.0,0.0,1.0,0.0,0.0,0.0,1.0,-0.0526724365234,-0.636857641602,10.2567599121,1.0,0.0,0.0,0.0,1.0,0.0,0.0,0.0,1.0
1463929916444877425,308,1463929916426807606,,1.30252599716,-6.92173624039,118.938354492,0.00182200002018,1.0,0.0,0.0,0.0,1.0,0.0,0.0,0.0,1.0,1.09756100178,3.41463422775,0.487804889679,1.0,0.0,0.0,0.0,1.0,0.0,0.0,0.0,1.0,0.15322890625,-0.641646044922,10.2376062988,1.0,0.0,0.0,0.0,1.0,0.0,0.0,0.0,1.0
1463929916504279879,309,1463929916447961422,,1.4054517746,-6.84485530853,118.963775635,0.00170799996704,1.0,0.0,0.0,0.0,1.0,0.0,0.0,0.0,1.0,0.792682945728,3.71951246262,0.426829278469,1.0,0.0,0.0,0.0,1.0,0.0,0.0,0.0,1.0,0.0335188255255,-0.799663354492,10.1274730225,1.0,0.0,0.0,0.0,1.0,0.0,0.0,0.0,1.0
1463929916504849981,310,1463929916469548830,,1.50688505173,-6.76082992554,118.996185303,0.00156500004232,1.0,0.0,0.0,0.0,1.0,0.0,0.0,0.0,1.0,0.731707334518,2.86585378647,1.46341466904,1.0,0.0,0.0,0.0,1.0,0.0,0.0,0.0,1.0,0.0287304199219,-0.636857641602,10.2423947021,1.0,0.0,0.0,0.0,1.0,0.0,0.0,0.0,1.0
1463929916506855858,311,1463929916491375455,,1.60227394104,-6.68356466293,119.056938171,0.00144999998156,1.0,0.0,0.0,0.0,1.0,0.0,0.0,0.0,1.0,0.670731723309,0.975609779358,2.56097555161,1.0,0.0,0.0,0.0,1.0,0.0,0.0,0.0,1.0,-0.196324536133,-0.598550451572,10.1705686523,1.0,0.0,0.0,0.0,1.0,0.0,0.0,0.0,1.0
1463929916560085838,312,1463929916513733745,,1.6445684433,-6.60280942917,119.153709412,0.00225299992599,1.0,0.0,0.0,0.0,1.0,0.0,0.0,0.0,1.0,0.914634168148,-1.03658533096,3.90243911743,1.0,0.0,0.0,0.0,1.0,0.0,0.0,0.0,1.0,-0.162805712891,-0.632069238281,10.1418382324,1.0,0.0,0.0,0.0,1.0,0.0,0.0,0.0,1.0
1463929916560696513,313,1463929916535169851,,1.64386355877,-6.51227331161,119.265441895,0.00154299999122,1.0,0.0,0.0,0.0,1.0,0.0,0.0,0.0,1.0,1.09756100178,-1.15853655338,3.7804877758,1.0,0.0,0.0,0.0,1.0,0.0,0.0,0.0,1.0,0.0718260498047,-0.488417138672,10.4578728516,1.0,0.0,0.0,0.0,1.0,0.0,0.0,0.0,1.0
1463929916561138803,314,1463929916556319709,,1.65854716301,-6.43593215942,119.358840942,0.00206999992952,1.0,0.0,0.0,0.0,1.0,0.0,0.0,0.0,1.0,1.2195122242,-0.0609756112099,2.5,1.0,0.0,0.0,0.0,1.0,0.0,0.0,0.0,1.0,0.0909796630859,-0.737414111328,10.1753570557,1.0,0.0,0.0,0.0,1.0,0.0,0.0,0.0,1.0
1463929916602306127,315,1463929916577910502,,1.68701291084,-6.34591960907,119.436676025,0.0014309999533,1.0,0.0,0.0,0.0,1.0,0.0,0.0,0.0,1.0,1.70731711388,0.548780500889,2.5,1.0,0.0,0.0,0.0,1.0,0.0,0.0,0.0,1.0,0.134075302102,-0.675164868164,10.2136642822,1.0,0.0,0.0,0.0,1.0,0.0,0.0,0.0,1.0
1463929916606843347,316,1463929916603515028,,1.729195714,-6.23074865341,119.512542725,0.00701599987224,1.0,0.0,0.0,0.0,1.0,0.0,0.0,0.0,1.0,1.76829278469,-0.487804889679,1.64634156227,1.0,0.0,0.0,0.0,1.0,0.0,0.0,0.0,1.0,-0.0957680664062,-0.555454785156,10.2423947021,1.0,0.0,0.0,0.0,1.0,0.0,0.0,0.0,1.0
1463929916628137058,317,1463929916624545094,,1.73982417583,-6.11525344849,119.5703125,0.00128500000574,1.0,0.0,0.0,0.0,1.0,0.0,0.0,0.0,1.0,2.43902444839,-0.12195122242,1.76829278469,1.0,0.0,0.0,0.0,1.0,0.0,0.0,0.0,1.0,0.191536132812,-0.45968671875,10.1897222656,1.0,0.0,0.0,0.0,1.0,0.0,0.0,0.0,1.0
1463929916702868092,318,1463929916646276980,,1.76887357235,-5.99484157562,119.641845703,0.00118899997324,1.0,0.0,0.0,0.0,1.0,0.0,0.0,0.0,1.0,2.92682933807,0.0609756112099,2.43902444839,1.0,0.0,0.0,0.0,1.0,0.0,0.0,0.0,1.0,-0.0335188255255,-0.426167895508,10.2040874756,1.0,0.0,0.0,0.0,1.0,0.0,0.0,0.0,1.0
1463929916703555590,319,1463929916667058714,,1.79600226879,-5.87761306763,119.711891174,0.0012229999993,1.0,0.0,0.0,0.0,1.0,0.0,0.0,0.0,1.0,3.41463422775,0.12195122242,2.25609779358,1.0,0.0,0.0,0.0,1.0,0.0,0.0,0.0,1.0,0.0143652099609,-0.622492431641,10.1514150391,1.0,0.0,0.0,0.0,1.0,0.0,0.0,0.0,1.0
1463929916703928765,320,1463929916689418410,,1.81937098503,-5.75444507599,119.768051147,0.00267999991775,1.0,0.0,0.0,0.0,1.0,0.0,0.0,0.0,1.0,2.98780488968,0.0609756112099,0.975609779358,1.0,0.0,0.0,0.0,1.0,0.0,0.0,0.0,1.0,0.110133276367,-0.45968671875,10.2567599121,1.0,0.0,0.0,0.0,1.0,0.0,0.0,0.0,1.0
1463929916716133192,321,1463929916710045666,,1.84839332104,-5.65332698822,119.793411255,0.00147699995432,1.0,0.0,0.0,0.0,1.0,0.0,0.0,0.0,1.0,1.95121955872,1.52439022064,-0.18292683363,1.0,0.0,0.0,0.0,1.0,0.0,0.0,0.0,1.0,0.253785375977,-0.445321508789,10.1705686523,1.0,0.0,0.0,0.0,1.0,0.0,0.0,0.0,1.0
1463929916735784306,322,1463929916731099482,,1.91284751892,-5.5840177536,119.798912048,0.0013569999719,1.0,0.0,0.0,0.0,1.0,0.0,0.0,0.0,1.0,0.365853667259,3.47560977936,-0.853658556938,1.0,0.0,0.0,0.0,1.0,0.0,0.0,0.0,1.0,0.0430956298828,-0.632069238281,10.1131078125,1.0,0.0,0.0,0.0,1.0,0.0,0.0,0.0,1.0
1463929916791109382,323,1463929916751645540,,1.99903953075,-5.5301861763,119.805610657,0.00116800004616,1.0,0.0,0.0,0.0,1.0,0.0,0.0,0.0,1.0,0.18292683363,3.04878044128,-0.365853667259,1.0,0.0,0.0,0.0,1.0,0.0,0.0,0.0,1.0,0.143652099609,-0.636857641602,10.0748005859,1.0,0.0,0.0,0.0,1.0,0.0,0.0,0.0,1.0
1463929916791589484,324,1463929916773088313,,2.07031869888,-5.4886097908,119.810768127,0.00156999996398,1.0,0.0,0.0,0.0,1.0,0.0,0.0,0.0,1.0,-0.18292683363,2.68292689323,-0.853658556938,1.0,0.0,0.0,0.0,1.0,0.0,0.0,0.0,1.0,-0.0383072265625,-0.512359155273,10.2711251221,1.0,0.0,0.0,0.0,1.0,0.0,0.0,0.0,1.0
1463929916798630027,325,1463929916794559211,,2.12536144257,-5.44862699509,119.810348511,0.00153500004672,1.0,0.0,0.0,0.0,1.0,0.0,0.0,0.0,1.0,-0.365853667259,0.853658556938,-1.15853655338,1.0,0.0,0.0,0.0,1.0,0.0,0.0,0.0,1.0,-0.00957680664062,-0.435744702148,10.165780249,1.0,0.0,0.0,0.0,1.0,0.0,0.0,0.0,1.0
1463929916818237495,326,1463929916816110056,,2.14625644684,-5.39883041382,119.810974121,0.00150500005111,1.0,0.0,0.0,0.0,1.0,0.0,0.0,0.0,1.0,-0.243902444839,1.2195122242,-1.52439022064,1.0,0.0,0.0,0.0,1.0,0.0,0.0,0.0,1.0,-0.0143652099609,-0.387860668945,10.2519715088,1.0,0.0,0.0,0.0,1.0,0.0,0.0,0.0,1.0
1463929916853364012,327,1463929916837136425,,2.17308688164,-5.37347555161,119.788917542,0.00140900001861,1.0,0.0,0.0,0.0,1.0,0.0,0.0,0.0,1.0,-0.731707334518,1.8902438879,-2.74390244484,1.0,0.0,0.0,0.0,1.0,0.0,0.0,0.0,1.0,0.181959326172,-0.636857641602,10.165780249,1.0,0.0,0.0,0.0,1.0,0.0,0.0,0.0,1.0
1463929916870976801,328,1463929916859087997,,2.22967863083,-5.3524274826,119.748153687,0.00204199994914,1.0,0.0,0.0,0.0,1.0,0.0,0.0,0.0,1.0,-1.2195122242,2.01219511032,-2.62195134163,1.0,0.0,0.0,0.0,1.0,0.0,0.0,0.0,1.0,-0.0909796630859,-0.560243188477,10.0508585693,1.0,0.0,0.0,0.0,1.0,0.0,0.0,0.0,1.0
1463929916884690440,329,1463929916880526239,,2.27532625198,-5.34156894684,119.717048645,0.00155000004452,1.0,0.0,0.0,0.0,1.0,0.0,0.0,0.0,1.0,-1.46341466904,1.70731711388,-2.13414645195,1.0,0.0,0.0,0.0,1.0,0.0,0.0,0.0,1.0,0.124498486328,-0.598550451572,10.2328178955,1.0,0.0,0.0,0.0,1.0,0.0,0.0,0.0,1.0
1463929916903590984,330,1463929916901911252,,2.32272791862,-5.32277059555,119.689041138,0.00143900001422,1.0,0.0,0.0,0.0,1.0,0.0,0.0,0.0,1.0,-0.731707334518,2.19512200356,-2.5,1.0,0.0,0.0,0.0,1.0,0.0,0.0,0.0,1.0,0.0478840332031,-0.526724328702,10.1753570557,1.0,0.0,0.0,0.0,1.0,0.0,0.0,0.0,1.0
1463929916941449312,331,1463929916923014860,,2.37448358536,-5.3044219017,119.663902283,0.00123399996664,1.0,0.0,0.0,0.0,1.0,0.0,0.0,0.0,1.0,-0.853658556938,1.95121955872,-1.70731711388,1.0,0.0,0.0,0.0,1.0,0.0,0.0,0.0,1.0,-0.0239420166016,-0.435744702148,10.3190091553,1.0,0.0,0.0,0.0,1.0,0.0,0.0,0.0,1.0
1463929916959090799,332,1463929916944559142,,2.42257189751,-5.28091144562,119.648582458,0.0015340000391,1.0,0.0,0.0,0.0,1.0,0.0,0.0,0.0,1.0,-0.426829278469,1.64634156227,-1.52439022064,1.0,0.0,0.0,0.0,1.0,0.0,0.0,0.0,1.0,-0.0191536132812,-0.622492431641,10.2519715088,1.0,0.0,0.0,0.0,1.0,0.0,0.0,0.0,1.0
1463929916970681218,333,1463929916966177175,,2.45867538452,-5.24830532074,119.629852295,0.00167799997143,1.0,0.0,0.0,0.0,1.0,0.0,0.0,0.0,1.0,-0.670731723309,1.2804877758,-1.64634156227,1.0,0.0,0.0,0.0,1.0,0.0,0.0,0.0,1.0,-0.0718260498047,-0.392649072266,10.2615483154,1.0,0.0,0.0,0.0,1.0,0.0,0.0,0.0,1.0
1463929917000773746,334,1463929916986839899,,2.48440074921,-5.23873281479,119.612136841,0.00141799997073,1.0,0.0,0.0,0.0,1.0,0.0,0.0,0.0,1.0,-1.09756100178,1.64634156227,-1.70731711388,1.0,0.0,0.0,0.0,1.0,0.0,0.0,0.0,1.0,0.0430956298828,-0.689530078125,10.1131078125,1.0,0.0,0.0,0.0,1.0,0.0,0.0,0.0,1.0
1463929917014494833,335,1463929917008699233,,2.51635932922,-5.22304487228,119.603485107,0.00173100002576,1.0,0.0,0.0,0.0,1.0,0.0,0.0,0.0,1.0,-1.09756100178,1.34146344662,-1.2195122242,1.0,0.0,0.0,0.0,1.0,0.0,0.0,0.0,1.0,0.00957680664062,-0.560243188477,10.1992990723,1.0,0.0,0.0,0.0,1.0,0.0,0.0,0.0,1.0
1463929917033825063,336,1463929917029779351,,2.55243945122,-5.20587205887,119.601623535,0.00153799995314,1.0,0.0,0.0,0.0,1.0,0.0,0.0,0.0,1.0,-0.853658556938,1.46341466904,-0.853658556938,1.0,0.0,0.0,0.0,1.0,0.0,0.0,0.0,1.0,-0.119710083008,-0.502782348633,10.314220752,1.0,0.0,0.0,0.0,1.0,0.0,0.0,0.0,1.0
1463929917051869882,337,1463929917050288378,,2.57817149162,-5.17619609833,119.605331421,0.0012379999971,1.0,0.0,0.0,0.0,1.0,0.0,0.0,0.0,1.0,-0.670731723309,0.975609779358,-0.426829278469,1.0,0.0,0.0,0.0,1.0,0.0,0.0,0.0,1.0,0.0335188255255,-0.440533105469,10.419565625,1.0,0.0,0.0,0.0,1.0,0.0,0.0,0.0,1.0
1463929917076275506,338,1463929917070834071,,2.59875392914,-5.14959907532,119.61164093,0.00142200000118,1.0,0.0,0.0,0.0,1.0,0.0,0.0,0.0,1.0,-0.365853667259,1.03658533096,-0.609756112099,1.0,0.0,0.0,0.0,1.0,0.0,0.0,0.0,1.0,0.0383072265625,-0.598550451572,10.165780249,1.0,0.0,0.0,0.0,1.0,0.0,0.0,0.0,1.0
1463929917094041472,339,1463929917092282261,,2.62367415428,-5.12204885483,119.624000549,0.00141200004146,1.0,0.0,0.0,0.0,1.0,0.0,0.0,0.0,1.0,-0.731707334518,1.09756100178,-0.487804889679,1.0,0.0,0.0,0.0,1.0,0.0,0.0,0.0,1.0,-0.0191536132812,-0.603338854892,10.1083194092,1.0,0.0,0.0,0.0,1.0,0.0,0.0,0.0,1.0
1463929917145179483,340,1463929917113432275,,2.64619517326,-5.10331630707,119.633895874,0.00151500001084,1.0,0.0,0.0,0.0,1.0,0.0,0.0,0.0,1.0,-0.792682945728,0.975609779358,-0.670731723309,1.0,0.0,0.0,0.0,1.0,0.0,0.0,0.0,1.0,0.0287304199219,-0.541089611728,10.1418382324,1.0,0.0,0.0,0.0,1.0,0.0,0.0,0.0,1.0
1463929917145482398,341,1463929917134910933,,2.66576218605,-5.08418512344,119.64704895,0.00147200003266,1.0,0.0,0.0,0.0,1.0,0.0,0.0,0.0,1.0,-1.2195122242,1.34146344662,-0.0609756112099,1.0,0.0,0.0,0.0,1.0,0.0,0.0,0.0,1.0,0.0143652099609,-0.478840332031,10.1035310059,1.0,0.0,0.0,0.0,1.0,0.0,0.0,0.0,1.0
1463929917168777871,342,1463929917155222461,,2.6853992939,-5.0736784935,119.668693542,0.00139800005127,1.0,0.0,0.0,0.0,1.0,0.0,0.0,0.0,1.0,-1.64634156227,1.46341466904,0.487804889679,1.0,0.0,0.0,0.0,1.0,0.0,0.0,0.0,1.0,0.129286889648,-0.521935925381,10.4482960449,1.0,0.0,0.0,0.0,1.0,0.0,0.0,0.0,1.0
1463929917182017554,343,1463929917178826839,,2.71007919312,-5.06909132004,119.701858521,0.00151500001084,1.0,0.0,0.0,0.0,1.0,0.0,0.0,0.0,1.0,-0.975609779358,2.31707310677,1.15853655338,1.0,0.0,0.0,0.0,1.0,0.0,0.0,0.0,1.0,0.110133276367,-0.651222851562,10.180145459,1.0,0.0,0.0,0.0,1.0,0.0,0.0,0.0,1.0
1463929917213607003,344,1463929917198059673,,2.75471973419,-5.04951810837,119.743614197,0.00157700001728,1.0,0.0,0.0,0.0,1.0,0.0,0.0,0.0,1.0,-0.670731723309,2.13414645195,0.914634168148,1.0,0.0,0.0,0.0,1.0,0.0,0.0,0.0,1.0,0.0239420166016,-0.670376464844,10.2088758789,1.0,0.0,0.0,0.0,1.0,0.0,0.0,0.0,1.0
1463929917222521392,345,1463929917218974532,,2.78924918175,-5.04166603088,119.769004822,0.00233300006948,1.0,0.0,0.0,0.0,1.0,0.0,0.0,0.0,1.0,-0.853658556938,1.2195122242,-0.12195122242,1.0,0.0,0.0,0.0,1.0,0.0,0.0,0.0,1.0,0.0718260498047,-0.718260498047,10.2423947021,1.0,0.0,0.0,0.0,1.0,0.0,0.0,0.0,1.0
1463929917248827737,346,1463929917240789230,,2.79292225838,-5.02747392654,119.792312622,0.00169199996162,1.0,0.0,0.0,0.0,1.0,0.0,0.0,0.0,1.0,-0.304878056049,1.34146344662,0.426829278469,1.0,0.0,0.0,0.0,1.0,0.0,0.0,0.0,1.0,0.162805712891,-0.670376464844,10.1753570557,1.0,0.0,0.0,0.0,1.0,0.0,0.0,0.0,1.0
1463929917281858430,347,1463929917280149322,,2.82475733757,-5.00961303711,119.836120605,0.0109000001103,1.0,0.0,0.0,0.0,1.0,0.0,0.0,0.0,1.0,-0.731707334518,2.68292689323,1.52439022064,1.0,0.0,0.0,0.0,1.0,0.0,0.0,0.0,1.0,0.181959326172,-0.574608398438,10.2615483154,1.0,0.0,0.0,0.0,1.0,0.0,0.0,0.0,1.0
1463929917288672880,348,1463929917283910400,,2.88014435768,-5.00379896164,119.893585205,0.0224210005254,1.0,0.0,0.0,0.0,1.0,0.0,0.0,0.0,1.0,-1.09756100178,2.80487799644,1.70731711388,1.0,0.0,0.0,0.0,1.0,0.0,0.0,0.0,1.0,0.0957680664062,-0.651222851562,10.3237975586,1.0,0.0,0.0,0.0,1.0,0.0,0.0,0.0,1.0
1463929917330520201,349,1463929917304589687,,2.9472360611,-4.98341798782,119.955245972,0.0205479990691,1.0,0.0,0.0,0.0,1.0,0.0,0.0,0.0,1.0,-0.853658556938,2.98780488968,2.13414645195,1.0,0.0,0.0,0.0,1.0,0.0,0.0,0.0,1.0,-0.0191536132812,-0.560243188477,10.2328178955,1.0,0.0,0.0,0.0,1.0,0.0,0.0,0.0,1.0
1463929917330690304,350,1463929917326249959,,2.99851202965,-4.95668506622,120.005500793,0.0212619993836,1.0,0.0,0.0,0.0,1.0,0.0,0.0,0.0,1.0,-0.609756112099,2.68292689323,1.46341466904,1.0,0.0,0.0,0.0,1.0,0.0,0.0,0.0,1.0,0.0574608398438,-0.545877978516,10.2088758789,1.0,0.0,0.0,0.0,1.0,0.0,0.0,0.0,1.0
1463929917392029469,351,1463929917347988303,,3.06028461456,-4.92305898666,120.054412842,0.00142500002403,1.0,0.0,0.0,0.0,1.0,0.0,0.0,0.0,1.0,-0.609756112099,2.31707310677,1.09756100178,1.0,0.0,0.0,0.0,1.0,0.0,0.0,0.0,1.0,0.0478840332031,-0.727837304687,10.1945106689,1.0,0.0,0.0,0.0,1.0,0.0,0.0,0.0,1.0
1463929917393915086,352,1463929917368932953,,3.08583831787,-4.893638134,120.082176208,0.001511999988,1.0,0.0,0.0,0.0,1.0,0.0,0.0,0.0,1.0,-0.365853667259,1.95121955872,0.609756112099,1.0,0.0,0.0,0.0,1.0,0.0,0.0,0.0,1.0,0.296881024126,-0.699106884766,10.1562034424,1.0,0.0,0.0,0.0,1.0,0.0,0.0,0.0,1.0
1463929917394641958,353,1463929917389588386,,3.10440087318,-4.88328647614,120.111495972,0.00322699989192,1.0,0.0,0.0,0.0,1.0,0.0,0.0,0.0,1.0,-0.487804889679,2.01219511032,1.09756100178,1.0,0.0,0.0,0.0,1.0,0.0,0.0,0.0,1.0,0.167594116211,-0.603338854892,10.2040874756,1.0,0.0,0.0,0.0,1.0,0.0,0.0,0.0,1.0
1463929917452728376,354,1463929917413544742,,3.14750242233,-4.85559177399,120.153190613,0.00344299990684,1.0,0.0,0.0,0.0,1.0,0.0,0.0,0.0,1.0,-0.304878056049,2.37804889679,0.670731723309,1.0,0.0,0.0,0.0,1.0,0.0,0.0,0.0,1.0,0.0383072265625,-0.612915625,10.2376062988,1.0,0.0,0.0,0.0,1.0,0.0,0.0,0.0,1.0
1463929917453139520,355,1463929917435282461,,3.1810157299,-4.85041856766,120.191268921,0.00452800001949,1.0,0.0,0.0,0.0,1.0,0.0,0.0,0.0,1.0,-1.15853655338,2.31707310677,1.09756100178,1.0,0.0,0.0,0.0,1.0,0.0,0.0,0.0,1.0,0.0526724365234,-0.651222851562,10.3237975586,1.0,0.0,0.0,0.0,1.0,0.0,0.0,0.0,1.0
1463929917471536837,356,1463929917458436425,,3.21220684052,-4.8329949379,120.226867676,0.00140199996531,1.0,0.0,0.0,0.0,1.0,0.0,0.0,0.0,1.0,-0.426829278469,1.8292683363,0.670731723309,1.0,0.0,0.0,0.0,1.0,0.0,0.0,0.0,1.0,0.0430956298828,-0.632069238281,10.3812583984,1.0,0.0,0.0,0.0,1.0,0.0,0.0,0.0,1.0
1463929917483077517,357,1463929917477014991,,3.23312115669,-4.80258369446,120.252792358,0.00132499996107,1.0,0.0,0.0,0.0,1.0,0.0,0.0,0.0,1.0,0.18292683363,1.76829278469,0.18292683363,1.0,0.0,0.0,0.0,1.0,0.0,0.0,0.0,1.0,0.0287304199219,-0.718260498047,10.2615483154,1.0,0.0,0.0,0.0,1.0,0.0,0.0,0.0,1.0
1463929917585033227,358,1463929917497939381,,3.23799538612,-4.77700042725,120.274436951,0.00148800003808,1.0,0.0,0.0,0.0,1.0,0.0,0.0,0.0,1.0,0.670731723309,0.914634168148,-0.0609756112099,1.0,0.0,0.0,0.0,1.0,0.0,0.0,0.0,1.0,0.0718260498047,-0.622492431641,10.1178962158,1.0,0.0,0.0,0.0,1.0,0.0,0.0,0.0,1.0
1463929917585402080,359,1463929917518776062,,3.24557161331,-4.74195289612,120.288124084,0.00145600002725,1.0,0.0,0.0,0.0,1.0,0.0,0.0,0.0,1.0,0.12195122242,0.792682945728,-0.670731723309,1.0,0.0,0.0,0.0,1.0,0.0,0.0,0.0,1.0,0.124498486328,-0.545877978516,10.1562034424,1.0,0.0,0.0,0.0,1.0,0.0,0.0,0.0,1.0
1463929917585444371,360,1463929917540231439,,3.25394821167,-4.71988582611,120.307235718,0.00137399998493,1.0,0.0,0.0,0.0,1.0,0.0,0.0,0.0,1.0,0.0,1.2804877758,0.243902444839,1.0,0.0,0.0,0.0,1.0,0.0,0.0,0.0,1.0,0.0430956298828,-0.612915625,10.1705686523,1.0,0.0,0.0,0.0,1.0,0.0,0.0,0.0,1.0
1463929917586733949,361,1463929917561913326,,3.26963758469,-4.68446826935,120.337310791,0.00137800001539,1.0,0.0,0.0,0.0,1.0,0.0,0.0,0.0,1.0,-0.243902444839,2.31707310677,0.548780500889,1.0,0.0,0.0,0.0,1.0,0.0,0.0,0.0,1.0,0.0814028564453,-0.579396801758,10.2328178955,1.0,0.0,0.0,0.0,1.0,0.0,0.0,0.0,1.0
1463929917587968006,362,1463929917582155791,,3.28702521324,-4.65417671204,120.374427795,0.00147999997716,1.0,0.0,0.0,0.0,1.0,0.0,0.0,0.0,1.0,-0.304878056049,2.19512200356,0.792682945728,1.0,0.0,0.0,0.0,1.0,0.0,0.0,0.0,1.0,0.124498486328,-0.545877978516,10.2471831055,1.0,0.0,0.0,0.0,1.0,0.0,0.0,0.0,1.0
1463929917745335563,363,1463929917603703772,,3.31201672554,-4.63133049011,120.417358398,0.00126100005582,1.0,0.0,0.0,0.0,1.0,0.0,0.0,0.0,1.0,-0.12195122242,2.43902444839,1.15853655338,1.0,0.0,0.0,0.0,1.0,0.0,0.0,0.0,1.0,0.134075302102,-0.445321508789,10.0939541992,1.0,0.0,0.0,0.0,1.0,0.0,0.0,0.0,1.0
1463929917745390250,364,1463929917625167326,,3.34603643417,-4.60645532608,120.462860107,0.00154600001406,1.0,0.0,0.0,0.0,1.0,0.0,0.0,0.0,1.0,-0.548780500889,2.98780488968,1.34146344662,1.0,0.0,0.0,0.0,1.0,0.0,0.0,0.0,1.0,0.167594116211,-0.521935925381,10.2950671387,1.0,0.0,0.0,0.0,1.0,0.0,0.0,0.0,1.0
1463929917745424885,365,1463929917647074733,,3.38827395439,-4.58837080002,120.512702942,0.00228999997489,1.0,0.0,0.0,0.0,1.0,0.0,0.0,0.0,1.0,-0.426829278469,3.29268312454,1.40243899822,1.0,0.0,0.0,0.0,1.0,0.0,0.0,0.0,1.0,0.162805712891,-0.641646044922,10.2615483154,1.0,0.0,0.0,0.0,1.0,0.0,0.0,0.0,1.0
1463929917745905612,366,1463929917667514489,,3.43226933479,-4.57890367508,120.549179077,0.00135000003502,1.0,0.0,0.0,0.0,1.0,0.0,0.0,0.0,1.0,-0.487804889679,2.5,0.487804889679,1.0,0.0,0.0,0.0,1.0,0.0,0.0,0.0,1.0,0.129286889648,-0.660799658203,10.180145459,1.0,0.0,0.0,0.0,1.0,0.0,0.0,0.0,1.0
1463929917746217694,367,1463929917688837679,,3.4642791748,-4.56765937805,120.569396973,0.00124000001233,1.0,0.0,0.0,0.0,1.0,0.0,0.0,0.0,1.0,-1.2195122242,2.31707310677,-0.12195122242,1.0,0.0,0.0,0.0,1.0,0.0,0.0,0.0,1.0,0.0478840332031,-0.450109912109,10.3285859619,1.0,0.0,0.0,0.0,1.0,0.0,0.0,0.0,1.0
1463929917746490818,368,1463929917711187219,,3.48447966576,-4.56931114197,120.578620911,0.00250699999742,1.0,0.0,0.0,0.0,1.0,0.0,0.0,0.0,1.0,-0.0609756112099,2.31707310677,-1.03658533096,1.0,0.0,0.0,0.0,1.0,0.0,0.0,0.0,1.0,0.00957680664062,-0.718260498047,10.2423947021,1.0,0.0,0.0,0.0,1.0,0.0,0.0,0.0,1.0
1463929917825114232,369,1463929917732506347,,3.49545407295,-4.54891014099,120.572532654,0.00173300004099,1.0,0.0,0.0,0.0,1.0,0.0,0.0,0.0,1.0,0.304878056049,2.01219511032,-1.52439022064,1.0,0.0,0.0,0.0,1.0,0.0,0.0,0.0,1.0,0.134075302102,-0.632069238281,10.0795889893,1.0,0.0,0.0,0.0,1.0,0.0,0.0,0.0,1.0
1463929917825423866,370,1463929917754107660,,3.49833846092,-4.52919816971,120.551849365,0.00185100000817,1.0,0.0,0.0,0.0,1.0,0.0,0.0,0.0,1.0,0.18292683363,1.40243899822,-2.37804889679,1.0,0.0,0.0,0.0,1.0,0.0,0.0,0.0,1.0,-0.0239420166016,-0.665588061523,10.1131078125,1.0,0.0,0.0,0.0,1.0,0.0,0.0,0.0,1.0
1463929917827101098,371,1463929917775182050,,3.49263811111,-4.51452589035,120.515625,0.00139800005127,1.0,0.0,0.0,0.0,1.0,0.0,0.0,0.0,1.0,-0.548780500889,0.792682945728,-2.74390244484,1.0,0.0,0.0,0.0,1.0,0.0,0.0,0.0,1.0,0.067037651051,-0.550666381836,10.2759135254,1.0,0.0,0.0,0.0,1.0,0.0,0.0,0.0,1.0
1463929917847128982,372,1463929917797032269,,3.48502445221,-4.4942445755,120.490066528,0.00134600000456,1.0,0.0,0.0,0.0,1.0,0.0,0.0,0.0,1.0,-0.609756112099,1.95121955872,-1.46341466904,1.0,0.0,0.0,0.0,1.0,0.0,0.0,0.0,1.0,0.225054956055,-0.469263525391,10.165780249,1.0,0.0,0.0,0.0,1.0,0.0,0.0,0.0,1.0
1463929917847393616,373,1463929917817963273,,3.5136346817,-4.47547054291,120.489601135,0.00181199994404,1.0,0.0,0.0,0.0,1.0,0.0,0.0,0.0,1.0,-0.975609779358,3.04878044128,-0.609756112099,1.0,0.0,0.0,0.0,1.0,0.0,0.0,0.0,1.0,0.143652099609,-0.497993945312,10.3429511719,1.0,0.0,0.0,0.0,1.0,0.0,0.0,0.0,1.0
1463929917880217590,374,1463929917840273073,,3.55782461166,-4.47676086426,120.495796204,0.00135399994906,1.0,0.0,0.0,0.0,1.0,0.0,0.0,0.0,1.0,-0.670731723309,3.04878044128,-0.487804889679,1.0,0.0,0.0,0.0,1.0,0.0,0.0,0.0,1.0,0.067037651051,-0.61770402832,10.1083194092,1.0,0.0,0.0,0.0,1.0,0.0,0.0,0.0,1.0
1463929917880498683,375,1463929917859951114,,3.59169483185,-4.48084831238,120.496902466,0.0014230000088,1.0,0.0,0.0,0.0,1.0,0.0,0.0,0.0,1.0,-1.09756100178,2.74390244484,-0.914634168148,1.0,0.0,0.0,0.0,1.0,0.0,0.0,0.0,1.0,0.0383072265625,-0.646434448242,10.2328178955,1.0,0.0,0.0,0.0,1.0,0.0,0.0,0.0,1.0
1463929917920238044,376,1463929917881006180,,3.6231341362,-4.48748159409,120.499069214,0.001408000011,1.0,0.0,0.0,0.0,1.0,0.0,0.0,0.0,1.0,-0.853658556938,2.74390244484,-0.914634168148,1.0,0.0,0.0,0.0,1.0,0.0,0.0,0.0,1.0,0.287304199219,-0.541089611728,10.1609918457,1.0,0.0,0.0,0.0,1.0,0.0,0.0,0.0,1.0
1463929917920797625,377,1463929917901940101,,3.66445112228,-4.48644828796,120.504730225,0.00169900001492,1.0,0.0,0.0,0.0,1.0,0.0,0.0,0.0,1.0,-0.670731723309,3.41463422775,-0.304878056049,1.0,0.0,0.0,0.0,1.0,0.0,0.0,0.0,1.0,0.0335188255255,-0.646434448242,10.2950671387,1.0,0.0,0.0,0.0,1.0,0.0,0.0,0.0,1.0
1463929917971649439,378,1463929917922966418,,3.70885634422,-4.48405265808,120.513183594,0.00131500000134,1.0,0.0,0.0,0.0,1.0,0.0,0.0,0.0,1.0,-0.853658556938,3.17073178291,-0.487804889679,1.0,0.0,0.0,0.0,1.0,0.0,0.0,0.0,1.0,0.0,-0.641646044922,10.2567599121,1.0,0.0,0.0,0.0,1.0,0.0,0.0,0.0,1.0
1463929917972253082,379,1463929917943625496,,3.74837040901,-4.49120998383,120.515190125,0.00145700003486,1.0,0.0,0.0,0.0,1.0,0.0,0.0,0.0,1.0,-0.853658556938,3.35365867615,-0.609756112099,1.0,0.0,0.0,0.0,1.0,0.0,0.0,0.0,1.0,0.0861912597656,-0.684741674805,10.285490332,1.0,0.0,0.0,0.0,1.0,0.0,0.0,0.0,1.0
1463929918032554022,380,1463929917964920613,,3.79253220558,-4.493745327,120.522949219,0.00423099985346,1.0,0.0,0.0,0.0,1.0,0.0,0.0,0.0,1.0,-0.304878056049,3.29268312454,-0.426829278469,1.0,0.0,0.0,0.0,1.0,0.0,0.0,0.0,1.0,-0.076614453125,-0.723048901367,10.2759135254,1.0,0.0,0.0,0.0,1.0,0.0,0.0,0.0,1.0
1463929918033376362,381,1463929917986038544,,3.83372735977,-4.47673082352,120.522644043,0.00130999996327,1.0,0.0,0.0,0.0,1.0,0.0,0.0,0.0,1.0,-0.487804889679,2.86585378647,-1.2195122242,1.0,0.0,0.0,0.0,1.0,0.0,0.0,0.0,1.0,-0.0526724365234,-0.469263525391,10.0652237793,1.0,0.0,0.0,0.0,1.0,0.0,0.0,0.0,1.0
1463929918048263122,382,1463929918006701164,,3.85489439964,-4.48033332825,120.512397766,0.00128399999812,1.0,0.0,0.0,0.0,1.0,0.0,0.0,0.0,1.0,-0.18292683363,2.25609779358,-1.34146344662,1.0,0.0,0.0,0.0,1.0,0.0,0.0,0.0,1.0,0.0430956298828,-0.660799658203,10.1897222656,1.0,0.0,0.0,0.0,1.0,0.0,0.0,0.0,1.0
1463929918048727182,383,1463929918028255030,,3.86756920815,-4.46594762802,120.504196167,0.00167300004978,1.0,0.0,0.0,0.0,1.0,0.0,0.0,0.0,1.0,-0.487804889679,2.13414645195,-1.70731711388,1.0,0.0,0.0,0.0,1.0,0.0,0.0,0.0,1.0,0.0718260498047,-0.593762048251,10.1322614258,1.0,0.0,0.0,0.0,1.0,0.0,0.0,0.0,1.0
1463929918076878624,384,1463929918048735880,,3.88914179802,-4.44635629654,120.497756958,0.00139500002842,1.0,0.0,0.0,0.0,1.0,0.0,0.0,0.0,1.0,-0.731707334518,2.07317066193,-1.2804877758,1.0,0.0,0.0,0.0,1.0,0.0,0.0,0.0,1.0,0.0,-0.430956298828,10.3621047852,1.0,0.0,0.0,0.0,1.0,0.0,0.0,0.0,1.0
1463929918077372008,385,1463929918070471360,,3.90822553635,-4.44027376175,120.496917725,0.00157500000205,1.0,0.0,0.0,0.0,1.0,0.0,0.0,0.0,1.0,-0.731707334518,2.5,-0.853658556938,1.0,0.0,0.0,0.0,1.0,0.0,0.0,0.0,1.0,0.100556469727,-0.603338854892,10.3333743652,1.0,0.0,0.0,0.0,1.0,0.0,0.0,0.0,1.0
1463929918177941421,386,1463929918091249344,,3.92862653732,-4.43400669098,120.497268677,0.00133899995126,1.0,0.0,0.0,0.0,1.0,0.0,0.0,0.0,1.0,-0.18292683363,2.01219511032,-1.15853655338,1.0,0.0,0.0,0.0,1.0,0.0,0.0,0.0,1.0,-0.0191536132812,-0.593762048251,10.0556469727,1.0,0.0,0.0,0.0,1.0,0.0,0.0,0.0,1.0
1463929918178179754,387,1463929918111847850,,3.93790054321,-4.42098093033,120.4949646,0.00196300004609,1.0,0.0,0.0,0.0,1.0,0.0,0.0,0.0,1.0,-0.0609756112099,1.46341466904,-1.46341466904,1.0,0.0,0.0,0.0,1.0,0.0,0.0,0.0,1.0,-0.0191536132812,-0.622492431641,10.2711251221,1.0,0.0,0.0,0.0,1.0,0.0,0.0,0.0,1.0
1463929918178924803,388,1463929918133357706,,3.93630075455,-4.41691064835,120.484931946,0.00183500000276,1.0,0.0,0.0,0.0,1.0,0.0,0.0,0.0,1.0,-0.243902444839,1.46341466904,-1.76829278469,1.0,0.0,0.0,0.0,1.0,0.0,0.0,0.0,1.0,0.0383072265625,-0.732625708008,10.1178962158,1.0,0.0,0.0,0.0,1.0,0.0,0.0,0.0,1.0
1463929918179229749,389,1463929918156145629,,3.93751120567,-4.40998268127,120.489143372,0.00153000000864,1.0,0.0,0.0,0.0,1.0,0.0,0.0,0.0,1.0,-0.487804889679,1.70731711388,-0.670731723309,1.0,0.0,0.0,0.0,1.0,0.0,0.0,0.0,1.0,0.067037651051,-0.584185168546,10.3429511719,1.0,0.0,0.0,0.0,1.0,0.0,0.0,0.0,1.0
1463929918179732612,390,1463929918174768570,,3.95892691612,-4.3943529129,120.502349854,0.00136600004043,1.0,0.0,0.0,0.0,1.0,0.0,0.0,0.0,1.0,-0.304878056049,1.8292683363,-0.12195122242,1.0,0.0,0.0,0.0,1.0,0.0,0.0,0.0,1.0,-0.0861912597656,-0.502782348633,10.2423947021,1.0,0.0,0.0,0.0,1.0,0.0,0.0,0.0,1.0
1463929918226755640,391,1463929918196427071,,3.96989560127,-4.36290645599,120.509216309,0.00173500005621,1.0,0.0,0.0,0.0,1.0,0.0,0.0,0.0,1.0,-0.12195122242,1.2804877758,-1.03658533096,1.0,0.0,0.0,0.0,1.0,0.0,0.0,0.0,1.0,-0.00478840332031,-0.598550451572,10.180145459,1.0,0.0,0.0,0.0,1.0,0.0,0.0,0.0,1.0
1463929918227116211,392,1463929918217100108,,3.9612736702,-4.34316205978,120.495124817,0.00152499997057,1.0,0.0,0.0,0.0,1.0,0.0,0.0,0.0,1.0,-0.670731723309,0.487804889679,-1.8902438879,1.0,0.0,0.0,0.0,1.0,0.0,0.0,0.0,1.0,-0.0622492431641,-0.569819995117,10.1370498291,1.0,0.0,0.0,0.0,1.0,0.0,0.0,0.0,1.0
1463929918241600055,393,1463929918239321107,,3.93773198128,-4.34780168533,120.484420776,0.0018680000212,1.0,0.0,0.0,0.0,1.0,0.0,0.0,0.0,1.0,-1.2804877758,1.15853655338,-0.853658556938,1.0,0.0,0.0,0.0,1.0,0.0,0.0,0.0,1.0,0.296881024126,-0.550666381836,10.165780249,1.0,0.0,0.0,0.0,1.0,0.0,0.0,0.0,1.0
1463929918262186634,394,1463929918259702843,,3.94389176369,-4.35367488861,120.503852844,0.00291800010018,1.0,0.0,0.0,0.0,1.0,0.0,0.0,0.0,1.0,-1.40243899822,2.86585378647,0.853658556938,1.0,0.0,0.0,0.0,1.0,0.0,0.0,0.0,1.0,0.239420166016,-0.646434448242,10.3046439453,1.0,0.0,0.0,0.0,1.0,0.0,0.0,0.0,1.0
1463929918287104392,395,1463929918281372698,,3.98449826241,-4.35450267792,120.557540894,0.00140299997292,1.0,0.0,0.0,0.0,1.0,0.0,0.0,0.0,1.0,-0.548780500889,3.59756112099,1.64634156227,1.0,0.0,0.0,0.0,1.0,0.0,0.0,0.0,1.0,0.0383072265625,-0.684741674805,10.2232410889,1.0,0.0,0.0,0.0,1.0,0.0,0.0,0.0,1.0
1463929918312166212,396,1463929918302544170,,4.02769517899,-4.35382652283,120.594108582,0.00197000009939,1.0,0.0,0.0,0.0,1.0,0.0,0.0,0.0,1.0,-0.18292683363,2.56097555161,0.243902444839,1.0,0.0,0.0,0.0,1.0,0.0,0.0,0.0,1.0,0.0574608398438,-0.684741674805,10.2280294922,1.0,0.0,0.0,0.0,1.0,0.0,0.0,0.0,1.0
1463929918331833836,397,1463929918329434472,,4.04589033127,-4.31413555145,120.618988037,0.0200839992613,1.0,0.0,0.0,0.0,1.0,0.0,0.0,0.0,1.0,0.670731723309,2.19512200356,0.0,1.0,0.0,0.0,0.0,1.0,0.0,0.0,0.0,1.0,0.0574608398438,-0.560243188477,10.3046439453,1.0,0.0,0.0,0.0,1.0,0.0,0.0,0.0,1.0
1463929918360543245,398,1463929918353362859,,4.06176567078,-4.28210926056,120.640136719,0.00470399996266,1.0,0.0,0.0,0.0,1.0,0.0,0.0,0.0,1.0,0.914634168148,2.31707310677,-0.365853667259,1.0,0.0,0.0,0.0,1.0,0.0,0.0,0.0,1.0,0.110133276367,-0.560243188477,10.2040874756,1.0,0.0,0.0,0.0,1.0,0.0,0.0,0.0,1.0
1463929918386483290,399,1463929918374686049,,4.0814204216,-4.25855827332,120.657623291,0.00194400001783,1.0,0.0,0.0,0.0,1.0,0.0,0.0,0.0,1.0,0.426829278469,2.13414645195,-0.0609756112099,1.0,0.0,0.0,0.0,1.0,0.0,0.0,0.0,1.0,0.110133276367,-0.689530078125,10.2615483154,1.0,0.0,0.0,0.0,1.0,0.0,0.0,0.0,1.0
1463929918427977957,400,1463929918396525174,,4.09049367905,-4.2237739563,120.665992737,0.00153699994553,1.0,0.0,0.0,0.0,1.0,0.0,0.0,0.0,1.0,0.548780500889,2.43902444839,-0.975609779358,1.0,0.0,0.0,0.0,1.0,0.0,0.0,0.0,1.0,0.0191536132812,-0.603338854892,10.2902787354,1.0,0.0,0.0,0.0,1.0,0.0,0.0,0.0,1.0
1463929918441634721,401,1463929918430224353,,4.10730266571,-4.18626499176,120.677680969,0.00168200000189,1.0,0.0,0.0,0.0,1.0,0.0,0.0,0.0,1.0,0.487804889679,2.43902444839,0.243902444839,1.0,0.0,0.0,0.0,1.0,0.0,0.0,0.0,1.0,-0.0622492431641,-0.397437475586,10.1035310059,1.0,0.0,0.0,0.0,1.0,0.0,0.0,0.0,1.0
1463929918442248833,402,1463929918440139050,,4.13416290283,-4.15865421295,120.700531006,0.00167300004978,1.0,0.0,0.0,0.0,1.0,0.0,0.0,0.0,1.0,0.243902444839,2.74390244484,0.304878056049,1.0,0.0,0.0,0.0,1.0,0.0,0.0,0.0,1.0,0.129286889648,-0.426167895508,10.2567599121,1.0,0.0,0.0,0.0,1.0,0.0,0.0,0.0,1.0
1463929918462216768,403,1463929918460026101,,4.16766548157,-4.1339225769,120.726829529,0.00283099990338,1.0,0.0,0.0,0.0,1.0,0.0,0.0,0.0,1.0,0.0,2.68292689323,0.243902444839,1.0,0.0,0.0,0.0,1.0,0.0,0.0,0.0,1.0,0.0718260498047,-0.627280834961,10.0364933594,1.0,0.0,0.0,0.0,1.0,0.0,0.0,0.0,1.0
1463929918485833438,404,1463929918482272256,,4.19265270233,-4.11136770248,120.747154236,0.0030769999139,1.0,0.0,0.0,0.0,1.0,0.0,0.0,0.0,1.0,-0.18292683363,2.62195134163,-0.0609756112099,1.0,0.0,0.0,0.0,1.0,0.0,0.0,0.0,1.0,0.076614453125,-0.512359155273,10.1418382324,1.0,0.0,0.0,0.0,1.0,0.0,0.0,0.0,1.0
1463929918510447396,405,1463929918503835966,,4.21932697296,-4.10177516937,120.772445679,0.00272200000472,1.0,0.0,0.0,0.0,1.0,0.0,0.0,0.0,1.0,-1.40243899822,2.68292689323,0.426829278469,1.0,0.0,0.0,0.0,1.0,0.0,0.0,0.0,1.0,0.105344873047,-0.541089611728,10.2376062988,1.0,0.0,0.0,0.0,1.0,0.0,0.0,0.0,1.0
1463929918527536385,406,1463929918524308899,,4.24782371521,-4.11948633194,120.80859375,0.00123599998187,1.0,0.0,0.0,0.0,1.0,0.0,0.0,0.0,1.0,-0.914634168148,3.53658556938,0.914634168148,1.0,0.0,0.0,0.0,1.0,0.0,0.0,0.0,1.0,0.0143652099609,-0.785298144531,10.1705686523,1.0,0.0,0.0,0.0,1.0,0.0,0.0,0.0,1.0
1463929918550952379,407,1463929918544684905,,4.29362487793,-4.11349582672,120.839820862,0.0039140000008,1.0,0.0,0.0,0.0,1.0,0.0,0.0,0.0,1.0,-0.365853667259,2.98780488968,0.670731723309,1.0,0.0,0.0,0.0,1.0,0.0,0.0,0.0,1.0,-0.162805712891,-0.689530078125,10.2519715088,1.0,0.0,0.0,0.0,1.0,0.0,0.0,0.0,1.0
1463929918578603406,408,1463929918567136476,,4.31115674973,-4.10829544067,120.856056213,0.00219399994239,1.0,0.0,0.0,0.0,1.0,0.0,0.0,0.0,1.0,-0.853658556938,2.07317066193,-0.853658556938,1.0,0.0,0.0,0.0,1.0,0.0,0.0,0.0,1.0,-0.067037651051,-0.612915625,10.2567599121,1.0,0.0,0.0,0.0,1.0,0.0,0.0,0.0,1.0
1463929918595146669,409,1463929918589217423,,4.29693889618,-4.10513114929,120.857910156,0.00310499989428,1.0,0.0,0.0,0.0,1.0,0.0,0.0,0.0,1.0,-0.18292683363,1.15853655338,-0.853658556938,1.0,0.0,0.0,0.0,1.0,0.0,0.0,0.0,1.0,0.067037651051,-0.555454785156,10.3764699951,1.0,0.0,0.0,0.0,1.0,0.0,0.0,0.0,1.0
1463929918612133628,410,1463929918609931502,,4.2884683609,-4.09420108795,120.867401123,0.00156200001948,1.0,0.0,0.0,0.0,1.0,0.0,0.0,0.0,1.0,0.426829278469,1.34146344662,-0.12195122242,1.0,0.0,0.0,0.0,1.0,0.0,0.0,0.0,1.0,0.0526724365234,-0.60812722168,10.3668931885,1.0,0.0,0.0,0.0,1.0,0.0,0.0,0.0,1.0
1463929918634667490,411,1463929918630794746,,4.29277420044,-4.08490419388,120.891067505,0.00326099991798,1.0,0.0,0.0,0.0,1.0,0.0,0.0,0.0,1.0,0.304878056049,1.8292683363,0.365853667259,1.0,0.0,0.0,0.0,1.0,0.0,0.0,0.0,1.0,-0.0239420166016,-0.603338854892,10.1418382324,1.0,0.0,0.0,0.0,1.0,0.0,0.0,0.0,1.0
1463929918685665709,412,1463929918653204546,,4.29326581955,-4.06125545502,120.925949097,0.00213799998164,1.0,0.0,0.0,0.0,1.0,0.0,0.0,0.0,1.0,-0.12195122242,2.19512200356,0.426829278469,1.0,0.0,0.0,0.0,1.0,0.0,0.0,0.0,1.0,0.00478840332031,-0.584185168546,10.1514150391,1.0,0.0,0.0,0.0,1.0,0.0,0.0,0.0,1.0
1463929918685725813,413,1463929918673268210,,4.29953861237,-4.04698419571,120.964279175,0.0020759999752,1.0,0.0,0.0,0.0,1.0,0.0,0.0,0.0,1.0,0.0609756112099,2.07317066193,0.975609779358,1.0,0.0,0.0,0.0,1.0,0.0,0.0,0.0,1.0,0.0335188255255,-0.536301208408,10.1370498291,1.0,0.0,0.0,0.0,1.0,0.0,0.0,0.0,1.0
1463929918749900278,414,1463929918694906086,,4.30966854095,-4.03020715714,121.009132385,0.00195199996233,1.0,0.0,0.0,0.0,1.0,0.0,0.0,0.0,1.0,0.18292683363,2.5,1.46341466904,1.0,0.0,0.0,0.0,1.0,0.0,0.0,0.0,1.0,0.0430956298828,-0.507570751953,10.3333743652,1.0,0.0,0.0,0.0,1.0,0.0,0.0,0.0,1.0
1463929918753591408,415,1463929918717585416,,4.33427476883,-4.01705646515,121.067405701,0.00156700005755,1.0,0.0,0.0,0.0,1.0,0.0,0.0,0.0,1.0,-0.243902444839,3.04878044128,1.46341466904,1.0,0.0,0.0,0.0,1.0,0.0,0.0,0.0,1.0,0.0478840332031,-0.502782348633,10.2376062988,1.0,0.0,0.0,0.0,1.0,0.0,0.0,0.0,1.0
1463929918754088177,416,1463929918739084439,,4.35114860535,-4.00098419189,121.114250183,0.00156999996398,1.0,0.0,0.0,0.0,1.0,0.0,0.0,0.0,1.0,0.365853667259,2.68292689323,0.914634168148,1.0,0.0,0.0,0.0,1.0,0.0,0.0,0.0,1.0,0.124498486328,-0.708683691406,10.1609918457,1.0,0.0,0.0,0.0,1.0,0.0,0.0,0.0,1.0
1463929918779576193,417,1463929918758825552,,4.36199235916,-3.9892385006,121.147171021,0.00223600002937,1.0,0.0,0.0,0.0,1.0,0.0,0.0,0.0,1.0,-0.487804889679,2.01219511032,0.365853667259,1.0,0.0,0.0,0.0,1.0,0.0,0.0,0.0,1.0,0.119710083008,-0.517147558594,10.1178962158,1.0,0.0,0.0,0.0,1.0,0.0,0.0,0.0,1.0
1463929918922382405,418,1463929918779778692,,4.36438274384,-3.97936964035,121.172637939,0.00334700010717,1.0,0.0,0.0,0.0,1.0,0.0,0.0,0.0,1.0,-0.426829278469,3.04878044128,0.426829278469,1.0,0.0,0.0,0.0,1.0,0.0,0.0,0.0,1.0,0.263362164351,-0.593762048251,10.2232410889,1.0,0.0,0.0,0.0,1.0,0.0,0.0,0.0,1.0
1463929918924256824,419,1463929918800634540,,4.38509845734,-3.96702051163,121.19947052,0.00259699998423,1.0,0.0,0.0,0.0,1.0,0.0,0.0,0.0,1.0,-0.426829278469,2.68292689323,0.0,1.0,0.0,0.0,0.0,1.0,0.0,0.0,0.0,1.0,0.0239420166016,-0.46447512207,10.180145459,1.0,0.0,0.0,0.0,1.0,0.0,0.0,0.0,1.0
1463929918924318647,420,1463929918823846993,,4.39779615402,-3.96575951576,121.203948975,0.012082000263,1.0,0.0,0.0,0.0,1.0,0.0,0.0,0.0,1.0,-0.731707334518,2.62195134163,-1.2804877758,1.0,0.0,0.0,0.0,1.0,0.0,0.0,0.0,1.0,0.0526724365234,-0.60812722168,10.046070166,1.0,0.0,0.0,0.0,1.0,0.0,0.0,0.0,1.0
1463929918924357605,421,1463929918847516475,,4.39440822601,-3.97081613541,121.182929993,0.00569800008088,1.0,0.0,0.0,0.0,1.0,0.0,0.0,0.0,1.0,-0.792682945728,1.52439022064,-2.68292689323,1.0,0.0,0.0,0.0,1.0,0.0,0.0,0.0,1.0,0.215478149414,-0.622492431641,10.0125513428,1.0,0.0,0.0,0.0,1.0,0.0,0.0,0.0,1.0
1463929918924796197,422,1463929918869901380,,4.38068723679,-3.97557663918,121.147323608,0.00321700004861,1.0,0.0,0.0,0.0,1.0,0.0,0.0,0.0,1.0,-1.8902438879,1.58536589146,-2.80487799644,1.0,0.0,0.0,0.0,1.0,0.0,0.0,0.0,1.0,0.181959326172,-0.493205541992,10.2567599121,1.0,0.0,0.0,0.0,1.0,0.0,0.0,0.0,1.0
1463929918924862968,423,1463929918890046866,,4.37421560287,-3.98599028587,121.116966248,0.00224899989553,1.0,0.0,0.0,0.0,1.0,0.0,0.0,0.0,1.0,-1.70731711388,1.8292683363,-1.95121955872,1.0,0.0,0.0,0.0,1.0,0.0,0.0,0.0,1.0,0.0191536132812,-0.316034619141,10.2759135254,1.0,0.0,0.0,0.0,1.0,0.0,0.0,0.0,1.0
1463929919041979967,424,1463929918911097089,,4.37940597534,-3.99243545532,121.095802307,0.00203599990346,1.0,0.0,0.0,0.0,1.0,0.0,0.0,0.0,1.0,-1.8292683363,2.92682933807,-2.31707310677,1.0,0.0,0.0,0.0,1.0,0.0,0.0,0.0,1.0,-0.0143652099609,-0.46447512207,10.2088758789,1.0,0.0,0.0,0.0,1.0,0.0,0.0,0.0,1.0
1463929919042028456,425,1463929918932320384,,4.38851118088,-4.0201625824,121.069778442,0.00136899994686,1.0,0.0,0.0,0.0,1.0,0.0,0.0,0.0,1.0,-1.70731711388,2.68292689323,-2.37804889679,1.0,0.0,0.0,0.0,1.0,0.0,0.0,0.0,1.0,-0.0287304199219,-0.751779321289,10.1370498291,1.0,0.0,0.0,0.0,1.0,0.0,0.0,0.0,1.0
1463929919042062935,426,1463929918953371700,,4.39495420456,-4.05439281464,121.032783508,0.00246699992567,1.0,0.0,0.0,0.0,1.0,0.0,0.0,0.0,1.0,-1.8292683363,1.95121955872,-2.92682933807,1.0,0.0,0.0,0.0,1.0,0.0,0.0,0.0,1.0,-0.0718260498047,-0.723048901367,10.1753570557,1.0,0.0,0.0,0.0,1.0,0.0,0.0,0.0,1.0
1463929919042309705,427,1463929918974431922,,4.38568067551,-4.1015048027,120.98059845,0.00209499988705,1.0,0.0,0.0,0.0,1.0,0.0,0.0,0.0,1.0,-2.56097555161,1.2195122242,-3.29268312454,1.0,0.0,0.0,0.0,1.0,0.0,0.0,0.0,1.0,0.105344873047,-0.603338854892,10.2759135254,1.0,0.0,0.0,0.0,1.0,0.0,0.0,0.0,1.0
1463929919042350799,428,1463929918997000836,,4.37906932831,-4.14195251465,120.945571899,0.00206799991429,1.0,0.0,0.0,0.0,1.0,0.0,0.0,0.0,1.0,-2.13414645195,2.07317066193,-1.95121955872,1.0,0.0,0.0,0.0,1.0,0.0,0.0,0.0,1.0,0.129286889648,-0.670376464844,10.3716815918,1.0,0.0,0.0,0.0,1.0,0.0,0.0,0.0,1.0
1463929919060764418,429,1463929919018072517,,4.3877453804,-4.16677904129,120.92515564,0.00166900001932,1.0,0.0,0.0,0.0,1.0,0.0,0.0,0.0,1.0,-0.914634168148,2.62195134163,-1.70731711388,1.0,0.0,0.0,0.0,1.0,0.0,0.0,0.0,1.0,0.0718260498047,-0.684741674805,10.2471831055,1.0,0.0,0.0,0.0,1.0,0.0,0.0,0.0,1.0
1463929919060827074,430,1463929919038987428,,4.41900920868,-4.17790842056,120.909446716,0.00259199994616,1.0,0.0,0.0,0.0,1.0,0.0,0.0,0.0,1.0,-0.853658556938,1.95121955872,-1.95121955872,1.0,0.0,0.0,0.0,1.0,0.0,0.0,0.0,1.0,-0.0478840332031,-0.636857641602,10.2423947021,1.0,0.0,0.0,0.0,1.0,0.0,0.0,0.0,1.0
1463929919096282026,431,1463929919064183934,,4.43512582779,-4.19472265244,120.884902954,0.00619699992239,1.0,0.0,0.0,0.0,1.0,0.0,0.0,0.0,1.0,-1.03658533096,1.76829278469,-2.01219511032,1.0,0.0,0.0,0.0,1.0,0.0,0.0,0.0,1.0,-0.0287304199219,-0.699106884766,10.0221281494,1.0,0.0,0.0,0.0,1.0,0.0,0.0,0.0,1.0
1463929919097722541,432,1463929919086244934,,4.43796920776,-4.21439361572,120.879806519,0.00245700008236,1.0,0.0,0.0,0.0,1.0,0.0,0.0,0.0,1.0,-1.58536589146,2.13414645195,-0.304878056049,1.0,0.0,0.0,0.0,1.0,0.0,0.0,0.0,1.0,-0.0383072265625,-0.397437475586,10.2711251221,1.0,0.0,0.0,0.0,1.0,0.0,0.0,0.0,1.0
1463929919138264243,433,1463929919109114419,,4.46365785599,-4.23241567612,120.917320251,0.00494799995795,1.0,0.0,0.0,0.0,1.0,0.0,0.0,0.0,1.0,-1.09756100178,2.98780488968,1.15853655338,1.0,0.0,0.0,0.0,1.0,0.0,0.0,0.0,1.0,0.00478840332031,-0.61770402832,10.3094323486,1.0,0.0,0.0,0.0,1.0,0.0,0.0,0.0,1.0
1463929919138329607,434,1463929919132435622,,4.51047945023,-4.24083280563,120.959373474,0.00362100009806,1.0,0.0,0.0,0.0,1.0,0.0,0.0,0.0,1.0,-1.46341466904,3.23170733452,0.914634168148,1.0,0.0,0.0,0.0,1.0,0.0,0.0,0.0,1.0,-0.0861912597656,-0.689530078125,10.1705686523,1.0,0.0,0.0,0.0,1.0,0.0,0.0,0.0,1.0
1463929919214174908,435,1463929919152881941,,4.53576421738,-4.25797367096,120.997459412,0.00341999996454,1.0,0.0,0.0,0.0,1.0,0.0,0.0,0.0,1.0,-1.2804877758,2.62195134163,0.853658556938,1.0,0.0,0.0,0.0,1.0,0.0,0.0,0.0,1.0,0.0191536132812,-0.646434448242,10.1992990723,1.0,0.0,0.0,0.0,1.0,0.0,0.0,0.0,1.0
1463929919214240637,436,1463929919175246585,,4.54978132248,-4.26972055435,121.04296875,0.00203300011344,1.0,0.0,0.0,0.0,1.0,0.0,0.0,0.0,1.0,-1.15853655338,2.92682933807,1.34146344662,1.0,0.0,0.0,0.0,1.0,0.0,0.0,0.0,1.0,0.067037651051,-0.588973571866,10.1083194092,1.0,0.0,0.0,0.0,1.0,0.0,0.0,0.0,1.0
1463929919214288970,437,1463929919195262697,,4.57012271881,-4.2923951149,121.098197937,0.00150899996515,1.0,0.0,0.0,0.0,1.0,0.0,0.0,0.0,1.0,-1.64634156227,2.62195134163,1.76829278469,1.0,0.0,0.0,0.0,1.0,0.0,0.0,0.0,1.0,-0.0718260498047,-0.641646044922,10.165780249,1.0,0.0,0.0,0.0,1.0,0.0,0.0,0.0,1.0
1463929919268401290,438,1463929919216814532,,4.59354448318,-4.31384134293,121.150177002,0.00137299997732,1.0,0.0,0.0,0.0,1.0,0.0,0.0,0.0,1.0,-1.8902438879,2.5,1.2195122242,1.0,0.0,0.0,0.0,1.0,0.0,0.0,0.0,1.0,0.0574608398438,-0.718260498047,10.1609918457,1.0,0.0,0.0,0.0,1.0,0.0,0.0,0.0,1.0
1463929919284965595,439,1463929919236870227,,4.60028934479,-4.32624721527,121.188484192,0.00139500002842,1.0,0.0,0.0,0.0,1.0,0.0,0.0,0.0,1.0,-1.34146344662,2.19512200356,0.792682945728,1.0,0.0,0.0,0.0,1.0,0.0,0.0,0.0,1.0,0.100556469727,-0.632069238281,10.2376062988,1.0,0.0,0.0,0.0,1.0,0.0,0.0,0.0,1.0
1463929919299894437,440,1463929919257837117,,4.60528945923,-4.3320851326,121.226295471,0.00364700006321,1.0,0.0,0.0,0.0,1.0,0.0,0.0,0.0,1.0,-1.03658533096,2.31707310677,0.792682945728,1.0,0.0,0.0,0.0,1.0,0.0,0.0,0.0,1.0,0.134075302102,-0.651222851562,10.1466266357,1.0,0.0,0.0,0.0,1.0,0.0,0.0,0.0,1.0
1463929919299937145,441,1463929919278974422,,4.62646484375,-4.35638618469,121.269752502,0.00151299999561,1.0,0.0,0.0,0.0,1.0,0.0,0.0,0.0,1.0,-2.62195134163,3.10975623131,1.40243899822,1.0,0.0,0.0,0.0,1.0,0.0,0.0,0.0,1.0,-0.00957680664062,-0.665588061523,10.1897222656,1.0,0.0,0.0,0.0,1.0,0.0,0.0,0.0,1.0
1463929919351461248,442,1463929919299655063,,4.65426063538,-4.39243030548,121.324356079,0.00132000003941,1.0,0.0,0.0,0.0,1.0,0.0,0.0,0.0,1.0,-2.01219511032,2.56097555161,1.52439022064,1.0,0.0,0.0,0.0,1.0,0.0,0.0,0.0,1.0,0.0861912597656,-0.723048901367,10.2711251221,1.0,0.0,0.0,0.0,1.0,0.0,0.0,0.0,1.0
1463929919351502446,443,1463929919320381485,,4.67434549332,-4.40547132492,121.3698349,0.0013419999741,1.0,0.0,0.0,0.0,1.0,0.0,0.0,0.0,1.0,-2.86585378647,2.68292689323,0.914634168148,1.0,0.0,0.0,0.0,1.0,0.0,0.0,0.0,1.0,0.110133276367,-0.359130249023,9.93593688965,1.0,0.0,0.0,0.0,1.0,0.0,0.0,0.0,1.0
1463929919420356422,444,1463929919342360610,,4.6889090538,-4.45297908783,121.413269043,0.00154399999883,1.0,0.0,0.0,0.0,1.0,0.0,0.0,0.0,1.0,-4.93902444839,2.80487799644,0.914634168148,1.0,0.0,0.0,0.0,1.0,0.0,0.0,0.0,1.0,0.076614453125,-0.435744702148,9.94551369629,1.0,0.0,0.0,0.0,1.0,0.0,0.0,0.0,1.0
1463929919420415953,445,1463929919362372347,,4.6999669075,-4.53890180588,121.451782227,0.0012309999438,1.0,0.0,0.0,0.0,1.0,0.0,0.0,0.0,1.0,-7.25609779358,2.25609779358,0.548780500889,1.0,0.0,0.0,0.0,1.0,0.0,0.0,0.0,1.0,0.0478840332031,-0.483628735352,10.046070166,1.0,0.0,0.0,0.0,1.0,0.0,0.0,0.0,1.0
1463929919420452411,446,1463929919383208091,,4.70782661438,-4.66942596436,121.481132507,0.00151800003368,1.0,0.0,0.0,0.0,1.0,0.0,0.0,0.0,1.0,-8.17073154449,2.31707310677,0.0609756112099,1.0,0.0,0.0,0.0,1.0,0.0,0.0,0.0,1.0,0.0191536132812,-0.593762048251,10.0269165527,1.0,0.0,0.0,0.0,1.0,0.0,0.0,0.0,1.0
1463929919424948225,447,1463929919404394772,,4.70353412628,-4.83669185638,121.497817993,0.00137700000778,1.0,0.0,0.0,0.0,1.0,0.0,0.0,0.0,1.0,-11.0975618362,0.975609779358,-0.853658556938,1.0,0.0,0.0,0.0,1.0,0.0,0.0,0.0,1.0,-0.263362164351,-0.316034619141,9.48582756206,1.0,0.0,0.0,0.0,1.0,0.0,0.0,0.0,1.0
1463929919444958556,448,1463929919425434734,,4.6700758934,-5.07283592224,121.492301941,0.00153699994553,1.0,0.0,0.0,0.0,1.0,0.0,0.0,0.0,1.0,-15.975610733,-1.34146344662,-2.13414645195,1.0,0.0,0.0,0.0,1.0,0.0,0.0,0.0,1.0,-0.201112939453,-0.325611425781,9.50976957866,1.0,0.0,0.0,0.0,1.0,0.0,0.0,0.0,1.0
1463929919486630722,449,1463929919446928340,,4.5919084549,-5.4419093132,121.466133118,0.00164699996822,1.0,0.0,0.0,0.0,1.0,0.0,0.0,0.0,1.0,-19.2682914734,-1.2195122242,-1.8902438879,1.0,0.0,0.0,0.0,1.0,0.0,0.0,0.0,1.0,0.0478840332031,-0.794874951172,9.99818613281,1.0,0.0,0.0,0.0,1.0,0.0,0.0,0.0,1.0
1463929919503265338,450,1463929919467265701,,4.51063489914,-5.84892940521,121.457275391,0.00138999999035,1.0,0.0,0.0,0.0,1.0,0.0,0.0,0.0,1.0,-21.7682933807,-0.0609756112099,-1.2195122242,1.0,0.0,0.0,0.0,1.0,0.0,0.0,0.0,1.0,0.272938989258,-0.976834277344,10.2328178955,1.0,0.0,0.0,0.0,1.0,0.0,0.0,0.0,1.0
1463929919503347578,451,1463929919488365767,,4.46355056763,-6.24433374405,121.464698792,0.00217800005339,1.0,0.0,0.0,0.0,1.0,0.0,0.0,0.0,1.0,-19.2073173523,1.40243899822,-0.487804889679,1.0,0.0,0.0,0.0,1.0,0.0,0.0,0.0,1.0,0.474051928711,-0.828393774414,10.1705686523,1.0,0.0,0.0,0.0,1.0,0.0,0.0,0.0,1.0
1463929919568086624,452,1463929919509323594,,4.4543428421,-6.6600818634,121.46572113,0.0017419999931,1.0,0.0,0.0,0.0,1.0,0.0,0.0,0.0,1.0,-21.158536911,2.01219511032,-1.40243899822,1.0,0.0,0.0,0.0,1.0,0.0,0.0,0.0,1.0,-0.0430956298828,-1.01992990723,10.0843773926,1.0,0.0,0.0,0.0,1.0,0.0,0.0,0.0,1.0
1463929919570020157,453,1463929919529674340,,4.35083532333,-6.16368770599,121.483543396,0.00125500001013,1.0,0.0,0.0,0.0,1.0,0.0,0.0,0.0,1.0,62.6219520569,-9.02439117432,-1.95121955872,1.0,0.0,0.0,0.0,1.0,0.0,0.0,0.0,1.0,1.62326872559,3.61524450684,10.1226846191,1.0,0.0,0.0,0.0,1.0,0.0,0.0,0.0,1.0
1463929919572158846,454,1463929919550190086,,4.36729097366,-5.91095018387,121.449577332,0.0017490000464,1.0,0.0,0.0,0.0,1.0,0.0,0.0,0.0,1.0,20.5487823486,0.304878056049,-5.48780488968,1.0,0.0,0.0,0.0,1.0,0.0,0.0,0.0,1.0,-0.76135612793,-1.44130939941,9.60074924175,1.0,0.0,0.0,0.0,1.0,0.0,0.0,0.0,1.0
1463929919587924508,455,1463929919572136190,,4.33663368225,-5.80623102188,121.444404602,0.00150200002827,1.0,0.0,0.0,0.0,1.0,0.0,0.0,0.0,1.0,-4.51219558716,-0.12195122242,-1.03658533096,1.0,0.0,0.0,0.0,1.0,0.0,0.0,0.0,1.0,-0.119710083008,-0.991199487305,10.4099888184,1.0,0.0,0.0,0.0,1.0,0.0,0.0,0.0,1.0
1463929919615054600,456,1463929919592327874,,4.33745193481,-5.87422370911,121.443649292,0.00149199995212,1.0,0.0,0.0,0.0,1.0,0.0,0.0,0.0,1.0,-1.15853655338,-3.41463422775,-0.365853667259,1.0,0.0,0.0,0.0,1.0,0.0,0.0,0.0,1.0,-0.287304199219,-1.95366855469,10.4435076416,1.0,0.0,0.0,0.0,1.0,0.0,0.0,0.0,1.0
1463929919652665064,457,1463929919613888043,,4.25716161728,-5.95544672012,121.49230957,0.00153799995314,1.0,0.0,0.0,0.0,1.0,0.0,0.0,0.0,1.0,2.80487799644,-1.46341466904,2.74390244484,1.0,0.0,0.0,0.0,1.0,0.0,0.0,0.0,1.0,-0.0718260498047,-2.02549460449,9.53371159526,1.0,0.0,0.0,0.0,1.0,0.0,0.0,0.0,1.0
1463929919653130219,458,1463929919634514725,,4.21192598343,-6.00119543076,121.594017029,0.00133600004483,1.0,0.0,0.0,0.0,1.0,0.0,0.0,0.0,1.0,4.93902444839,2.62195134163,4.93902444839,1.0,0.0,0.0,0.0,1.0,0.0,0.0,0.0,1.0,-0.00478840332031,-1.54665427246,9.23204160156,1.0,0.0,0.0,0.0,1.0,0.0,0.0,0.0,1.0
1463929919719693267,459,1463929919658088895,,4.22496128082,-5.79380702972,121.764945984,0.0119059998542,1.0,0.0,0.0,0.0,1.0,0.0,0.0,0.0,1.0,14.7560987473,3.47560977936,8.23170757294,1.0,0.0,0.0,0.0,1.0,0.0,0.0,0.0,1.0,0.244208569336,-1.26413847656,10.1609918457,1.0,0.0,0.0,0.0,1.0,0.0,0.0,0.0,1.0
1463929919721516957,460,1463929919681346817,,4.264316082,-5.35036420822,121.894264221,0.00501100020483,1.0,0.0,0.0,0.0,1.0,0.0,0.0,0.0,1.0,21.8292694092,3.65853667259,2.13414645195,1.0,0.0,0.0,0.0,1.0,0.0,0.0,0.0,1.0,0.450109912109,-1.08696755371,9.76834277344,1.0,0.0,0.0,0.0,1.0,0.0,0.0,0.0,1.0
1463929919724318716,461,1463929919702581882,,4.2258348465,-4.89656972885,121.944061279,0.00148199999239,1.0,0.0,0.0,0.0,1.0,0.0,0.0,0.0,1.0,16.0975608826,0.0,0.548780500889,1.0,0.0,0.0,0.0,1.0,0.0,0.0,0.0,1.0,0.833182177734,-0.335188232422,10.898405957,1.0,0.0,0.0,0.0,1.0,0.0,0.0,0.0,1.0
1463929919737169495,462,1463929919724820589,,4.13439559937,-4.62089967728,121.957572937,0.00136100000236,1.0,0.0,0.0,0.0,1.0,0.0,0.0,0.0,1.0,6.15853643417,5.06097555161,-0.609756112099,1.0,0.0,0.0,0.0,1.0,0.0,0.0,0.0,1.0,0.905008227539,-0.3064578125,10.8744639404,1.0,0.0,0.0,0.0,1.0,0.0,0.0,0.0,1.0
1463929919808119764,463,1463929919746125863,,4.16866254807,-4.50695848465,121.970626831,0.00182100001257,1.0,0.0,0.0,0.0,1.0,0.0,0.0,0.0,1.0,2.68292689323,9.81707286835,0.0609756112099,1.0,0.0,0.0,0.0,1.0,0.0,0.0,0.0,1.0,1.06781401349,-0.560243188477,10.299855542,1.0,0.0,0.0,0.0,1.0,0.0,0.0,0.0,1.0
1463929919811326730,464,1463929919767432438,,4.31940746307,-4.42864322662,121.956924438,0.00156000000425,1.0,0.0,0.0,0.0,1.0,0.0,0.0,0.0,1.0,3.53658556938,13.2926826477,-1.15853655338,1.0,0.0,0.0,0.0,1.0,0.0,0.0,0.0,1.0,0.536301208408,-0.689530078125,10.2232410889,1.0,0.0,0.0,0.0,1.0,0.0,0.0,0.0,1.0
1463929919813279117,465,1463929919789597135,,4.58029556274,-4.31019210815,121.924346924,0.00262699997984,1.0,0.0,0.0,0.0,1.0,0.0,0.0,0.0,1.0,6.34146356583,12.8048782349,-2.19512200356,1.0,0.0,0.0,0.0,1.0,0.0,0.0,0.0,1.0,-0.210689746094,-0.732625708008,9.80665,1.0,0.0,0.0,0.0,1.0,0.0,0.0,0.0,1.0
1463929919996060836,466,1463929919822120642,,4.98378610611,-4.04809141159,121.867584229,0.0187740009278,1.0,0.0,0.0,0.0,1.0,0.0,0.0,0.0,1.0,8.65853691101,15.4268302917,-1.34146344662,1.0,0.0,0.0,0.0,1.0,0.0,0.0,0.0,1.0,-0.234631762695,-0.742202514648,10.3573163818,1.0,0.0,0.0,0.0,1.0,0.0,0.0,0.0,1.0
1463929919997926817,467,1463929919844215235,,5.32112932205,-3.91973948479,121.866912842,0.00142900005449,1.0,0.0,0.0,0.0,1.0,0.0,0.0,0.0,1.0,5.30487823486,13.9024391174,-0.487804889679,1.0,0.0,0.0,0.0,1.0,0.0,0.0,0.0,1.0,-1.0534486574,-0.665588061523,10.2136642822,1.0,0.0,0.0,0.0,1.0,0.0,0.0,0.0,1.0
1463929919997995567,468,1463929919865418478,,5.63652515411,-3.84105372429,121.843254089,0.00134399998933,1.0,0.0,0.0,0.0,1.0,0.0,0.0,0.0,1.0,4.02439022064,6.0365858078,-1.76829278469,1.0,0.0,0.0,0.0,1.0,0.0,0.0,0.0,1.0,-1.55144267578,-0.603338854892,10.1131078125,1.0,0.0,0.0,0.0,1.0,0.0,0.0,0.0,1.0
1463929919998221139,469,1463929919887079062,,5.74171304703,-3.78739261627,121.836036682,0.00166700000409,1.0,0.0,0.0,0.0,1.0,0.0,0.0,0.0,1.0,-0.548780500889,3.41463422775,-0.243902444839,1.0,0.0,0.0,0.0,1.0,0.0,0.0,0.0,1.0,-0.866701000977,-0.296881024126,10.405200415,1.0,0.0,0.0,0.0,1.0,0.0,0.0,0.0,1.0
1463929919998263951,470,1463929919908587928,,5.84858036041,-3.79928827286,121.898666382,0.00172800000291,1.0,0.0,0.0,0.0,1.0,0.0,0.0,0.0,1.0,-0.487804889679,-1.8292683363,1.95121955872,1.0,0.0,0.0,0.0,1.0,0.0,0.0,0.0,1.0,-1.34075292969,-1.34554133301,10.0508585693,1.0,0.0,0.0,0.0,1.0,0.0,0.0,0.0,1.0
1463929919999975194,471,1463929919929396433,,5.74591016769,-3.81031107903,121.9140625,0.00151099998038,1.0,0.0,0.0,0.0,1.0,0.0,0.0,0.0,1.0,-0.914634168148,-7.43902492523,-1.8292683363,1.0,0.0,0.0,0.0,1.0,0.0,0.0,0.0,1.0,-0.694318481445,-1.11569797363,10.2423947021,1.0,0.0,0.0,0.0,1.0,0.0,0.0,0.0,1.0
1463929920000467223,472,1463929919950451656,,5.55535650253,-3.8084731102,121.922294617,0.00163499999326,1.0,0.0,0.0,0.0,1.0,0.0,0.0,0.0,1.0,-0.365853667259,-10.3048782349,1.09756100178,1.0,0.0,0.0,0.0,1.0,0.0,0.0,0.0,1.0,-0.46447512207,-0.646434448242,10.2184526855,1.0,0.0,0.0,0.0,1.0,0.0,0.0,0.0,1.0
1463929920000517223,473,1463929919970925266,,5.33038711548,-3.79326963425,121.990470886,0.00144300004467,1.0,0.0,0.0,0.0,1.0,0.0,0.0,0.0,1.0,-0.365853667259,-9.32926845551,1.34146344662,1.0,0.0,0.0,0.0,1.0,0.0,0.0,0.0,1.0,-0.253785375977,-0.435744702148,9.95987890625,1.0,0.0,0.0,0.0,1.0,0.0,0.0,0.0,1.0
1463929920117443338,474,1463929919992038040,,5.04930400848,-3.7531440258,122.062393188,0.00127699994482,1.0,0.0,0.0,0.0,1.0,0.0,0.0,0.0,1.0,1.8292683363,-6.34146356583,2.98780488968,1.0,0.0,0.0,0.0,1.0,0.0,0.0,0.0,1.0,0.603338854892,-0.469263525391,10.0221281494,1.0,0.0,0.0,0.0,1.0,0.0,0.0,0.0,1.0
1463929920117478389,475,1463929920013457063,,4.88315486908,-3.68376493454,122.179046631,0.00136800005566,1.0,0.0,0.0,0.0,1.0,0.0,0.0,0.0,1.0,2.56097555161,-1.34146344662,3.90243911743,1.0,0.0,0.0,0.0,1.0,0.0,0.0,0.0,1.0,0.234631762695,-0.660799658203,10.4578728516,1.0,0.0,0.0,0.0,1.0,0.0,0.0,0.0,1.0
1463929920117512296,476,1463929920034178173,,4.75718736649,-3.61950111389,122.242492676,0.00148400000762,1.0,0.0,0.0,0.0,1.0,0.0,0.0,0.0,1.0,1.76829278469,-3.17073178291,-0.18292683363,1.0,0.0,0.0,0.0,1.0,0.0,0.0,0.0,1.0,0.474051928711,-0.478840332031,9.96945571289,1.0,0.0,0.0,0.0,1.0,0.0,0.0,0.0,1.0
1463929920117548337,477,1463929920056504275,,4.57677507401,-3.54489016533,122.258003235,0.00195800000802,1.0,0.0,0.0,0.0,1.0,0.0,0.0,0.0,1.0,3.65853667259,2.5,0.0,1.0,0.0,0.0,0.0,1.0,0.0,0.0,0.0,1.0,1.01035310059,-0.344765039063,10.3094323486,1.0,0.0,0.0,0.0,1.0,0.0,0.0,0.0,1.0
1463929920117605941,478,1463929920077426321,,4.58082866669,-3.44799685478,122.289787292,0.00135999999475,1.0,0.0,0.0,0.0,1.0,0.0,0.0,0.0,1.0,2.86585378647,6.7682929039,0.914634168148,1.0,0.0,0.0,0.0,1.0,0.0,0.0,0.0,1.0,0.440533105469,-0.488417138672,10.4722380615,1.0,0.0,0.0,0.0,1.0,0.0,0.0,0.0,1.0
1463929920183762377,479,1463929920098528471,,4.66769933701,-3.38132739067,122.28515625,0.0019499999471,1.0,0.0,0.0,0.0,1.0,0.0,0.0,0.0,1.0,1.40243899822,7.07317113876,-2.68292689323,1.0,0.0,0.0,0.0,1.0,0.0,0.0,0.0,1.0,-0.258573779297,-0.550666381836,10.3621047852,1.0,0.0,0.0,0.0,1.0,0.0,0.0,0.0,1.0
1463929920183818054,480,1463929920119092445,,4.76835680008,-3.35626244545,122.245506287,0.0016609999584,1.0,0.0,0.0,0.0,1.0,0.0,0.0,0.0,1.0,1.09756100178,2.43902444839,-3.17073178291,1.0,0.0,0.0,0.0,1.0,0.0,0.0,0.0,1.0,-0.229843359375,-0.569819995117,10.2376062988,1.0,0.0,0.0,0.0,1.0,0.0,0.0,0.0,1.0
1463929920183874876,481,1463929920141059487,,4.80988836288,-3.32762718201,122.198356628,0.00153999996837,1.0,0.0,0.0,0.0,1.0,0.0,0.0,0.0,1.0,2.25609779358,0.365853667259,-2.98780488968,1.0,0.0,0.0,0.0,1.0,0.0,0.0,0.0,1.0,-0.196324536133,-0.751779321289,10.3764699951,1.0,0.0,0.0,0.0,1.0,0.0,0.0,0.0,1.0
1463929920183927532,482,1463929920162784290,,4.83256435394,-3.30778408051,122.177825928,0.00163499999326,1.0,0.0,0.0,0.0,1.0,0.0,0.0,0.0,1.0,1.8902438879,-1.52439022064,-1.15853655338,1.0,0.0,0.0,0.0,1.0,0.0,0.0,0.0,1.0,-0.699106884766,-0.675164868164,10.2328178955,1.0,0.0,0.0,0.0,1.0,0.0,0.0,0.0,1.0
1463929920250202666,483,1463929920184263781,,4.79146242142,-3.28326845169,122.196083069,0.00144699995872,1.0,0.0,0.0,0.0,1.0,0.0,0.0,0.0,1.0,-0.12195122242,-3.41463422775,-0.0609756112099,1.0,0.0,0.0,0.0,1.0,0.0,0.0,0.0,1.0,-0.172382519531,-0.699106884766,10.405200415,1.0,0.0,0.0,0.0,1.0,0.0,0.0,0.0,1.0
1463929920250504383,484,1463929920207055350,,4.71436500549,-3.29542684555,122.245147705,0.00170100003015,1.0,0.0,0.0,0.0,1.0,0.0,0.0,0.0,1.0,-1.15853655338,-6.82926845551,1.95121955872,1.0,0.0,0.0,0.0,1.0,0.0,0.0,0.0,1.0,0.378283862305,-0.3064578125,10.4578728516,1.0,0.0,0.0,0.0,1.0,0.0,0.0,0.0,1.0
1463929920273492150,485,1463929920227555888,,4.62745189667,-3.38130664825,122.352912903,0.00144000002183,1.0,0.0,0.0,0.0,1.0,0.0,0.0,0.0,1.0,-3.04878044128,-1.64634156227,5.97560977936,1.0,0.0,0.0,0.0,1.0,0.0,0.0,0.0,1.0,0.172382519531,-0.407014282227,10.1514150391,1.0,0.0,0.0,0.0,1.0,0.0,0.0,0.0,1.0
1463929920273769336,486,1463929920248369392,,4.52059698105,-3.49985289574,122.501365662,0.00227999989875,1.0,0.0,0.0,0.0,1.0,0.0,0.0,0.0,1.0,-9.26829242706,-1.34146344662,2.31707310677,1.0,0.0,0.0,0.0,1.0,0.0,0.0,0.0,1.0,0.809240161133,-0.268150604204,10.7547538574,1.0,0.0,0.0,0.0,1.0,0.0,0.0,0.0,1.0
1463929920397569848,487,1463929920269931123,,4.37923336029,-3.74897241592,122.568733215,0.00162999995518,1.0,0.0,0.0,0.0,1.0,0.0,0.0,0.0,1.0,-19.8780498505,5.97560977936,3.10975623131,1.0,0.0,0.0,0.0,1.0,0.0,0.0,0.0,1.0,1.89141931152,0.196324536133,11.5592056152,1.0,0.0,0.0,0.0,1.0,0.0,0.0,0.0,1.0
1463929920397967607,488,1463929920291783217,,4.410343647,-4.23516750336,122.695487976,0.00141100003384,1.0,0.0,0.0,0.0,1.0,0.0,0.0,0.0,1.0,-30.6707305908,17.5000019073,5.36585378647,1.0,0.0,0.0,0.0,1.0,0.0,0.0,0.0,1.0,1.43173259277,-0.0143652099609,10.7451770508,1.0,0.0,0.0,0.0,1.0,0.0,0.0,0.0,1.0
1463929920398264585,489,1463929920313661040,,4.76537466049,-4.77415943146,122.741821289,0.00190699996892,1.0,0.0,0.0,0.0,1.0,0.0,0.0,0.0,1.0,-65.4878082275,36.6463432312,-1.95121955872,1.0,0.0,0.0,0.0,1.0,0.0,0.0,0.0,1.0,-1.72382519531,3.52426484375,1.36948334961,1.0,0.0,0.0,0.0,1.0,0.0,0.0,0.0,1.0
1463929920398509115,490,1463929920335207459,,4.88246631622,-5.68327379227,122.580314636,0.0015569999814,1.0,0.0,0.0,0.0,1.0,0.0,0.0,0.0,1.0,-21.9512195587,-1.46341466904,-8.96341514587,1.0,0.0,0.0,0.0,1.0,0.0,0.0,0.0,1.0,0.0574608398438,-4.06056601562,9.70130512695,1.0,0.0,0.0,0.0,1.0,0.0,0.0,0.0,1.0
1463929920398775572,491,1463929920356166379,,4.94357728958,-5.92845678329,122.310836792,0.00151400000323,1.0,0.0,0.0,0.0,1.0,0.0,0.0,0.0,1.0,-14.2073173523,6.64634132385,-14.5121955872,1.0,0.0,0.0,0.0,1.0,0.0,0.0,0.0,1.0,-0.900219824219,-1.54186586914,10.8936175537,1.0,0.0,0.0,0.0,1.0,0.0,0.0,0.0,1.0
1463929920567533861,492,1463929920377415455,,4.91891860962,-6.16343212128,121.974761963,0.00132299994584,1.0,0.0,0.0,0.0,1.0,0.0,0.0,0.0,1.0,-13.1707324982,-1.52439022064,-19.5121955872,1.0,0.0,0.0,0.0,1.0,0.0,0.0,0.0,1.0,0.325611425781,-0.689530078125,11.3197854492,1.0,0.0,0.0,0.0,1.0,0.0,0.0,0.0,1.0
1463929920567829329,493,1463929920407486004,,4.63827514648,-6.55611085892,121.292427063,0.0108730001375,1.0,0.0,0.0,0.0,1.0,0.0,0.0,0.0,1.0,-14.6951217651,-8.96341514587,-26.6463432312,1.0,0.0,0.0,0.0,1.0,0.0,0.0,0.0,1.0,0.00478840332031,-0.995987890625,10.6637741943,1.0,0.0,0.0,0.0,1.0,0.0,0.0,0.0,1.0
1463929920568094484,494,1463929920438283216,,4.04048395157,-7.02928209305,120.49066925,0.0112549997866,1.0,0.0,0.0,0.0,1.0,0.0,0.0,0.0,1.0,-18.2926826477,-16.8292694092,-31.4634151459,1.0,0.0,0.0,0.0,1.0,0.0,0.0,0.0,1.0,0.067037651051,-0.354341845703,10.898405957,1.0,0.0,0.0,0.0,1.0,0.0,0.0,0.0,1.0
1463929920570691139,495,1463929920458476255,,3.53836250305,-7.43971967697,119.876831055,0.0020459999796,1.0,0.0,0.0,0.0,1.0,0.0,0.0,0.0,1.0,-18.841463089,-18.7804889679,-35.0000038147,1.0,0.0,0.0,0.0,1.0,0.0,0.0,0.0,1.0,0.067037651051,-1.36948334961,9.98860932617,1.0,0.0,0.0,0.0,1.0,0.0,0.0,0.0,1.0
1463929920571012492,496,1463929920479331322,,3.025826931,-7.84097719193,119.167221069,0.00276999990456,1.0,0.0,0.0,0.0,1.0,0.0,0.0,0.0,1.0,-13.5365858078,-19.8780498505,-40.1219520569,1.0,0.0,0.0,0.0,1.0,0.0,0.0,0.0,1.0,0.0335188255255,-1.35990654297,9.39005832661,1.0,0.0,0.0,0.0,1.0,0.0,0.0,0.0,1.0
1463929920571289366,497,1463929920499492017,,2.52359223366,-8.09807300568,118.382759094,0.00169699999969,1.0,0.0,0.0,0.0,1.0,0.0,0.0,0.0,1.0,-8.17073154449,-11.6463422775,-41.0365867615,1.0,0.0,0.0,0.0,1.0,0.0,0.0,0.0,1.0,0.905008227539,-1.72861359863,10.0412817627,1.0,0.0,0.0,0.0,1.0,0.0,0.0,0.0,1.0
1463929920571573688,498,1463929920520462552,,2.21906137466,-8.25800418854,117.565963745,0.00138599995989,1.0,0.0,0.0,0.0,1.0,0.0,0.0,0.0,1.0,-1.2804877758,3.59756112099,-39.4512214661,1.0,0.0,0.0,0.0,1.0,0.0,0.0,0.0,1.0,1.00556469727,-1.77170922852,10.4674496582,1.0,0.0,0.0,0.0,1.0,0.0,0.0,0.0,1.0
1463929920687538765,499,1463929920541305588,,2.2485806942,-8.24070835114,116.755950928,0.00146900000982,1.0,0.0,0.0,0.0,1.0,0.0,0.0,0.0,1.0,3.59756112099,16.8292694092,-37.4390220642,1.0,0.0,0.0,0.0,1.0,0.0,0.0,0.0,1.0,0.790086547852,-1.20188930646,10.4243540283,1.0,0.0,0.0,0.0,1.0,0.0,0.0,0.0,1.0
1463929920687615952,500,1463929920562037791,,2.5708732605,-8.16539478302,115.98651886,0.00152799999341,1.0,0.0,0.0,0.0,1.0,0.0,0.0,0.0,1.0,4.14634132385,23.7804889679,-34.7560997009,1.0,0.0,0.0,0.0,1.0,0.0,0.0,0.0,1.0,-0.0718260498047,-1.16358193377,10.285490332,1.0,0.0,0.0,0.0,1.0,0.0,0.0,0.0,1.0
1463929920687805066,501,1463929920582594682,,2.97776198387,-8.09838294983,115.24848938,0.00138100003824,1.0,0.0,0.0,0.0,1.0,0.0,0.0,0.0,1.0,2.37804889679,23.2926845551,-31.7682914734,1.0,0.0,0.0,0.0,1.0,0.0,0.0,0.0,1.0,-0.339976635742,-1.11569797363,10.7739074707,1.0,0.0,0.0,0.0,1.0,0.0,0.0,0.0,1.0
1463929920690693751,502,1463929920603349073,,3.37125515938,-8.06585502625,114.591896057,0.00152299995534,1.0,0.0,0.0,0.0,1.0,0.0,0.0,0.0,1.0,2.19512200356,22.4390239716,-27.1951236725,1.0,0.0,0.0,0.0,1.0,0.0,0.0,0.0,1.0,0.0239420166016,-1.28329208984,10.7068698242,1.0,0.0,0.0,0.0,1.0,0.0,0.0,0.0,1.0
1463929920692559577,503,1463929920624103932,,3.77375388145,-8.04333400726,114.047309875,0.00127200002316,1.0,0.0,0.0,0.0,1.0,0.0,0.0,0.0,1.0,2.07317066193,24.6951236725,-21.2804889679,1.0,0.0,0.0,0.0,1.0,0.0,0.0,0.0,1.0,0.0478840332031,-1.30723410645,10.5105452881,1.0,0.0,0.0,0.0,1.0,0.0,0.0,0.0,1.0
1463929920696738621,504,1463929920645401080,,4.26447343826,-8.02752113342,113.614990234,0.00145199999679,1.0,0.0,0.0,0.0,1.0,0.0,0.0,0.0,1.0,1.46341466904,25.8536586761,-14.5121955872,1.0,0.0,0.0,0.0,1.0,0.0,0.0,0.0,1.0,-0.335188232422,-1.31202250977,10.4004120117,1.0,0.0,0.0,0.0,1.0,0.0,0.0,0.0,1.0
1463929920773204024,505,1463929920666248075,,4.79320812225,-8.01392745972,113.343132019,0.00159200001508,1.0,0.0,0.0,0.0,1.0,0.0,0.0,0.0,1.0,1.03658533096,32.0731697083,-6.7682929039,1.0,0.0,0.0,0.0,1.0,0.0,0.0,0.0,1.0,0.272938989258,-1.17794714373,10.2950671387,1.0,0.0,0.0,0.0,1.0,0.0,0.0,0.0,1.0
1463929920836366774,506,1463929920687567046,,5.4966468811,-8.00017929077,113.182510376,0.00165999995079,1.0,0.0,0.0,0.0,1.0,0.0,0.0,0.0,1.0,0.304878056049,50.8536605835,0.12195122242,1.0,0.0,0.0,0.0,1.0,0.0,0.0,0.0,1.0,0.895431420898,-1.35032973633,10.1274730225,1.0,0.0,0.0,0.0,1.0,0.0,0.0,0.0,1.0
1463929920841753001,507,1463929920708414561,,6.60840559006,-8.01603317261,113.038253784,0.0019729998894,1.0,0.0,0.0,0.0,1.0,0.0,0.0,0.0,1.0,1.58536589146,75.914642334,1.52439022064,1.0,0.0,0.0,0.0,1.0,0.0,0.0,0.0,1.0,1.82438166504,-1.78607443848,9.95030209961,1.0,0.0,0.0,0.0,1.0,0.0,0.0,0.0,1.0
1463929920841833157,508,1463929920729276920,,8.3184261322,-8.02664279938,112.774772644,0.00197100010701,1.0,0.0,0.0,0.0,1.0,0.0,0.0,0.0,1.0,3.41463422775,93.5975646973,-3.47560977936,1.0,0.0,0.0,0.0,1.0,0.0,0.0,0.0,1.0,-0.521935925381,-1.37906015625,9.39484672993,1.0,0.0,0.0,0.0,1.0,0.0,0.0,0.0,1.0
1463929920933854274,509,1463929920750443652,,10.2982931137,-8.02110099792,112.352561951,0.00174500001594,1.0,0.0,0.0,0.0,1.0,0.0,0.0,0.0,1.0,2.56097555161,104.39025116,-8.17073154449,1.0,0.0,0.0,0.0,1.0,0.0,0.0,0.0,1.0,-0.268150604204,-1.0534486574,8.93037219238,1.0,0.0,0.0,0.0,1.0,0.0,0.0,0.0,1.0
1463929920934090159,510,1463929920771135803,,12.5258636475,-8.13644981384,111.82359314,0.00125400000252,1.0,0.0,0.0,0.0,1.0,0.0,0.0,0.0,1.0,2.80487799644,126.219512939,-9.26829242706,1.0,0.0,0.0,0.0,1.0,0.0,0.0,0.0,1.0,0.181959326172,-1.70945998535,9.06444748535,1.0,0.0,0.0,0.0,1.0,0.0,0.0,0.0,1.0
1463929920934341772,511,1463929920792316077,,15.1745424271,-8.29954814911,111.176795959,0.00153000000864,1.0,0.0,0.0,0.0,1.0,0.0,0.0,0.0,1.0,8.78048801422,152.439025879,-9.39024448395,1.0,0.0,0.0,0.0,1.0,0.0,0.0,0.0,1.0,0.129286889648,-2.70065947266,9.43315395649,1.0,0.0,0.0,0.0,1.0,0.0,0.0,0.0,1.0
1463929920934620625,512,1463929920813481455,,18.3226032257,-8.35571861267,110.384269714,0.00130200001877,1.0,0.0,0.0,0.0,1.0,0.0,0.0,0.0,1.0,10.6097564697,154.207321167,-17.3780498505,1.0,0.0,0.0,0.0,1.0,0.0,0.0,0.0,1.0,-2.77248552246,-1.13485158691,8.77235488281,1.0,0.0,0.0,0.0,1.0,0.0,0.0,0.0,1.0
1463929920934924165,513,1463929920834539699,,21.3889045715,-8.41668319702,109.443817139,0.00141000002623,1.0,0.0,0.0,0.0,1.0,0.0,0.0,0.0,1.0,2.92682933807,136.95123291,-25.6707324982,1.0,0.0,0.0,0.0,1.0,0.0,0.0,0.0,1.0,-4.37181223145,-0.00478840332031,9.32302068013,1.0,0.0,0.0,0.0,1.0,0.0,0.0,0.0,1.0
1463929920934967967,514,1463929920859205531,,24.2781848907,-8.85602664948,108.366104126,0.00765899987891,1.0,0.0,0.0,0.0,1.0,0.0,0.0,0.0,1.0,-8.78048801422,109.146347046,-24.3902435303,1.0,0.0,0.0,0.0,1.0,0.0,0.0,0.0,1.0,-4.72615378489,-1.0534486574,10.1609918457,1.0,0.0,0.0,0.0,1.0,0.0,0.0,0.0,1.0
1463929920935214112,515,1463929920880628877,,26.2520713806,-9.44700336456,107.460990906,0.00149499997497,1.0,0.0,0.0,0.0,1.0,0.0,0.0,0.0,1.0,-10.4268293381,85.4878082275,-22.1341457367,1.0,0.0,0.0,0.0,1.0,0.0,0.0,0.0,1.0,-3.7253777832,-1.82917006836,9.55286520855,1.0,0.0,0.0,0.0,1.0,0.0,0.0,0.0,1.0
1463929921072460765,516,1463929920902031650,,27.8326377869,-9.99097156525,106.745353699,0.0015040000435,1.0,0.0,0.0,0.0,1.0,0.0,0.0,0.0,1.0,-12.6219520569,67.9878082275,-14.5121955872,1.0,0.0,0.0,0.0,1.0,0.0,0.0,0.0,1.0,-4.86980617676,-1.24498486328,9.37569311665,1.0,0.0,0.0,0.0,1.0,0.0,0.0,0.0,1.0
1463929921072754722,517,1463929920923403381,,28.9802780151,-10.4512262344,106.312820435,0.00179600005504,1.0,0.0,0.0,0.0,1.0,0.0,0.0,0.0,1.0,-17.3780498505,44.2073173523,-7.43902492523,1.0,0.0,0.0,0.0,1.0,0.0,0.0,0.0,1.0,-5.14274516602,-1.2737152832,9.66299848491,1.0,0.0,0.0,0.0,1.0,0.0,0.0,0.0,1.0
1463929921079375162,518,1463929920944411677,,29.5962028503,-10.913942337,106.143623352,0.00230800011195,1.0,0.0,0.0,0.0,1.0,0.0,0.0,0.0,1.0,-18.7804889679,17.1951217651,0.487804889679,1.0,0.0,0.0,0.0,1.0,0.0,0.0,0.0,1.0,-5.40131894531,-1.9105729248,9.48103915874,1.0,0.0,0.0,0.0,1.0,0.0,0.0,0.0,1.0
1463929921081488695,519,1463929920965528722,,29.6726493835,-11.2421350479,106.297134399,0.00145500001963,1.0,0.0,0.0,0.0,1.0,0.0,0.0,0.0,1.0,-16.2195110321,-16.341463089,9.51219558716,1.0,0.0,0.0,0.0,1.0,0.0,0.0,0.0,1.0,-5.94240852051,-2.1930887207,9.09796630859,1.0,0.0,0.0,0.0,1.0,0.0,0.0,0.0,1.0
1463929921081777496,520,1463929920986535872,,29.1534576416,-11.324215889,106.774925232,0.00136200000998,1.0,0.0,0.0,0.0,1.0,0.0,0.0,0.0,1.0,-11.1585359573,-50.182926178,17.0121955872,1.0,0.0,0.0,0.0,1.0,0.0,0.0,0.0,1.0,-5.8945244873,-1.91536132812,8.77714328613,1.0,0.0,0.0,0.0,1.0,0.0,0.0,0.0,1.0
1463929921081846089,521,1463929921007157867,,27.9248943329,-11.1547145844,107.530670166,0.00193000002764,1.0,0.0,0.0,0.0,1.0,0.0,0.0,0.0,1.0,-5.18292713165,-87.2561035156,18.5365848541,1.0,0.0,0.0,0.0,1.0,0.0,0.0,0.0,1.0,-5.7987564209,-1.80043964844,8.50899328472,1.0,0.0,0.0,0.0,1.0,0.0,0.0,0.0,1.0
1463929921081902964,522,1463929921028732202,,25.8522624969,-10.8198442459,108.505889893,0.00311599997804,1.0,0.0,0.0,0.0,1.0,0.0,0.0,0.0,1.0,-0.0609756112099,-123.902442932,20.7317085266,1.0,0.0,0.0,0.0,1.0,0.0,0.0,0.0,1.0,-5.22893642578,-2.05422502441,8.95431420898,1.0,0.0,0.0,0.0,1.0,0.0,0.0,0.0,1.0
1463929921081945412,523,1463929921049612008,,23.0037288666,-10.292388916,109.714897156,0.00147200003266,1.0,0.0,0.0,0.0,1.0,0.0,0.0,0.0,1.0,5.48780488968,-157.439025879,28.3536586761,1.0,0.0,0.0,0.0,1.0,0.0,0.0,0.0,1.0,-3.54341845703,-1.89620771484,9.28950185688,1.0,0.0,0.0,0.0,1.0,0.0,0.0,0.0,1.0
1463929921257297579,524,1463929921071066188,,19.6272640228,-9.62767028809,111.217460632,0.00168500002474,1.0,0.0,0.0,0.0,1.0,0.0,0.0,0.0,1.0,4.14634132385,-177.439025879,42.9878044128,1.0,0.0,0.0,0.0,1.0,0.0,0.0,0.0,1.0,-1.36469494629,-1.05823706072,10.658985791,1.0,0.0,0.0,0.0,1.0,0.0,0.0,0.0,1.0
1463929921257534869,525,1463929921092022556,,16.0160064697,-8.98210811615,113.024391174,0.00307799992152,1.0,0.0,0.0,0.0,1.0,0.0,0.0,0.0,1.0,9.02439117432,-180.426834106,62.0731735229,1.0,0.0,0.0,0.0,1.0,0.0,0.0,0.0,1.0,-1.5083470459,-2.73896669922,10.0652237793,1.0,0.0,0.0,0.0,1.0,0.0,0.0,0.0,1.0
1463929921257764556,526,1463929921113027727,,12.2816076279,-8.2907037735,115.224868774,0.00164300005417,1.0,0.0,0.0,0.0,1.0,0.0,0.0,0.0,1.0,18.0487823486,-177.804870605,83.3536605835,1.0,0.0,0.0,0.0,1.0,0.0,0.0,0.0,1.0,-0.186747729492,-2.2170307373,9.98382092285,1.0,0.0,0.0,0.0,1.0,0.0,0.0,0.0,1.0
1463929921258054867,527,1463929921134808675,,8.69438648224,-7.50936365128,117.79145813,0.00194600003306,1.0,0.0,0.0,0.0,1.0,0.0,0.0,0.0,1.0,18.1097564697,-167.439025879,100.0,1.0,0.0,0.0,0.0,1.0,0.0,0.0,0.0,1.0,0.60812722168,-1.71424838867,9.61990285503,1.0,0.0,0.0,0.0,1.0,0.0,0.0,0.0,1.0
1463929921258098565,528,1463929921156839883,,5.40251779556,-6.8480963707,120.542297363,0.00159200001508,1.0,0.0,0.0,0.0,1.0,0.0,0.0,0.0,1.0,17.2560977936,-146.585372925,108.963417053,1.0,0.0,0.0,0.0,1.0,0.0,0.0,0.0,1.0,0.986411083984,-1.44609780273,9.41400034321,1.0,0.0,0.0,0.0,1.0,0.0,0.0,0.0,1.0
1463929921258341689,529,1463929921178309323,,2.59169220924,-6.36533689499,123.209564209,0.00152199994773,1.0,0.0,0.0,0.0,1.0,0.0,0.0,0.0,1.0,14.2682924271,-132.865859985,105.243904114,1.0,0.0,0.0,0.0,1.0,0.0,0.0,0.0,1.0,1.87226569824,-1.08217922346,9.77791958008,1.0,0.0,0.0,0.0,1.0,0.0,0.0,0.0,1.0
1463929921258598459,530,1463929921199096734,,0.147234499454,-6.09384298325,125.596336365,0.00190000003204,1.0,0.0,0.0,0.0,1.0,0.0,0.0,0.0,1.0,10.7926826477,-107.621955872,96.2804870605,1.0,0.0,0.0,0.0,1.0,0.0,0.0,0.0,1.0,2.21224233398,-1.32638771973,10.6398321777,1.0,0.0,0.0,0.0,1.0,0.0,0.0,0.0,1.0
1463929921258853926,531,1463929921224666833,,-1.952267766,-5.9301071167,128.087463379,0.00807399954647,1.0,0.0,0.0,0.0,1.0,0.0,0.0,0.0,1.0,9.87804889679,-62.8048782349,81.2804870605,1.0,0.0,0.0,0.0,1.0,0.0,0.0,0.0,1.0,3.01190568848,-1.50355864258,11.659762085,1.0,0.0,0.0,0.0,1.0,0.0,0.0,0.0,1.0
1463929921259093717,532,1463929921245200703,,-2.85841751099,-5.82524824142,129.709396362,0.00147100002505,1.0,0.0,0.0,0.0,1.0,0.0,0.0,0.0,1.0,6.21951246262,-26.3414649963,64.3292694092,1.0,0.0,0.0,0.0,1.0,0.0,0.0,0.0,1.0,3.18428820801,-0.809240161133,11.9422778809,1.0,0.0,0.0,0.0,1.0,0.0,0.0,0.0,1.0
1463929921328308369,533,1463929921266099520,,-3.07093763351,-5.79463481903,130.844848633,0.00185500003863,1.0,0.0,0.0,0.0,1.0,0.0,0.0,0.0,1.0,-0.731707334518,7.13414621353,42.8658561707,1.0,0.0,0.0,0.0,1.0,0.0,0.0,0.0,1.0,3.0406361084,-0.751779321289,12.3253501465,1.0,0.0,0.0,0.0,1.0,0.0,0.0,0.0,1.0
1463929921328612013,534,1463929921286928650,,-2.60731840134,-5.86464166641,131.50289917,0.00143199996091,1.0,0.0,0.0,0.0,1.0,0.0,0.0,0.0,1.0,-9.08536529541,37.865852356,25.0,1.0,0.0,0.0,0.0,1.0,0.0,0.0,0.0,1.0,1.13963999023,-1.12527478027,11.9901619141,1.0,0.0,0.0,0.0,1.0,0.0,0.0,0.0,1.0
1463929921338404472,535,1463929921317977371,,-1.12428760529,-6.24273061752,131.653305054,0.0115120001137,1.0,0.0,0.0,0.0,1.0,0.0,0.0,0.0,1.0,-7.50000047684,56.2804870605,-1.34146344662,1.0,0.0,0.0,0.0,1.0,0.0,0.0,0.0,1.0,1.37906015625,-2.70544787598,13.3548568604,1.0,0.0,0.0,0.0,1.0,0.0,0.0,0.0,1.0
1463929921419204282,536,1463929921339236656,,0.177210390568,-6.45188379288,131.385604858,0.00212699989788,1.0,0.0,0.0,0.0,1.0,0.0,0.0,0.0,1.0,-0.670731723309,74.8170776367,-8.96341514587,1.0,0.0,0.0,0.0,1.0,0.0,0.0,0.0,1.0,1.67594116211,-3.18907661133,13.7858131592,1.0,0.0,0.0,0.0,1.0,0.0,0.0,0.0,1.0
1463929921419475167,537,1463929921359728287,,1.75596833229,-6.52484512329,130.967193604,0.00188600004185,1.0,0.0,0.0,0.0,1.0,0.0,0.0,0.0,1.0,7.43902492523,84.5121917725,-15.0000009537,1.0,0.0,0.0,0.0,1.0,0.0,0.0,0.0,1.0,1.05823706072,-3.064578125,12.7946136719,1.0,0.0,0.0,0.0,1.0,0.0,0.0,0.0,1.0
1463929921422439269,538,1463929921381446631,,3.49103736877,-6.47455072403,130.369766235,0.00149499997497,1.0,0.0,0.0,0.0,1.0,0.0,0.0,0.0,1.0,12.1341466904,84.207321167,-21.5243911743,1.0,0.0,0.0,0.0,1.0,0.0,0.0,0.0,1.0,0.272938989258,-2.35589428746,11.7220113281,1.0,0.0,0.0,0.0,1.0,0.0,0.0,0.0,1.0
1463929921422850256,539,1463929921401925971,,5.07955265045,-6.34282875061,129.689834595,0.00152100005653,1.0,0.0,0.0,0.0,1.0,0.0,0.0,0.0,1.0,11.8902444839,81.7682952881,-25.0,1.0,0.0,0.0,0.0,1.0,0.0,0.0,0.0,1.0,0.474051928711,-2.08774370153,12.3253501465,1.0,0.0,0.0,0.0,1.0,0.0,0.0,0.0,1.0
1463929921533352649,540,1463929921423267390,,6.63440036774,-6.27491950989,128.977233887,0.00124999997206,1.0,0.0,0.0,0.0,1.0,0.0,0.0,0.0,1.0,15.0609760284,74.7561035156,-26.2195129395,1.0,0.0,0.0,0.0,1.0,0.0,0.0,0.0,1.0,-0.435744702148,-3.20344182129,12.24394729,1.0,0.0,0.0,0.0,1.0,0.0,0.0,0.0,1.0
1463929921533627908,541,1463929921443669959,,7.93283033371,-6.16703891754,128.24432373,0.00160299998242,1.0,0.0,0.0,0.0,1.0,0.0,0.0,0.0,1.0,21.7682933807,60.0000038147,-29.6341457367,1.0,0.0,0.0,0.0,1.0,0.0,0.0,0.0,1.0,-0.756567724609,-2.91613762207,11.2671130127,1.0,0.0,0.0,0.0,1.0,0.0,0.0,0.0,1.0
1463929921533914521,542,1463929921465045805,,8.82135772705,-5.90429162979,127.526275635,0.00609700009227,1.0,0.0,0.0,0.0,1.0,0.0,0.0,0.0,1.0,21.0975627899,44.9390258789,-29.5731697083,1.0,0.0,0.0,0.0,1.0,0.0,0.0,0.0,1.0,-0.861912597656,-1.92972653809,12.018892334,1.0,0.0,0.0,0.0,1.0,0.0,0.0,0.0,1.0
1463929921536772738,543,1463929921486666754,,9.53807258606,-5.66893005371,126.889289856,0.00137800001539,1.0,0.0,0.0,0.0,1.0,0.0,0.0,0.0,1.0,18.658536911,39.5731735229,-22.8048782349,1.0,0.0,0.0,0.0,1.0,0.0,0.0,0.0,1.0,-0.483628735352,-2.31279880371,12.5073094727,1.0,0.0,0.0,0.0,1.0,0.0,0.0,0.0,1.0
1463929921537101851,544,1463929921507315156,,10.1913738251,-5.48964548111,126.355926514,0.00257000001147,1.0,0.0,0.0,0.0,1.0,0.0,0.0,0.0,1.0,20.3048782349,32.8048782349,-19.3902435303,1.0,0.0,0.0,0.0,1.0,0.0,0.0,0.0,1.0,-1.13485158691,-2.60489140625,11.6837041016,1.0,0.0,0.0,0.0,1.0,0.0,0.0,0.0,1.0
1463929921537380288,545,1463929921531726562,,10.70794487,-5.24068641663,125.817153931,0.00310499989428,1.0,0.0,0.0,0.0,1.0,0.0,0.0,0.0,1.0,23.475610733,14.5121955872,-20.3658542633,1.0,0.0,0.0,0.0,1.0,0.0,0.0,0.0,1.0,-1.55144267578,-2.10689731481,10.4004120117,1.0,0.0,0.0,0.0,1.0,0.0,0.0,0.0,1.0
1463929921619068324,546,1463929921551307832,,10.8307733536,-4.93579292297,125.331466675,0.00156999996398,1.0,0.0,0.0,0.0,1.0,0.0,0.0,0.0,1.0,20.7926826477,5.42682933807,-23.0487823486,1.0,0.0,0.0,0.0,1.0,0.0,0.0,0.0,1.0,-1.49398183594,-1.72861359863,10.1609918457,1.0,0.0,0.0,0.0,1.0,0.0,0.0,0.0,1.0
1463929921619344729,547,1463929921574657159,,10.7466163635,-4.68907356262,124.816177368,0.00280399993062,1.0,0.0,0.0,0.0,1.0,0.0,0.0,0.0,1.0,16.8902435303,-1.8902438879,-23.9024391174,1.0,0.0,0.0,0.0,1.0,0.0,0.0,0.0,1.0,0.0383072265625,-1.82917006836,10.7164466309,1.0,0.0,0.0,0.0,1.0,0.0,0.0,0.0,1.0
1463929921619622644,548,1463929921596749825,,10.6354408264,-4.55200624466,124.270401001,0.00278400001116,1.0,0.0,0.0,0.0,1.0,0.0,0.0,0.0,1.0,20.0609760284,-2.07317066193,-24.3902435303,1.0,0.0,0.0,0.0,1.0,0.0,0.0,0.0,1.0,-1.65678754883,-2.23618435059,9.27992563477,1.0,0.0,0.0,0.0,1.0,0.0,0.0,0.0,1.0
1463929921659419922,549,1463929921618049474,,10.3915719986,-4.305809021,123.684120178,0.00169099995401,1.0,0.0,0.0,0.0,1.0,0.0,0.0,0.0,1.0,22.4390239716,-17.317073822,-28.7804889679,1.0,0.0,0.0,0.0,1.0,0.0,0.0,0.0,1.0,-1.00556469727,-1.36948334961,8.43716606587,1.0,0.0,0.0,0.0,1.0,0.0,0.0,0.0,1.0
1463929921659565755,550,1463929921639569486,,9.86707019806,-4.02598619461,123.101066589,0.00180299999192,1.0,0.0,0.0,0.0,1.0,0.0,0.0,0.0,1.0,19.2073173523,-24.5121955872,-28.5975608826,1.0,0.0,0.0,0.0,1.0,0.0,0.0,0.0,1.0,-0.905008227539,-0.708683691406,7.76200178223,1.0,0.0,0.0,0.0,1.0,0.0,0.0,0.0,1.0
1463929921787796665,551,1463929921660242314,,9.25805473328,-3.83526158333,122.536308289,0.00139400002081,1.0,0.0,0.0,0.0,1.0,0.0,0.0,0.0,1.0,14.8780498505,-32.865852356,-30.0609760284,1.0,0.0,0.0,0.0,1.0,0.0,0.0,0.0,1.0,-1.1875240965,-0.799663354492,6.9767036377,1.0,0.0,0.0,0.0,1.0,0.0,0.0,0.0,1.0
1463929921788506714,552,1463929921685759914,,8.43151664734,-3.77230620384,121.838523865,0.00388299999759,1.0,0.0,0.0,0.0,1.0,0.0,0.0,0.0,1.0,11.7682924271,-43.1707305908,-32.8048782349,1.0,0.0,0.0,0.0,1.0,0.0,0.0,0.0,1.0,-1.49398183594,-1.1540052002,6.33984599609,1.0,0.0,0.0,0.0,1.0,0.0,0.0,0.0,1.0
1463929921788855462,553,1463929921706537169,,7.45519924164,-3.75158452988,121.192214966,0.00176899996586,1.0,0.0,0.0,0.0,1.0,0.0,0.0,0.0,1.0,6.46341466904,-42.6219520569,-31.5243930817,1.0,0.0,0.0,0.0,1.0,0.0,0.0,0.0,1.0,0.119710083008,-0.77093293457,6.37815322266,1.0,0.0,0.0,0.0,1.0,0.0,0.0,0.0,1.0
1463929921791190088,554,1463929921727827703,,6.53464078903,-3.83116817474,120.636734009,0.00185000000056,1.0,0.0,0.0,0.0,1.0,0.0,0.0,0.0,1.0,-0.853658556938,-27.0121955872,-27.4390258789,1.0,0.0,0.0,0.0,1.0,0.0,0.0,0.0,1.0,0.861912597656,-0.636857641602,6.63193859863,1.0,0.0,0.0,0.0,1.0,0.0,0.0,0.0,1.0
1463929921791245296,555,1463929921749082716,,5.98194599152,-4.06468677521,120.078109741,0.0025190000888,1.0,0.0,0.0,0.0,1.0,0.0,0.0,0.0,1.0,-8.59756088257,-13.841463089,-27.9268302917,1.0,0.0,0.0,0.0,1.0,0.0,0.0,0.0,1.0,-0.282515795898,-0.737414111328,6.29675036621,1.0,0.0,0.0,0.0,1.0,0.0,0.0,0.0,1.0
1463929921791288785,556,1463929921769429920,,5.7722363472,-4.45530700684,119.520240784,0.00133899995126,1.0,0.0,0.0,0.0,1.0,0.0,0.0,0.0,1.0,-14.9390249252,-15.1829271317,-29.9390258789,1.0,0.0,0.0,0.0,1.0,0.0,0.0,0.0,1.0,-1.38384855957,-1.01514150391,6.32069238281,1.0,0.0,0.0,0.0,1.0,0.0,0.0,0.0,1.0
1463929922104457603,557,1463929921790727954,,5.4771065712,-4.98599481583,118.861763,0.00152399996296,1.0,0.0,0.0,0.0,1.0,0.0,0.0,0.0,1.0,-19.9390239716,-23.9024391174,-35.1219520569,1.0,0.0,0.0,0.0,1.0,0.0,0.0,0.0,1.0,-1.16358193377,-1.14442839355,7.21612380371,1.0,0.0,0.0,0.0,1.0,0.0,0.0,0.0,1.0
1463929922104493332,558,1463929921813013640,,4.97912740707,-5.66140508652,118.134437561,0.00224700011313,1.0,0.0,0.0,0.0,1.0,0.0,0.0,0.0,1.0,-25.975610733,-23.1707324982,-36.2804908752,1.0,0.0,0.0,0.0,1.0,0.0,0.0,0.0,1.0,-0.790086547852,-1.31202250977,7.61834968262,1.0,0.0,0.0,0.0,1.0,0.0,0.0,0.0,1.0
1463929922104530415,559,1463929921833435011,,4.55434131622,-6.38721609116,117.446083069,0.0017340000486,1.0,0.0,0.0,0.0,1.0,0.0,0.0,0.0,1.0,-31.341463089,-21.4634151459,-36.8902435303,1.0,0.0,0.0,0.0,1.0,0.0,0.0,0.0,1.0,-0.976834277344,-1.2497732666,7.95832631836,1.0,0.0,0.0,0.0,1.0,0.0,0.0,0.0,1.0
1463929922104564790,560,1463929921856143248,,4.15449333191,-7.26844882965,116.721076965,0.0016009999672,1.0,0.0,0.0,0.0,1.0,0.0,0.0,0.0,1.0,-36.3414611816,-20.7926826477,-36.0365867615,1.0,0.0,0.0,0.0,1.0,0.0,0.0,0.0,1.0,-1.45088620605,-1.75255561523,8.5760309312,1.0,0.0,0.0,0.0,1.0,0.0,0.0,0.0,1.0
1463929922104617862,561,1463929921876582223,,3.74696111679,-8.17356014252,116.064994812,0.00191400002223,1.0,0.0,0.0,0.0,1.0,0.0,0.0,0.0,1.0,-38.9024391174,-20.1219520569,-34.8780479431,1.0,0.0,0.0,0.0,1.0,0.0,0.0,0.0,1.0,-0.866701000977,-1.838746875,8.73883605957,1.0,0.0,0.0,0.0,1.0,0.0,0.0,0.0,1.0
1463929922104655831,562,1463929921898461192,,3.3779797554,-9.1417722702,115.417472839,0.00131600000896,1.0,0.0,0.0,0.0,1.0,0.0,0.0,0.0,1.0,-39.6951217651,-15.2439022064,-33.7195129395,1.0,0.0,0.0,0.0,1.0,0.0,0.0,0.0,1.0,-0.938527050781,-2.20266552734,8.71489404297,1.0,0.0,0.0,0.0,1.0,0.0,0.0,0.0,1.0
1463929922104690987,563,1463929921918868657,,3.10399913788,-10.1230230331,114.800300598,0.00193300005049,1.0,0.0,0.0,0.0,1.0,0.0,0.0,0.0,1.0,-38.5365829468,-13.7804880142,-30.7926845551,1.0,0.0,0.0,0.0,1.0,0.0,0.0,0.0,1.0,-1.29286889648,-2.3654710941,8.77714328613,1.0,0.0,0.0,0.0,1.0,0.0,0.0,0.0,1.0
1463929922104732914,564,1463929921940528251,,2.82537436485,-11.0808601379,114.230110168,0.00302199996077,1.0,0.0,0.0,0.0,1.0,0.0,0.0,0.0,1.0,-36.0365867615,-14.4512205124,-28.1097564697,1.0,0.0,0.0,0.0,1.0,0.0,0.0,0.0,1.0,-1.21625444336,-2.40856701625,9.31823227681,1.0,0.0,0.0,0.0,1.0,0.0,0.0,0.0,1.0
1463929922104769789,565,1463929921961630974,,2.5612282753,-11.9307909012,113.741699219,0.00235399999656,1.0,0.0,0.0,0.0,1.0,0.0,0.0,0.0,1.0,-34.1463432312,-12.1951217651,-25.5487804413,1.0,0.0,0.0,0.0,1.0,0.0,0.0,0.0,1.0,-1.01514150391,-2.48039291992,9.04050546875,1.0,0.0,0.0,0.0,1.0,0.0,0.0,0.0,1.0
1463929922104803695,566,1463929921982097501,,2.33886790276,-12.6890010834,113.280647278,0.00136800005566,1.0,0.0,0.0,0.0,1.0,0.0,0.0,0.0,1.0,-33.2926826477,-7.86585378647,-25.3048782349,1.0,0.0,0.0,0.0,1.0,0.0,0.0,0.0,1.0,-0.727837304687,-2.17393510742,8.96389101563,1.0,0.0,0.0,0.0,1.0,0.0,0.0,0.0,1.0
1463929922104846299,567,1463929922003916158,,2.18021821976,-13.4798898697,112.787902832,0.00197799992748,1.0,0.0,0.0,0.0,1.0,0.0,0.0,0.0,1.0,-35.6097564697,-3.59756112099,-24.2682933807,1.0,0.0,0.0,0.0,1.0,0.0,0.0,0.0,1.0,-0.45489831543,-2.34631748082,9.42357714985,1.0,0.0,0.0,0.0,1.0,0.0,0.0,0.0,1.0
1463929922104883382,568,1463929922025453878,,2.09159135818,-14.2199039459,112.309440613,0.00196000002325,1.0,0.0,0.0,0.0,1.0,0.0,0.0,0.0,1.0,-37.317073822,0.853658556938,-24.3292694092,1.0,0.0,0.0,0.0,1.0,0.0,0.0,0.0,1.0,-0.205901342773,-1.74297880859,9.92636008301,1.0,0.0,0.0,0.0,1.0,0.0,0.0,0.0,1.0
1463929922104917601,569,1463929922048345082,,2.07194924355,-15.019452095,111.770378113,0.00197000009939,1.0,0.0,0.0,0.0,1.0,0.0,0.0,0.0,1.0,-43.2317085266,0.243902444839,-28.4146347046,1.0,0.0,0.0,0.0,1.0,0.0,0.0,0.0,1.0,-0.713472094727,-1.61369191895,9.19852277832,1.0,0.0,0.0,0.0,1.0,0.0,0.0,0.0,1.0
1463929922104951403,570,1463929922069641189,,1.96013092995,-15.9371318817,111.124351501,0.00157299998682,1.0,0.0,0.0,0.0,1.0,0.0,0.0,0.0,1.0,-45.5487823486,-5.79268312454,-34.3902435303,1.0,0.0,0.0,0.0,1.0,0.0,0.0,0.0,1.0,-1.03429511719,-1.89620771484,9.03571706543,1.0,0.0,0.0,0.0,1.0,0.0,0.0,0.0,1.0
1463929922104998590,571,1463929922090360215,,1.69600689411,-16.847826004,110.438194275,0.00159200001508,1.0,0.0,0.0,0.0,1.0,0.0,0.0,0.0,1.0,-47.317073822,-7.13414621353,-36.2195129395,1.0,0.0,0.0,0.0,1.0,0.0,0.0,0.0,1.0,-0.220266552734,-1.59932670898,9.09796630859,1.0,0.0,0.0,0.0,1.0,0.0,0.0,0.0,1.0
1463929922786230000,572,1463929922110686014,,1.41850793362,-17.7157459259,109.777442932,0.00144400005229,1.0,0.0,0.0,0.0,1.0,0.0,0.0,0.0,1.0,-52.0121955872,0.914634168148,-34.6951217651,1.0,0.0,0.0,0.0,1.0,0.0,0.0,0.0,1.0,0.627280834961,-1.34075292969,9.53849999858,1.0,0.0,0.0,0.0,1.0,0.0,0.0,0.0,1.0
1463929922786280625,573,1463929922133136334,,1.27439558506,-18.6851482391,108.988105774,0.00155199994333,1.0,0.0,0.0,0.0,1.0,0.0,0.0,0.0,1.0,-56.2804870605,10.3048782349,-37.682926178,1.0,0.0,0.0,0.0,1.0,0.0,0.0,0.0,1.0,0.0143652099609,-1.13485158691,9.19852277832,1.0,0.0,0.0,0.0,1.0,0.0,0.0,0.0,1.0
1463929922786637603,574,1463929922156986961,,1.25434494019,-19.8448848724,108.046920776,0.00429200008512,1.0,0.0,0.0,0.0,1.0,0.0,0.0,0.0,1.0,-56.8902435303,3.53658556938,-40.9146385193,1.0,0.0,0.0,0.0,1.0,0.0,0.0,0.0,1.0,-0.598550451572,-1.63763393555,8.80587370605,1.0,0.0,0.0,0.0,1.0,0.0,0.0,0.0,1.0
1463929922787957389,575,1463929922179495980,,1.0956145525,-20.8452186584,107.233413696,0.00227400008589,1.0,0.0,0.0,0.0,1.0,0.0,0.0,0.0,1.0,-57.6219482422,2.19512200356,-37.9268302917,1.0,0.0,0.0,0.0,1.0,0.0,0.0,0.0,1.0,-0.272938989258,-0.952892260742,9.48103915874,1.0,0.0,0.0,0.0,1.0,0.0,0.0,0.0,1.0
1463929922788012336,576,1463929922199750164,,0.921336591244,-21.8018283844,106.493431091,0.00272400001995,1.0,0.0,0.0,0.0,1.0,0.0,0.0,0.0,1.0,-59.7560997009,2.86585378647,-35.7317085266,1.0,0.0,0.0,0.0,1.0,0.0,0.0,0.0,1.0,-0.181959326172,-1.19710090314,9.94551369629,1.0,0.0,0.0,0.0,1.0,0.0,0.0,0.0,1.0
1463929922794145748,577,1463929922224344590,,0.73732817173,-22.7992992401,105.765014648,0.0028919999022,1.0,0.0,0.0,0.0,1.0,0.0,0.0,0.0,1.0,-57.3170776367,0.548780500889,-35.6707344055,1.0,0.0,0.0,0.0,1.0,0.0,0.0,0.0,1.0,-0.225054956055,-1.58974990234,9.76834277344,1.0,0.0,0.0,0.0,1.0,0.0,0.0,0.0,1.0
1463929922794198456,578,1463929922243335082,,0.540008723736,-23.6306438446,105.081954956,0.00126000004821,1.0,0.0,0.0,0.0,1.0,0.0,0.0,0.0,1.0,-57.3170776367,1.2195122242,-34.7560997009,1.0,0.0,0.0,0.0,1.0,0.0,0.0,0.0,1.0,-0.220266552734,-0.497993945312,9.61990285503,1.0,0.0,0.0,0.0,1.0,0.0,0.0,0.0,1.0
1463929922795300014,579,1463929922264178170,,0.342334538698,-24.4497337341,104.424804688,0.00157600000966,1.0,0.0,0.0,0.0,1.0,0.0,0.0,0.0,1.0,-62.8048782349,2.31707310677,-31.8902454376,1.0,0.0,0.0,0.0,1.0,0.0,0.0,0.0,1.0,0.0957680664062,0.253785375977,9.60074924175,1.0,0.0,0.0,0.0,1.0,0.0,0.0,0.0,1.0
1463929922795353659,580,1463929922285282559,,0.225274726748,-25.313835144,103.837844849,0.00196600006893,1.0,0.0,0.0,0.0,1.0,0.0,0.0,0.0,1.0,-68.3536605835,5.42682933807,-27.8048782349,1.0,0.0,0.0,0.0,1.0,0.0,0.0,0.0,1.0,0.110133276367,-0.0383072265625,9.76834277344,1.0,0.0,0.0,0.0,1.0,0.0,0.0,0.0,1.0
1463929922795392617,581,1463929922305815856,,0.198970645666,-26.2685718536,103.29473114,0.00152599997818,1.0,0.0,0.0,0.0,1.0,0.0,0.0,0.0,1.0,-70.3658599854,3.47560977936,-25.0,1.0,0.0,0.0,0.0,1.0,0.0,0.0,0.0,1.0,-0.569819995117,-0.0430956298828,9.68693991699,1.0,0.0,0.0,0.0,1.0,0.0,0.0,0.0,1.0
1463929922795429232,582,1463929922328608988,,0.111478149891,-27.2382698059,102.830932617,0.00226199999452,1.0,0.0,0.0,0.0,1.0,0.0,0.0,0.0,1.0,-71.2195129395,-2.19512200356,-21.2804889679,1.0,0.0,0.0,0.0,1.0,0.0,0.0,0.0,1.0,-0.598550451572,0.383072265625,9.66299848491,1.0,0.0,0.0,0.0,1.0,0.0,0.0,0.0,1.0
1463929922796333968,583,1463929922349972959,,-0.053690418601,-28.0979633331,102.512046814,0.00235099997371,1.0,0.0,0.0,0.0,1.0,0.0,0.0,0.0,1.0,-67.5609741211,-1.70731711388,-15.3048791885,1.0,0.0,0.0,0.0,1.0,0.0,0.0,0.0,1.0,0.0383072265625,0.234631762695,9.34217429341,1.0,0.0,0.0,0.0,1.0,0.0,0.0,0.0,1.0
1463929922796760060,584,1463929922370601777,,-0.119666710496,-28.8908042908,102.292259216,0.0028919999022,1.0,0.0,0.0,0.0,1.0,0.0,0.0,0.0,1.0,-59.2682914734,-1.70731711388,-9.81707286835,1.0,0.0,0.0,0.0,1.0,0.0,0.0,0.0,1.0,-0.181959326172,-0.215478149414,9.68693991699,1.0,0.0,0.0,0.0,1.0,0.0,0.0,0.0,1.0
1463929922797312974,585,1463929922391214293,,-0.135120049119,-29.4068031311,102.188652039,0.00256199995056,1.0,0.0,0.0,0.0,1.0,0.0,0.0,0.0,1.0,-45.4268302917,-0.548780500889,-4.32926845551,1.0,0.0,0.0,0.0,1.0,0.0,0.0,0.0,1.0,0.0,-0.205901342773,10.0891657959,1.0,0.0,0.0,0.0,1.0,0.0,0.0,0.0,1.0
1463929922797357713,586,1463929922413445344,,-0.0445430837572,-29.6081676483,102.158172607,0.00156100001186,1.0,0.0,0.0,0.0,1.0,0.0,0.0,0.0,1.0,-34.0243911743,4.20731735229,3.84146332741,1.0,0.0,0.0,0.0,1.0,0.0,0.0,0.0,1.0,0.363918652344,0.60812722168,10.5823713379,1.0,0.0,0.0,0.0,1.0,0.0,0.0,0.0,1.0
1463929922797391671,587,1463929922434566921,,0.293490231037,-29.4939117432,102.250892639,0.00232900003903,1.0,0.0,0.0,0.0,1.0,0.0,0.0,0.0,1.0,-26.8902454376,12.4390249252,12.4390249252,1.0,0.0,0.0,0.0,1.0,0.0,0.0,0.0,1.0,0.684741674805,0.972045874023,11.5879360352,1.0,0.0,0.0,0.0,1.0,0.0,0.0,0.0,1.0
1463929922797782972,588,1463929922456023860,,0.83633941412,-29.1925468445,102.35684967,0.00163299997803,1.0,0.0,0.0,0.0,1.0,0.0,0.0,0.0,1.0,-16.9512195587,13.7195129395,13.5975618362,1.0,0.0,0.0,0.0,1.0,0.0,0.0,0.0,1.0,-0.799663354492,1.10133276367,11.7028577148,1.0,0.0,0.0,0.0,1.0,0.0,0.0,0.0,1.0
1463929922798466406,589,1463929922476150805,,1.1239720583,-28.6171913147,102.50643158,0.00189499999397,1.0,0.0,0.0,0.0,1.0,0.0,0.0,0.0,1.0,-3.29268312454,-1.76829278469,7.43902492523,1.0,0.0,0.0,0.0,1.0,0.0,0.0,0.0,1.0,-1.7669208252,1.42215578613,11.7603185547,1.0,0.0,0.0,0.0,1.0,0.0,0.0,0.0,1.0
1463929922799204320,590,1463929922498391908,,0.903604030609,-27.420753479,102.971481323,0.00237899995409,1.0,0.0,0.0,0.0,1.0,0.0,0.0,0.0,1.0,-6.7682929039,-33.3536605835,9.39024448395,1.0,0.0,0.0,0.0,1.0,0.0,0.0,0.0,1.0,0.799663354492,5.36301171875,14.4849200439,1.0,0.0,0.0,0.0,1.0,0.0,0.0,0.0,1.0
1463929922799598745,591,1463929922517964429,,0.719496548176,-27.1023368835,103.357711792,0.00176000001375,1.0,0.0,0.0,0.0,1.0,0.0,0.0,0.0,1.0,4.87804889679,-17.317073822,23.3536586761,1.0,0.0,0.0,0.0,1.0,0.0,0.0,0.0,1.0,-1.82917006836,-6.44997927246,0.656011254883,1.0,0.0,0.0,0.0,1.0,0.0,0.0,0.0,1.0
1463929922800267180,592,1463929922539563711,,0.80603158474,-25.7310829163,103.792602539,0.00289299990982,1.0,0.0,0.0,0.0,1.0,0.0,0.0,0.0,1.0,43.8414649963,1.52439022064,19.8780498505,1.0,0.0,0.0,0.0,1.0,0.0,0.0,0.0,1.0,0.976834277344,2.06380183105,12.8616513184,1.0,0.0,0.0,0.0,1.0,0.0,0.0,0.0,1.0
1463929922800319680,593,1463929922561160338,,1.06406462193,-23.8990135193,104.145324707,0.00232800003141,1.0,0.0,0.0,0.0,1.0,0.0,0.0,0.0,1.0,53.1707305908,7.13414621353,19.6951236725,1.0,0.0,0.0,0.0,1.0,0.0,0.0,0.0,1.0,-1.24019645996,2.9927520752,12.1433908203,1.0,0.0,0.0,0.0,1.0,0.0,0.0,0.0,1.0
1463929922800758167,594,1463929922581744052,,1.37719357014,-22.0723953247,104.623046875,0.00230700010434,1.0,0.0,0.0,0.0,1.0,0.0,0.0,0.0,1.0,59.6341438293,0.0,28.9024410248,1.0,0.0,0.0,0.0,1.0,0.0,0.0,0.0,1.0,1.56580788574,2.39420180629,12.6365963623,1.0,0.0,0.0,0.0,1.0,0.0,0.0,0.0,1.0
1463929922801189936,595,1463929922603068752,,1.6578823328,-20.0986270905,105.375961304,0.00163600000087,1.0,0.0,0.0,0.0,1.0,0.0,0.0,0.0,1.0,59.1463394165,3.35365867615,40.3048782349,1.0,0.0,0.0,0.0,1.0,0.0,0.0,0.0,1.0,2.94486804199,3.81635744629,14.0108681152,1.0,0.0,0.0,0.0,1.0,0.0,0.0,0.0,1.0
1463929922801242540,596,1463929922624075746,,1.98571574688,-18.0472640991,106.224739075,0.00151600001846,1.0,0.0,0.0,0.0,1.0,0.0,0.0,0.0,1.0,66.7682952881,1.46341466904,41.8292694092,1.0,0.0,0.0,0.0,1.0,0.0,0.0,0.0,1.0,-2.05422502441,3.1124621582,13.8289087891,1.0,0.0,0.0,0.0,1.0,0.0,0.0,0.0,1.0
1463929922801394102,597,1463929922644330190,,2.26801562309,-15.9201726913,107.027053833,0.00136600004043,1.0,0.0,0.0,0.0,1.0,0.0,0.0,0.0,1.0,77.2561035156,-14.4512205124,35.4878044128,1.0,0.0,0.0,0.0,1.0,0.0,0.0,0.0,1.0,-1.07739082014,4.20421782297,14.0443869385,1.0,0.0,0.0,0.0,1.0,0.0,0.0,0.0,1.0
1463929922802263265,598,1463929922664830311,,1.8947738409,-13.7450208664,107.835983276,0.00134499999695,1.0,0.0,0.0,0.0,1.0,0.0,0.0,0.0,1.0,79.9390258789,-13.2926826477,34.8780479431,1.0,0.0,0.0,0.0,1.0,0.0,0.0,0.0,1.0,2.56179577637,3.26569106445,8.13549724121,1.0,0.0,0.0,0.0,1.0,0.0,0.0,0.0,1.0
1463929922802600764,599,1463929922685728451,,1.96319997311,-11.4136352539,108.567573547,0.00150200002827,1.0,0.0,0.0,0.0,1.0,0.0,0.0,0.0,1.0,80.3658599854,10.0609760284,35.7317085266,1.0,0.0,0.0,0.0,1.0,0.0,0.0,0.0,1.0,3.92649072266,5.1858407959,10.8313683105,1.0,0.0,0.0,0.0,1.0,0.0,0.0,0.0,1.0
1463929922822835156,600,1463929922706748621,,2.50839853287,-9.17109870911,109.13117218,0.00164999999106,1.0,0.0,0.0,0.0,1.0,0.0,0.0,0.0,1.0,87.1951217651,27.317073822,25.3048782349,1.0,0.0,0.0,0.0,1.0,0.0,0.0,0.0,1.0,1.54665427246,2.68150585937,12.7994020752,1.0,0.0,0.0,0.0,1.0,0.0,0.0,0.0,1.0
1463929922822932864,601,1463929922726856973,,3.09301352501,-6.91922092438,109.506874084,0.00136999995448,1.0,0.0,0.0,0.0,1.0,0.0,0.0,0.0,1.0,88.3536605835,24.6341457367,14.8780498505,1.0,0.0,0.0,0.0,1.0,0.0,0.0,0.0,1.0,-3.9360675293,4.76446159597,12.9478425781,1.0,0.0,0.0,0.0,1.0,0.0,0.0,0.0,1.0
1463929922823086301,602,1463929922748944014,,3.14142107964,-4.41710805893,109.969497681,0.00225699995644,1.0,0.0,0.0,0.0,1.0,0.0,0.0,0.0,1.0,78.2317047119,6.15853643417,20.4878044128,1.0,0.0,0.0,0.0,1.0,0.0,0.0,0.0,1.0,-0.0335188255255,1.15879360352,9.73961235352,1.0,0.0,0.0,0.0,1.0,0.0,0.0,0.0,1.0
1463929922824016297,603,1463929922772637350,,3.2173037529,-2.54018330574,110.612258911,0.00126799999271,1.0,0.0,0.0,0.0,1.0,0.0,0.0,0.0,1.0,79.3292694092,-4.2682929039,29.3292694092,1.0,0.0,0.0,0.0,1.0,0.0,0.0,0.0,1.0,-3.27526787109,5.27682045898,20.2549460449,1.0,0.0,0.0,0.0,1.0,0.0,0.0,0.0,1.0
1463929922858520889,604,1463929922794246841,,3.37857723236,0.330971300602,111.547592163,0.00644800020382,1.0,0.0,0.0,0.0,1.0,0.0,0.0,0.0,1.0,90.6707382202,-1.70731711388,37.4390220642,1.0,0.0,0.0,0.0,1.0,0.0,0.0,0.0,1.0,-0.775721337891,3.56257207031,13.1058598877,1.0,0.0,0.0,0.0,1.0,0.0,0.0,0.0,1.0
1463929922858572504,605,1463929922815978779,,2.99677038193,2.55272865295,112.454864502,0.0014230000088,1.0,0.0,0.0,0.0,1.0,0.0,0.0,0.0,1.0,89.1463470459,8.35365867615,39.0243911743,1.0,0.0,0.0,0.0,1.0,0.0,0.0,0.0,1.0,1.00077629395,-3.28005627441,11.8704518311,1.0,0.0,0.0,0.0,1.0,0.0,0.0,0.0,1.0
1463929922858609847,606,1463929922837043273,,2.81638073921,7.56094312668,113.031822205,0.00141400005668,1.0,0.0,0.0,0.0,1.0,0.0,0.0,0.0,1.0,388.719512939,-24.8780498505,-54.0853652954,1.0,0.0,0.0,0.0,1.0,0.0,0.0,0.0,1.0,-4.94642062988,128.396237279,156.901611597,1.0,0.0,0.0,0.0,1.0,0.0,0.0,0.0,1.0
1463929923039872926,607,1463929922858177870,,2.88263249397,11.3357534409,114.124687195,0.00207699998282,1.0,0.0,0.0,0.0,1.0,0.0,0.0,0.0,1.0,227.317077637,-125.914642334,88.4756164551,1.0,0.0,0.0,0.0,1.0,0.0,0.0,0.0,1.0,-4.41011945801,35.8795060791,23.424869043,1.0,0.0,0.0,0.0,1.0,0.0,0.0,0.0,1.0
1463929923040108811,608,1463929922879002677,,3.41165423393,11.7348423004,115.982757568,0.00130899995565,1.0,0.0,0.0,0.0,1.0,0.0,0.0,0.0,1.0,154.45123291,31.6463413239,72.8658599854,1.0,0.0,0.0,0.0,1.0,0.0,0.0,0.0,1.0,4.93684382324,-3.52905324707,7.69975253906,1.0,0.0,0.0,0.0,1.0,0.0,0.0,0.0,1.0
1463929923040341622,609,1463929922900845448,,3.62982916832,11.835770607,116.421073914,0.00172099994961,1.0,0.0,0.0,0.0,1.0,0.0,0.0,0.0,1.0,-122.134147644,14.9390249252,18.7195110321,1.0,0.0,0.0,0.0,1.0,0.0,0.0,0.0,1.0,0.718260498047,-1.51313544922,9.05487067871,1.0,0.0,0.0,0.0,1.0,0.0,0.0,0.0,1.0
1463929923040575475,610,1463929922922435199,,3.5381398201,11.3133039474,116.923950195,0.00143299996853,1.0,0.0,0.0,0.0,1.0,0.0,0.0,0.0,1.0,-180.304885864,-4.57317066193,20.4268302917,1.0,0.0,0.0,0.0,1.0,0.0,0.0,0.0,1.0,2.34631748082,4.55377155762,5.98071574707,1.0,0.0,0.0,0.0,1.0,0.0,0.0,0.0,1.0
1463929923040902557,611,1463929922943253964,,3.85894799232,10.8998098373,117.337097168,0.00168400001712,1.0,0.0,0.0,0.0,1.0,0.0,0.0,0.0,1.0,-137.987808228,13.048781395,14.8780498505,1.0,0.0,0.0,0.0,1.0,0.0,0.0,0.0,1.0,2.00155258789,15.6054064209,-4.78361520925,1.0,0.0,0.0,0.0,1.0,0.0,0.0,0.0,1.0
1463929923041152713,612,1463929922965460484,,4.3296790123,10.4377803802,117.620704651,0.00143499998376,1.0,0.0,0.0,0.0,1.0,0.0,0.0,0.0,1.0,138.719512939,-10.548781395,13.9024391174,1.0,0.0,0.0,0.0,1.0,0.0,0.0,0.0,1.0,7.35019909668,11.5687824219,-9.79707319336,1.0,0.0,0.0,0.0,1.0,0.0,0.0,0.0,1.0
1463929923050551527,613,1463929922985308212,,4.80024194717,8.85828399658,118.104957581,0.00135300005786,1.0,0.0,0.0,0.0,1.0,0.0,0.0,0.0,1.0,98.3536605835,20.975610733,10.9756097794,1.0,0.0,0.0,0.0,1.0,0.0,0.0,0.0,1.0,5.71256516113,-18.1576253906,22.0697509033,1.0,0.0,0.0,0.0,1.0,0.0,0.0,0.0,1.0
1463929923050624443,614,1463929923007890303,,5.11676168442,9.86701869965,118.522171021,0.00198699999601,1.0,0.0,0.0,0.0,1.0,0.0,0.0,0.0,1.0,-172.012207031,81.341468811,4.39024400711,1.0,0.0,0.0,0.0,1.0,0.0,0.0,0.0,1.0,0.512359155273,-4.47715710449,55.3491539795,1.0,0.0,0.0,0.0,1.0,0.0,0.0,0.0,1.0
1463929923057453685,615,1463929923028625631,,5.22806930542,10.6976051331,118.868034363,0.00141999998596,1.0,0.0,0.0,0.0,1.0,0.0,0.0,0.0,1.0,-146.219512939,54.9390258789,8.23170757294,1.0,0.0,0.0,0.0,1.0,0.0,0.0,0.0,1.0,1.31202250977,0.45968671875,2.5234885498,1.0,0.0,0.0,0.0,1.0,0.0,0.0,0.0,1.0
1463929923057508111,616,1463929923052210634,,6.45122051239,10.6074829102,119.283699036,0.00649800011888,1.0,0.0,0.0,0.0,1.0,0.0,0.0,0.0,1.0,67.9268264771,88.5365829468,20.6707324982,1.0,0.0,0.0,0.0,1.0,0.0,0.0,0.0,1.0,-16.4338001953,-0.282515795898,11.7411649414,1.0,0.0,0.0,0.0,1.0,0.0,0.0,0.0,1.0
1463929923097634190,617,1463929923072936639,,6.80025434494,10.5794878006,119.525558472,0.00127699994482,1.0,0.0,0.0,0.0,1.0,0.0,0.0,0.0,1.0,-194.878051758,131.097564697,29.9390258789,1.0,0.0,0.0,0.0,1.0,0.0,0.0,0.0,1.0,-1.71424838867,-17.5734401855,29.8844251221,1.0,0.0,0.0,0.0,1.0,0.0,0.0,0.0,1.0
1463929923098206219,618,1463929923094155663,,6.75482273102,12.3787164688,119.40309906,0.00150200002827,1.0,0.0,0.0,0.0,1.0,0.0,0.0,0.0,1.0,-165.975601196,58.4756126404,-2.37804889679,1.0,0.0,0.0,0.0,1.0,0.0,0.0,0.0,1.0,1.89141931152,12.7898252686,9.94072529297,1.0,0.0,0.0,0.0,1.0,0.0,0.0,0.0,1.0
1463929923214310514,619,1463929923119822480,,7.45727109909,11.1935405731,119.43775177,0.00180099997669,1.0,0.0,0.0,0.0,1.0,0.0,0.0,0.0,1.0,-112.865859985,58.5365867615,-9.08536529541,1.0,0.0,0.0,0.0,1.0,0.0,0.0,0.0,1.0,-3.16992299805,-5.67425793457,38.1683605281,1.0,0.0,0.0,0.0,1.0,0.0,0.0,0.0,1.0
1463929923214369576,620,1463929923139014377,,7.12941408157,12.0416049957,119.488044739,0.00209999992512,1.0,0.0,0.0,0.0,1.0,0.0,0.0,0.0,1.0,-146.829269409,76.2195129395,-5.36585378647,1.0,0.0,0.0,0.0,1.0,0.0,0.0,0.0,1.0,4.37181223145,-12.6940572021,80.2249092285,1.0,0.0,0.0,0.0,1.0,0.0,0.0,0.0,1.0
1463929923215940819,621,1463929923161706208,,7.35959863663,12.3629741669,119.477920532,0.00312000000849,1.0,0.0,0.0,0.0,1.0,0.0,0.0,0.0,1.0,-111.524391174,58.5365867615,-10.7317075729,1.0,0.0,0.0,0.0,1.0,0.0,0.0,0.0,1.0,0.0239420166016,-9.31344387349,37.4070044002,1.0,0.0,0.0,0.0,1.0,0.0,0.0,0.0,1.0
1463929923428166318,622,1463929923183626270,,7.39082479477,13.0762586594,119.397865295,0.00205000001006,1.0,0.0,0.0,0.0,1.0,0.0,0.0,0.0,1.0,-24.817073822,0.487804889679,-8.65853691101,1.0,0.0,0.0,0.0,1.0,0.0,0.0,0.0,1.0,-2.50433493652,5.55933625488,5.7748144043,1.0,0.0,0.0,0.0,1.0,0.0,0.0,0.0,1.0
1463929923428203141,623,1463929923206101486,,7.6910533905,11.8872413635,119.384849548,0.0021579999011,1.0,0.0,0.0,0.0,1.0,0.0,0.0,0.0,1.0,119.817070007,-36.3414611816,-7.50000047684,1.0,0.0,0.0,0.0,1.0,0.0,0.0,0.0,1.0,-3.12682736816,-6.67503422852,3.26569106445,1.0,0.0,0.0,0.0,1.0,0.0,0.0,0.0,1.0
1463929923428238662,624,1463929923226183171,,7.46343708038,12.1808490753,119.295349121,0.00146199995652,1.0,0.0,0.0,0.0,1.0,0.0,0.0,0.0,1.0,-55.1219520569,46.5853691101,-10.8536586761,1.0,0.0,0.0,0.0,1.0,0.0,0.0,0.0,1.0,-1.16837033709,-13.364433667,27.1215164062,1.0,0.0,0.0,0.0,1.0,0.0,0.0,0.0,1.0
1463929923428274235,625,1463929923248868127,,7.17311143875,12.6647253036,119.298736572,0.00249999994412,1.0,0.0,0.0,0.0,1.0,0.0,0.0,0.0,1.0,-126.829277039,-2.86585378647,12.0731716156,1.0,0.0,0.0,0.0,1.0,0.0,0.0,0.0,1.0,1.54186586914,7.98705673828,9.56244201519,1.0,0.0,0.0,0.0,1.0,0.0,0.0,0.0,1.0
1463929923428311422,626,1463929923269768089,,7.26874923706,12.2414970398,119.042129517,0.00152000004891,1.0,0.0,0.0,0.0,1.0,0.0,0.0,0.0,1.0,175.60975647,-78.0487823486,10.9756097794,1.0,0.0,0.0,0.0,1.0,0.0,0.0,0.0,1.0,3.21780703125,32.8723864559,18.7513862333,1.0,0.0,0.0,0.0,1.0,0.0,0.0,0.0,1.0
1463929923428346630,627,1463929923290731385,,7.56156587601,10.7221755981,119.086090088,0.00142999994569,1.0,0.0,0.0,0.0,1.0,0.0,0.0,0.0,1.0,64.7561035156,-18.7804889679,12.8048782349,1.0,0.0,0.0,0.0,1.0,0.0,0.0,0.0,1.0,-8.90643017578,-25.2971347412,6.49786330566,1.0,0.0,0.0,0.0,1.0,0.0,0.0,0.0,1.0
1463929923428381942,628,1463929923312133950,,7.2405591011,13.473200798,118.874275208,0.00125700002536,1.0,0.0,0.0,0.0,1.0,0.0,0.0,0.0,1.0,-138.719512939,28.1097564697,-5.24390268326,1.0,0.0,0.0,0.0,1.0,0.0,0.0,0.0,1.0,-4.903325,4.79798041921,21.2940295654,1.0,0.0,0.0,0.0,1.0,0.0,0.0,0.0,1.0
1463929923428417463,629,1463929923334026929,,6.98160600662,13.3148126602,118.686988831,0.00165999995079,1.0,0.0,0.0,0.0,1.0,0.0,0.0,0.0,1.0,36.4634170532,-28.9634151459,-21.2195129395,1.0,0.0,0.0,0.0,1.0,0.0,0.0,0.0,1.0,3.26090266113,1.24019645996,17.0898114502,1.0,0.0,0.0,0.0,1.0,0.0,0.0,0.0,1.0
1463929923428464963,630,1463929923356711780,,6.96224546432,13.2467002869,118.6275177,0.00153100001626,1.0,0.0,0.0,0.0,1.0,0.0,0.0,0.0,1.0,110.67073822,-23.7804889679,-6.52439069748,1.0,0.0,0.0,0.0,1.0,0.0,0.0,0.0,1.0,-0.225054956055,-6.48828649902,13.7475059326,1.0,0.0,0.0,0.0,1.0,0.0,0.0,0.0,1.0
1463929923428501577,631,1463929923376726642,,6.71505975723,12.0876131058,118.494682312,0.00179200002458,1.0,0.0,0.0,0.0,1.0,0.0,0.0,0.0,1.0,13.5975618362,-20.1829280853,-0.18292683363,1.0,0.0,0.0,0.0,1.0,0.0,0.0,0.0,1.0,-4.60165559082,-11.9518546875,15.5814644043,1.0,0.0,0.0,0.0,1.0,0.0,0.0,0.0,1.0
