%time,field.header.seq,field.header.stamp,field.header.frame_id,field.orientation.x,field.orientation.y,field.orientation.z,field.orientation.w,field.orientation_covariance0,field.orientation_covariance1,field.orientation_covariance2,field.orientation_covariance3,field.orientation_covariance4,field.orientation_covariance5,field.orientation_covariance6,field.orientation_covariance7,field.orientation_covariance8,field.angular_velocity.x,field.angular_velocity.y,field.angular_velocity.z,field.angular_velocity_covariance0,field.angular_velocity_covariance1,field.angular_velocity_covariance2,field.angular_velocity_covariance3,field.angular_velocity_covariance4,field.angular_velocity_covariance5,field.angular_velocity_covariance6,field.angular_velocity_covariance7,field.angular_velocity_covariance8,field.linear_acceleration.x,field.linear_acceleration.y,field.linear_acceleration.z,field.linear_acceleration_covariance0,field.linear_acceleration_covariance1,field.linear_acceleration_covariance2,field.linear_acceleration_covariance3,field.linear_acceleration_covariance4,field.linear_acceleration_covariance5,field.linear_acceleration_covariance6,field.linear_acceleration_covariance7,field.linear_acceleration_covariance8
1463923487107425233,205,1463923487074282562,,14.7089653015,-15.3103733063,143.100402832,0.0204910002649,1.0,0.0,0.0,0.0,1.0,0.0,0.0,0.0,1.0,0.18292683363,-6.52439069748,6.7682929039,1.0,0.0,0.0,0.0,1.0,0.0,0.0,0.0,1.0,-3.27047946777,-0.876277807617,9.48582756206,1.0,0.0,0.0,0.0,1.0,0.0,0.0,0.0,1.0
1463923487107769919,206,1463923487094254716,,14.7929353714,-15.104886055,143.224243164,0.0203290004283,1.0,0.0,0.0,0.0,1.0,0.0,0.0,0.0,1.0,0.304878056049,-6.09756088257,8.04878044128,1.0,0.0,0.0,0.0,1.0,0.0,0.0,0.0,1.0,-3.16992299805,-0.852335791016,9.61511445171,1.0,0.0,0.0,0.0,1.0,0.0,0.0,0.0,1.0
1463923487117752532,207,1463923487114650514,,14.8840398788,-14.8845348358,143.388015747,0.0204070005566,1.0,0.0,0.0,0.0,1.0,0.0,0.0,0.0,1.0,1.2804877758,-6.95121955872,9.93902492523,1.0,0.0,0.0,0.0,1.0,0.0,0.0,0.0,1.0,-3.27526787109,-0.943315454102,9.47146118306,1.0,0.0,0.0,0.0,1.0,0.0,0.0,0.0,1.0
1463923487136620837,208,1463923487134810272,,14.950922966,-14.6598920822,143.593353271,0.0203859992325,1.0,0.0,0.0,0.0,1.0,0.0,0.0,0.0,1.0,0.487804889679,-8.5365858078,11.4024391174,1.0,0.0,0.0,0.0,1.0,0.0,0.0,0.0,1.0,-3.24174904785,-0.804451757813,9.35175110005,1.0,0.0,0.0,0.0,1.0,0.0,0.0,0.0,1.0
1463923487157179082,209,1463923487155227737,,14.998295784,-14.438158989,143.823989868,0.0204169992357,1.0,0.0,0.0,0.0,1.0,0.0,0.0,0.0,1.0,-0.12195122242,-9.51219558716,12.3170728683,1.0,0.0,0.0,0.0,1.0,0.0,0.0,0.0,1.0,-3.25611425781,-0.756567724609,9.48582756206,1.0,0.0,0.0,0.0,1.0,0.0,0.0,0.0,1.0
1463923487178224513,210,1463923487175604629,,15.0192556381,-14.2222747803,144.073394775,0.0204140003771,1.0,0.0,0.0,0.0,1.0,0.0,0.0,0.0,1.0,-0.670731723309,-10.4268293381,12.9878053665,1.0,0.0,0.0,0.0,1.0,0.0,0.0,0.0,1.0,-3.21301862793,-0.732625708008,9.63905646831,1.0,0.0,0.0,0.0,1.0,0.0,0.0,0.0,1.0
1463923487201048478,211,1463923487196282301,,15.0446901321,-14.0176048279,144.312438965,0.020428000018,1.0,0.0,0.0,0.0,1.0,0.0,0.0,0.0,1.0,-1.2804877758,-8.71951198578,12.8658542633,1.0,0.0,0.0,0.0,1.0,0.0,0.0,0.0,1.0,-2.95923325195,-0.675164868164,9.64863327495,1.0,0.0,0.0,0.0,1.0,0.0,0.0,0.0,1.0
1463923487224562232,212,1463923487216749088,,15.0936002731,-13.8247814178,144.527755737,0.0203939992934,1.0,0.0,0.0,0.0,1.0,0.0,0.0,0.0,1.0,-1.52439022064,-7.37804937363,12.0731716156,1.0,0.0,0.0,0.0,1.0,0.0,0.0,0.0,1.0,-2.98317526855,-0.646434448242,9.66778688823,1.0,0.0,0.0,0.0,1.0,0.0,0.0,0.0,1.0
1463923487241198515,213,1463923487237819154,,15.1974411011,-13.6431179047,144.693817139,0.0210699997842,1.0,0.0,0.0,0.0,1.0,0.0,0.0,0.0,1.0,-2.31707310677,-4.02439022064,10.0609760284,1.0,0.0,0.0,0.0,1.0,0.0,0.0,0.0,1.0,-2.96402165527,-0.497993945312,9.73961235352,1.0,0.0,0.0,0.0,1.0,0.0,0.0,0.0,1.0
1463923487259723956,214,1463923487257660163,,15.3213481903,-13.5002756119,144.79473877,0.0198350008577,1.0,0.0,0.0,0.0,1.0,0.0,0.0,0.0,1.0,-2.80487799644,-2.07317066193,7.80487823486,1.0,0.0,0.0,0.0,1.0,0.0,0.0,0.0,1.0,-2.98796367187,-0.507570751953,9.76834277344,1.0,0.0,0.0,0.0,1.0,0.0,0.0,0.0,1.0
1463923487279497309,215,1463923487278170076,,15.4893417358,-13.385972023,144.831039429,0.020331999287,1.0,0.0,0.0,0.0,1.0,0.0,0.0,0.0,1.0,-3.65853667259,0.365853667259,5.06097555161,1.0,0.0,0.0,0.0,1.0,0.0,0.0,0.0,1.0,-3.02148249512,-0.445321508789,9.63426806499,1.0,0.0,0.0,0.0,1.0,0.0,0.0,0.0,1.0
1463923487299871701,216,1463923487298534207,,15.6549539566,-13.3216772079,144.813919067,0.0204050000757,1.0,0.0,0.0,0.0,1.0,0.0,0.0,0.0,1.0,-4.57317066193,1.64634156227,2.98780488968,1.0,0.0,0.0,0.0,1.0,0.0,0.0,0.0,1.0,-2.89698400879,-0.593762048251,9.64863327495,1.0,0.0,0.0,0.0,1.0,0.0,0.0,0.0,1.0
1463923487321018330,217,1463923487318937505,,15.8085575104,-13.2828273773,144.766281128,0.0205060001463,1.0,0.0,0.0,0.0,1.0,0.0,0.0,0.0,1.0,-5.0,1.76829278469,1.64634156227,1.0,0.0,0.0,0.0,1.0,0.0,0.0,0.0,1.0,-2.87783039551,-0.670376464844,9.73961235352,1.0,0.0,0.0,0.0,1.0,0.0,0.0,0.0,1.0
1463923487340740745,218,1463923487339074919,,15.9788675308,-13.2627782822,144.708450317,0.0203070007265,1.0,0.0,0.0,0.0,1.0,0.0,0.0,0.0,1.0,-5.60975599289,2.07317066193,1.2195122242,1.0,0.0,0.0,0.0,1.0,0.0,0.0,0.0,1.0,-2.98317526855,-0.670376464844,9.56244201519,1.0,0.0,0.0,0.0,1.0,0.0,0.0,0.0,1.0
1463923487367494902,219,1463923487363090650,,16.091917038,-13.2306518555,144.658157349,0.0207240004092,1.0,0.0,0.0,0.0,1.0,0.0,0.0,0.0,1.0,-5.0,-1.2804877758,0.853658556938,1.0,0.0,0.0,0.0,1.0,0.0,0.0,0.0,1.0,-3.1124621582,-0.694318481445,9.62469125835,1.0,0.0,0.0,0.0,1.0,0.0,0.0,0.0,1.0
1463923487385035764,220,1463923487380009588,,16.103679657,-13.1709671021,144.637741089,0.0200929995626,1.0,0.0,0.0,0.0,1.0,0.0,0.0,0.0,1.0,-4.32926845551,-6.34146356583,0.914634168148,1.0,0.0,0.0,0.0,1.0,0.0,0.0,0.0,1.0,-3.20344182129,-0.632069238281,9.83538041992,1.0,0.0,0.0,0.0,1.0,0.0,0.0,0.0,1.0
1463923487404990106,221,1463923487400479188,,15.9823474884,-13.101187706,144.680374146,0.0204070005566,1.0,0.0,0.0,0.0,1.0,0.0,0.0,0.0,1.0,-4.2682929039,-14.4512205124,2.19512200356,1.0,0.0,0.0,0.0,1.0,0.0,0.0,0.0,1.0,-3.42849677734,-0.703895288086,9.86889924316,1.0,0.0,0.0,0.0,1.0,0.0,0.0,0.0,1.0
1463923487434016024,222,1463923487420814414,,15.6076431274,-13.0222463608,144.784759521,0.0204310007393,1.0,0.0,0.0,0.0,1.0,0.0,0.0,0.0,1.0,-4.39024400711,-26.8292694092,2.37804889679,1.0,0.0,0.0,0.0,1.0,0.0,0.0,0.0,1.0,-3.26090266113,-0.727837304687,9.65821008159,1.0,0.0,0.0,0.0,1.0,0.0,0.0,0.0,1.0
1463923487488347146,223,1463923487441333805,,15.0637273788,-12.9077501297,144.993286133,0.0203990004957,1.0,0.0,0.0,0.0,1.0,0.0,0.0,0.0,1.0,-4.39024400711,-35.3048782349,5.42682933807,1.0,0.0,0.0,0.0,1.0,0.0,0.0,0.0,1.0,-3.03584770508,-0.641646044922,9.63426806499,1.0,0.0,0.0,0.0,1.0,0.0,0.0,0.0,1.0
1463923487488907039,224,1463923487461722780,,14.3959732056,-12.7816820145,145.304275513,0.0204009991139,1.0,0.0,0.0,0.0,1.0,0.0,0.0,0.0,1.0,-4.81707286835,-41.1585350037,9.26829242706,1.0,0.0,0.0,0.0,1.0,0.0,0.0,0.0,1.0,-2.72460148926,-0.675164868164,9.66778688823,1.0,0.0,0.0,0.0,1.0,0.0,0.0,0.0,1.0
1463923487488976049,225,1463923487481979985,,13.6707677841,-12.6679067612,145.698440552,0.0204070005566,1.0,0.0,0.0,0.0,1.0,0.0,0.0,0.0,1.0,-4.57317066193,-44.6341438293,13.1707324982,1.0,0.0,0.0,0.0,1.0,0.0,0.0,0.0,1.0,-2.61446821289,-0.986411083984,9.81622680664,1.0,0.0,0.0,0.0,1.0,0.0,0.0,0.0,1.0
1463923487561822404,226,1463923487502415471,,12.8425559998,-12.48624897,146.220230103,0.0204319991171,1.0,0.0,0.0,0.0,1.0,0.0,0.0,0.0,1.0,-3.04878044128,-51.0975608826,17.9878044128,1.0,0.0,0.0,0.0,1.0,0.0,0.0,0.0,1.0,-2.51870014648,-0.852335791016,9.77313117676,1.0,0.0,0.0,0.0,1.0,0.0,0.0,0.0,1.0
1463923487561937300,227,1463923487524056680,,11.9758214951,-12.2988071442,146.831878662,0.0203830003738,1.0,0.0,0.0,0.0,1.0,0.0,0.0,0.0,1.0,-4.39024400711,-53.9634170532,21.8902435303,1.0,0.0,0.0,0.0,1.0,0.0,0.0,0.0,1.0,-2.35589428746,-0.632069238281,9.73003554687,1.0,0.0,0.0,0.0,1.0,0.0,0.0,0.0,1.0
1463923487562034851,228,1463923487544979039,,11.0138568878,-12.1291465759,147.544616699,0.0210159998387,1.0,0.0,0.0,0.0,1.0,0.0,0.0,0.0,1.0,-5.0,-55.6707344055,25.975610733,1.0,0.0,0.0,0.0,1.0,0.0,0.0,0.0,1.0,-1.82438166504,-0.790086547852,9.95030209961,1.0,0.0,0.0,0.0,1.0,0.0,0.0,0.0,1.0
1463923487594480806,229,1463923487566295979,,10.1074895859,-11.985212326,148.246078491,0.0198919996619,1.0,0.0,0.0,0.0,1.0,0.0,0.0,0.0,1.0,-5.36585378647,-54.7560997009,27.9268302917,1.0,0.0,0.0,0.0,1.0,0.0,0.0,0.0,1.0,-1.47003981934,-0.804451757813,9.94072529297,1.0,0.0,0.0,0.0,1.0,0.0,0.0,0.0,1.0
1463923487594874607,230,1463923487585619959,,9.17784500122,-11.8260993958,149.012329102,0.0213840007782,1.0,0.0,0.0,0.0,1.0,0.0,0.0,0.0,1.0,-5.54878091812,-53.7195129395,28.9024410248,1.0,0.0,0.0,0.0,1.0,0.0,0.0,0.0,1.0,-1.47482822266,-0.627280834961,9.92636008301,1.0,0.0,0.0,0.0,1.0,0.0,0.0,0.0,1.0
1463923487606702056,231,1463923487604463003,,8.33865451813,-11.718047142,149.680969238,0.0193499997258,1.0,0.0,0.0,0.0,1.0,0.0,0.0,0.0,1.0,-6.64634132385,-51.5243911743,28.4146347046,1.0,0.0,0.0,0.0,1.0,0.0,0.0,0.0,1.0,-0.981622680664,-0.61770402832,9.95030209961,1.0,0.0,0.0,0.0,1.0,0.0,0.0,0.0,1.0
1463923487823784305,232,1463923487624749844,,7.51359701157,-11.646651268,150.325469971,0.0203830003738,1.0,0.0,0.0,0.0,1.0,0.0,0.0,0.0,1.0,-6.82926845551,-49.5731735229,26.2804889679,1.0,0.0,0.0,0.0,1.0,0.0,0.0,0.0,1.0,-1.12527478027,-0.799663354492,10.1705686523,1.0,0.0,0.0,0.0,1.0,0.0,0.0,0.0,1.0
1463923487824048940,233,1463923487645368506,,6.6521024704,-11.5854549408,150.910446167,0.0205080006272,1.0,0.0,0.0,0.0,1.0,0.0,0.0,0.0,1.0,-6.46341466904,-50.3048820496,23.2317085266,1.0,0.0,0.0,0.0,1.0,0.0,0.0,0.0,1.0,-0.952892260742,-0.804451757813,10.2280294922,1.0,0.0,0.0,0.0,1.0,0.0,0.0,0.0,1.0
1463923487824407323,234,1463923487666054615,,5.75569438934,-11.5344800949,151.460708618,0.0203360002488,1.0,0.0,0.0,0.0,1.0,0.0,0.0,0.0,1.0,-6.95121955872,-51.4634170532,21.6463432312,1.0,0.0,0.0,0.0,1.0,0.0,0.0,0.0,1.0,-0.689530078125,-0.689530078125,10.2567599121,1.0,0.0,0.0,0.0,1.0,0.0,0.0,0.0,1.0
1463923487824828311,235,1463923487686287497,,4.80281257629,-11.5386600494,151.966018677,0.0203990004957,1.0,0.0,0.0,0.0,1.0,0.0,0.0,0.0,1.0,-8.84146404266,-52.1951255798,19.3902435303,1.0,0.0,0.0,0.0,1.0,0.0,0.0,0.0,1.0,-0.268150604204,-0.727837304687,10.3860468018,1.0,0.0,0.0,0.0,1.0,0.0,0.0,0.0,1.0
1463923487825325653,236,1463923487706927669,,3.86748123169,-11.6046590805,152.418899536,0.0204259995371,1.0,0.0,0.0,0.0,1.0,0.0,0.0,0.0,1.0,-9.20731735229,-52.1951255798,17.0731716156,1.0,0.0,0.0,0.0,1.0,0.0,0.0,0.0,1.0,-0.359130249023,-1.13485158691,10.5727945312,1.0,0.0,0.0,0.0,1.0,0.0,0.0,0.0,1.0
1463923487825599298,237,1463923487727400499,,2.89649987221,-11.6157455444,152.833358765,0.0204109996557,1.0,0.0,0.0,0.0,1.0,0.0,0.0,0.0,1.0,-7.80487823486,-52.6219520569,15.0609760284,1.0,0.0,0.0,0.0,1.0,0.0,0.0,0.0,1.0,0.0,-0.785298144531,10.1945106689,1.0,0.0,0.0,0.0,1.0,0.0,0.0,0.0,1.0
1463923487825872057,238,1463923487747633173,,1.92485904694,-11.648018837,153.222366333,0.0203879997134,1.0,0.0,0.0,0.0,1.0,0.0,0.0,0.0,1.0,-7.92682981491,-52.0731697083,14.0853662491,1.0,0.0,0.0,0.0,1.0,0.0,0.0,0.0,1.0,0.248996972656,-0.876277807617,10.1083194092,1.0,0.0,0.0,0.0,1.0,0.0,0.0,0.0,1.0
1463923487826154087,239,1463923487768394230,,1.04087007046,-11.6977062225,153.591796875,0.0204249992967,1.0,0.0,0.0,0.0,1.0,0.0,0.0,0.0,1.0,-7.37804937363,-49.0243911743,13.841463089,1.0,0.0,0.0,0.0,1.0,0.0,0.0,0.0,1.0,0.162805712891,-1.06781401349,10.0317049561,1.0,0.0,0.0,0.0,1.0,0.0,0.0,0.0,1.0
1463923487826488200,240,1463923487789055495,,0.21497964859,-11.7499237061,153.927993774,0.0203850008547,1.0,0.0,0.0,0.0,1.0,0.0,0.0,0.0,1.0,-6.82926845551,-43.9024391174,13.3536586761,1.0,0.0,0.0,0.0,1.0,0.0,0.0,0.0,1.0,0.694318481445,-1.12527478027,9.85932243652,1.0,0.0,0.0,0.0,1.0,0.0,0.0,0.0,1.0
1463923487826955385,241,1463923487809174576,,-0.446917891502,-11.7773866653,154.248550415,0.0204210001975,1.0,0.0,0.0,0.0,1.0,0.0,0.0,0.0,1.0,-6.34146356583,-35.6097564697,14.3292694092,1.0,0.0,0.0,0.0,1.0,0.0,0.0,0.0,1.0,0.881066210937,-0.972045874023,9.91678327637,1.0,0.0,0.0,0.0,1.0,0.0,0.0,0.0,1.0
1463923487931741865,242,1463923487829636416,,-0.9014133811,-11.7922773361,154.518768311,0.020469000563,1.0,0.0,0.0,0.0,1.0,0.0,0.0,0.0,1.0,-6.58536624908,-25.0,14.0853662491,1.0,0.0,0.0,0.0,1.0,0.0,0.0,0.0,1.0,1.05823706072,-0.833182177734,10.3190091553,1.0,0.0,0.0,0.0,1.0,0.0,0.0,0.0,1.0
1463923487932038009,243,1463923487849690549,,-1.12128734589,-11.8139915466,154.722702026,0.020380999893,1.0,0.0,0.0,0.0,1.0,0.0,0.0,0.0,1.0,-6.40243911743,-15.2439022064,12.9268293381,1.0,0.0,0.0,0.0,1.0,0.0,0.0,0.0,1.0,0.746990917969,-0.92416184082,10.2376062988,1.0,0.0,0.0,0.0,1.0,0.0,0.0,0.0,1.0
1463923487932295768,244,1463923487870073534,,-1.22946846485,-11.8366222382,154.840423584,0.0203579999506,1.0,0.0,0.0,0.0,1.0,0.0,0.0,0.0,1.0,-5.0,-8.71951198578,10.0,1.0,0.0,0.0,0.0,1.0,0.0,0.0,0.0,1.0,0.847547387695,-1.20667770978,10.2567599121,1.0,0.0,0.0,0.0,1.0,0.0,0.0,0.0,1.0
1463923487932551705,245,1463923487890409489,,-1.23807263374,-11.8161334991,154.856948853,0.0204060003161,1.0,0.0,0.0,0.0,1.0,0.0,0.0,0.0,1.0,-4.20731735229,-3.71951246262,6.0365858078,1.0,0.0,0.0,0.0,1.0,0.0,0.0,0.0,1.0,0.708683691406,-0.976834277344,10.1609918457,1.0,0.0,0.0,0.0,1.0,0.0,0.0,0.0,1.0
1463923487932955453,246,1463923487911273410,,-1.17304432392,-11.8000860214,154.780517578,0.0208780001849,1.0,0.0,0.0,0.0,1.0,0.0,0.0,0.0,1.0,-3.90243911743,0.548780500889,2.37804889679,1.0,0.0,0.0,0.0,1.0,0.0,0.0,0.0,1.0,0.689530078125,-1.08696755371,10.1418382324,1.0,0.0,0.0,0.0,1.0,0.0,0.0,0.0,1.0
1463923487933343004,247,1463923487931016191,,-1.10596120358,-11.7718296051,154.622817993,0.0199570003897,1.0,0.0,0.0,0.0,1.0,0.0,0.0,0.0,1.0,-3.29268312454,1.95121955872,-1.64634156227,1.0,0.0,0.0,0.0,1.0,0.0,0.0,0.0,1.0,0.742202514648,-1.10612116699,10.2759135254,1.0,0.0,0.0,0.0,1.0,0.0,0.0,0.0,1.0
1463923487953200367,248,1463923487951752456,,-1.03941369057,-11.7186536789,154.382797241,0.0204169992357,1.0,0.0,0.0,0.0,1.0,0.0,0.0,0.0,1.0,-2.80487799644,1.70731711388,-5.60975599289,1.0,0.0,0.0,0.0,1.0,0.0,0.0,0.0,1.0,0.555454785156,-0.981622680664,10.2471831055,1.0,0.0,0.0,0.0,1.0,0.0,0.0,0.0,1.0
1463923487976077769,249,1463923487971973880,,-1.01294839382,-11.6790781021,154.096176147,0.020380999893,1.0,0.0,0.0,0.0,1.0,0.0,0.0,0.0,1.0,-2.62195134163,0.792682945728,-8.17073154449,1.0,0.0,0.0,0.0,1.0,0.0,0.0,0.0,1.0,0.641646044922,-1.12527478027,10.180145459,1.0,0.0,0.0,0.0,1.0,0.0,0.0,0.0,1.0
1463923488008068986,250,1463923487992327856,,-0.98657053709,-11.6300706863,153.781997681,0.0204150006175,1.0,0.0,0.0,0.0,1.0,0.0,0.0,0.0,1.0,-2.37804889679,0.243902444839,-9.63414573669,1.0,0.0,0.0,0.0,1.0,0.0,0.0,0.0,1.0,0.488417138672,-1.08217922346,10.1753570557,1.0,0.0,0.0,0.0,1.0,0.0,0.0,0.0,1.0
1463923488015057029,251,1463923488012752143,,-0.978615701199,-11.5774860382,153.474578857,0.0204150006175,1.0,0.0,0.0,0.0,1.0,0.0,0.0,0.0,1.0,-2.01219511032,-1.34146344662,-9.63414573669,1.0,0.0,0.0,0.0,1.0,0.0,0.0,0.0,1.0,0.368707055664,-1.10612116699,10.1705686523,1.0,0.0,0.0,0.0,1.0,0.0,0.0,0.0,1.0
1463923488035052621,252,1463923488032987682,,-1.02710080147,-11.5057964325,153.185623169,0.0204150006175,1.0,0.0,0.0,0.0,1.0,0.0,0.0,0.0,1.0,-1.76829278469,-4.08536577225,-9.26829242706,1.0,0.0,0.0,0.0,1.0,0.0,0.0,0.0,1.0,0.392649072266,-0.957680664062,10.060435376,1.0,0.0,0.0,0.0,1.0,0.0,0.0,0.0,1.0
1463923488055150347,253,1463923488053270720,,-1.10995471478,-11.4518871307,152.909133911,0.0204060003161,1.0,0.0,0.0,0.0,1.0,0.0,0.0,0.0,1.0,-1.58536589146,-5.24390268326,-8.90243911743,1.0,0.0,0.0,0.0,1.0,0.0,0.0,0.0,1.0,0.512359155273,-1.12527478027,9.97424411621,1.0,0.0,0.0,0.0,1.0,0.0,0.0,0.0,1.0
1463923488077027858,254,1463923488073603289,,-1.16337764263,-11.3668689728,152.646713257,0.020386999473,1.0,0.0,0.0,0.0,1.0,0.0,0.0,0.0,1.0,-0.914634168148,-3.65853667259,-7.86585378647,1.0,0.0,0.0,0.0,1.0,0.0,0.0,0.0,1.0,0.593762048251,-0.976834277344,10.1226846191,1.0,0.0,0.0,0.0,1.0,0.0,0.0,0.0,1.0
1463923488097432875,255,1463923488094009504,,-1.16325068474,-11.2858943939,152.386322021,0.0204199999571,1.0,0.0,0.0,0.0,1.0,0.0,0.0,0.0,1.0,-0.670731723309,-0.304878056049,-7.07317113876,1.0,0.0,0.0,0.0,1.0,0.0,0.0,0.0,1.0,0.751779321289,-1.03908344744,10.0891657959,1.0,0.0,0.0,0.0,1.0,0.0,0.0,0.0,1.0
1463923488125663848,256,1463923488119050855,,-1.00119483471,-11.1951055527,152.048553467,0.0246370006353,1.0,0.0,0.0,0.0,1.0,0.0,0.0,0.0,1.0,0.0609756112099,6.21951246262,-6.7682929039,1.0,0.0,0.0,0.0,1.0,0.0,0.0,0.0,1.0,0.751779321289,-1.23540805664,10.314220752,1.0,0.0,0.0,0.0,1.0,0.0,0.0,0.0,1.0
1463923488148414584,257,1463923488135092766,,-0.853318750858,-11.1201982498,151.816085815,0.0161639992148,1.0,0.0,0.0,0.0,1.0,0.0,0.0,0.0,1.0,0.609756112099,8.5365858078,-7.01219511032,1.0,0.0,0.0,0.0,1.0,0.0,0.0,0.0,1.0,0.660799658203,-1.13963999023,10.3094323486,1.0,0.0,0.0,0.0,1.0,0.0,0.0,0.0,1.0
1463923488158386156,258,1463923488155227419,,-0.64547252655,-11.0095157623,151.523757935,0.0204099994153,1.0,0.0,0.0,0.0,1.0,0.0,0.0,0.0,1.0,1.46341466904,9.02439117432,-6.89024400711,1.0,0.0,0.0,0.0,1.0,0.0,0.0,0.0,1.0,0.526724328702,-1.10133276367,10.0508585693,1.0,0.0,0.0,0.0,1.0,0.0,0.0,0.0,1.0
1463923488180734706,259,1463923488177850187,,-0.443752229214,-10.9000339508,151.230316162,0.0206349994987,1.0,0.0,0.0,0.0,1.0,0.0,0.0,0.0,1.0,1.8292683363,7.80487823486,-7.07317113876,1.0,0.0,0.0,0.0,1.0,0.0,0.0,0.0,1.0,0.344765039063,-1.14921679688,9.95987890625,1.0,0.0,0.0,0.0,1.0,0.0,0.0,0.0,1.0
1463923488201262066,260,1463923488196942866,,-0.273275405169,-10.7631807327,150.927505493,0.0201910007745,1.0,0.0,0.0,0.0,1.0,0.0,0.0,0.0,1.0,2.25609779358,7.92682981491,-7.86585378647,1.0,0.0,0.0,0.0,1.0,0.0,0.0,0.0,1.0,0.541089611728,-0.928950244141,9.89762966309,1.0,0.0,0.0,0.0,1.0,0.0,0.0,0.0,1.0
1463923488228562835,261,1463923488217996266,,-0.0861919000745,-10.643409729,150.622512817,0.020386999473,1.0,0.0,0.0,0.0,1.0,0.0,0.0,0.0,1.0,2.31707310677,9.5731716156,-7.56097555161,1.0,0.0,0.0,0.0,1.0,0.0,0.0,0.0,1.0,0.699106884766,-1.09175595703,10.1226846191,1.0,0.0,0.0,0.0,1.0,0.0,0.0,0.0,1.0
1463923488240377264,262,1463923488237572432,,0.12375074625,-10.5226993561,150.303878784,0.0204089991748,1.0,0.0,0.0,0.0,1.0,0.0,0.0,0.0,1.0,2.25609779358,9.75609779358,-8.23170757294,1.0,0.0,0.0,0.0,1.0,0.0,0.0,0.0,1.0,0.478840332031,-1.03908344744,10.0795889893,1.0,0.0,0.0,0.0,1.0,0.0,0.0,0.0,1.0
1463923488262784928,263,1463923488257714169,,0.31848654151,-10.3880395889,149.961547852,0.0204530004412,1.0,0.0,0.0,0.0,1.0,0.0,0.0,0.0,1.0,2.43902444839,10.548781395,-9.26829242706,1.0,0.0,0.0,0.0,1.0,0.0,0.0,0.0,1.0,0.684741674805,-0.909796630859,9.99339772949,1.0,0.0,0.0,0.0,1.0,0.0,0.0,0.0,1.0
1463923488288787578,264,1463923488279027828,,0.582533836365,-10.2608375549,149.541305542,0.0213380008936,1.0,0.0,0.0,0.0,1.0,0.0,0.0,0.0,1.0,2.86585378647,13.4756097794,-11.7682924271,1.0,0.0,0.0,0.0,1.0,0.0,0.0,0.0,1.0,0.569819995117,-1.03429511719,9.77313117676,1.0,0.0,0.0,0.0,1.0,0.0,0.0,0.0,1.0
1463923488312343571,265,1463923488301068254,,0.886404395103,-10.1205587387,149.062896729,0.0194569993764,1.0,0.0,0.0,0.0,1.0,0.0,0.0,0.0,1.0,3.71951246262,18.9024391174,-15.7926826477,1.0,0.0,0.0,0.0,1.0,0.0,0.0,0.0,1.0,0.76135612793,-0.900219824219,9.62947966167,1.0,0.0,0.0,0.0,1.0,0.0,0.0,0.0,1.0
1463923488335370556,266,1463923488320393276,,1.33870017529,-9.97550964355,148.43397522,0.0205160006881,1.0,0.0,0.0,0.0,1.0,0.0,0.0,0.0,1.0,4.57317066193,27.317073822,-20.4878044128,1.0,0.0,0.0,0.0,1.0,0.0,0.0,0.0,1.0,0.905008227539,-1.00556469727,9.69651672363,1.0,0.0,0.0,0.0,1.0,0.0,0.0,0.0,1.0
1463923488343617135,267,1463923488339364497,,2.12180948257,-9.80677127838,147.677734375,0.0203019995242,1.0,0.0,0.0,0.0,1.0,0.0,0.0,0.0,1.0,7.19512224197,41.4634170532,-24.7560977936,1.0,0.0,0.0,0.0,1.0,0.0,0.0,0.0,1.0,0.268150604204,-1.1540052002,9.88805285645,1.0,0.0,0.0,0.0,1.0,0.0,0.0,0.0,1.0
1463923488364297203,268,1463923488359551181,,3.23076343536,-9.60683631897,146.8543396,0.0203910004348,1.0,0.0,0.0,0.0,1.0,0.0,0.0,0.0,1.0,9.20731735229,60.4268302917,-24.817073822,1.0,0.0,0.0,0.0,1.0,0.0,0.0,0.0,1.0,0.612915625,-1.01035310059,9.24640681152,1.0,0.0,0.0,0.0,1.0,0.0,0.0,0.0,1.0
1463923488382912852,269,1463923488379834115,,4.57266950607,-9.42342662811,145.936340332,0.0204130001366,1.0,0.0,0.0,0.0,1.0,0.0,0.0,0.0,1.0,7.62195110321,74.634147644,-27.3780498505,1.0,0.0,0.0,0.0,1.0,0.0,0.0,0.0,1.0,0.809240161133,-0.646434448242,9.11711992188,1.0,0.0,0.0,0.0,1.0,0.0,0.0,0.0,1.0
1463923488402400946,270,1463923488400236164,,6.24823474884,-9.35778141022,144.918579102,0.0204050000757,1.0,0.0,0.0,0.0,1.0,0.0,0.0,0.0,1.0,3.23170733452,89.8780517578,-30.0000019073,1.0,0.0,0.0,0.0,1.0,0.0,0.0,0.0,1.0,0.330399829102,-0.593762048251,9.40442353657,1.0,0.0,0.0,0.0,1.0,0.0,0.0,0.0,1.0
1463923488423049764,271,1463923488420781440,,8.20843696594,-9.48718357086,143.828903198,0.0204099994153,1.0,0.0,0.0,0.0,1.0,0.0,0.0,0.0,1.0,-0.792682945728,100.609764099,-31.2804889679,1.0,0.0,0.0,0.0,1.0,0.0,0.0,0.0,1.0,-0.574608398438,-1.22104284668,9.7587659668,1.0,0.0,0.0,0.0,1.0,0.0,0.0,0.0,1.0
1463923488444173997,272,1463923488441956454,,10.3811864853,-9.68650627136,142.689422607,0.0212290007621,1.0,0.0,0.0,0.0,1.0,0.0,0.0,0.0,1.0,-0.426829278469,101.646347046,-30.6707305908,1.0,0.0,0.0,0.0,1.0,0.0,0.0,0.0,1.0,-1.79565124512,-1.44130939941,9.36611631001,1.0,0.0,0.0,0.0,1.0,0.0,0.0,0.0,1.0
1463923488472053982,273,1463923488461619755,,12.1975355148,-9.89966964722,141.62828064,0.019593000412,1.0,0.0,0.0,0.0,1.0,0.0,0.0,0.0,1.0,-3.23170733452,95.9146347046,-32.0731697083,1.0,0.0,0.0,0.0,1.0,0.0,0.0,0.0,1.0,-1.52271225586,-0.905008227539,9.27992563477,1.0,0.0,0.0,0.0,1.0,0.0,0.0,0.0,1.0
1463923488490427601,274,1463923488483434402,,13.9912490845,-10.2710123062,140.590209961,0.0204199999571,1.0,0.0,0.0,0.0,1.0,0.0,0.0,0.0,1.0,-7.19512224197,94.1463394165,-27.8658542633,1.0,0.0,0.0,0.0,1.0,0.0,0.0,0.0,1.0,-1.34075292969,-1.47482822266,10.0748005859,1.0,0.0,0.0,0.0,1.0,0.0,0.0,0.0,1.0
1463923488506516178,275,1463923488502354425,,15.7455062866,-10.7020320892,139.599960327,0.0204240009189,1.0,0.0,0.0,0.0,1.0,0.0,0.0,0.0,1.0,-7.19512224197,87.6829299927,-25.2439041138,1.0,0.0,0.0,0.0,1.0,0.0,0.0,0.0,1.0,-2.39899020961,-1.85311208496,9.71088193359,1.0,0.0,0.0,0.0,1.0,0.0,0.0,0.0,1.0
1463923488530930240,276,1463923488522716109,,17.2192401886,-11.0803623199,138.638916016,0.0203779991716,1.0,0.0,0.0,0.0,1.0,0.0,0.0,0.0,1.0,-7.56097555161,74.2682952881,-26.6463432312,1.0,0.0,0.0,0.0,1.0,0.0,0.0,0.0,1.0,-2.63841022949,-1.16358193377,9.40442353657,1.0,0.0,0.0,0.0,1.0,0.0,0.0,0.0,1.0
1463923488549333130,277,1463923488543476541,,18.464969635,-11.5580501556,137.625274658,0.0204099994153,1.0,0.0,0.0,0.0,1.0,0.0,0.0,0.0,1.0,-10.4878053665,68.6585388184,-29.3902435303,1.0,0.0,0.0,0.0,1.0,0.0,0.0,0.0,1.0,-2.17393510742,-1.33596452637,10.0700121826,1.0,0.0,0.0,0.0,1.0,0.0,0.0,0.0,1.0
1463923488571641472,278,1463923488563646298,,19.6844482422,-12.1065254211,136.569717407,0.0204119998962,1.0,0.0,0.0,0.0,1.0,0.0,0.0,0.0,1.0,-10.1219511032,71.5853652954,-29.1463413239,1.0,0.0,0.0,0.0,1.0,0.0,0.0,0.0,1.0,-1.77170922852,-1.90099611816,10.3812583984,1.0,0.0,0.0,0.0,1.0,0.0,0.0,0.0,1.0
1463923488595807307,279,1463923488583841472,,21.057598114,-12.6082372665,135.444595337,0.0204089991748,1.0,0.0,0.0,0.0,1.0,0.0,0.0,0.0,1.0,-5.60975599289,76.4634170532,-30.3048782349,1.0,0.0,0.0,0.0,1.0,0.0,0.0,0.0,1.0,-2.7341782959,-2.01591779785,10.5296989014,1.0,0.0,0.0,0.0,1.0,0.0,0.0,0.0,1.0
1463923488613132701,280,1463923488609757455,,22.7747459412,-13.2415342331,133.856704712,0.0255369991064,1.0,0.0,0.0,0.0,1.0,0.0,0.0,0.0,1.0,-4.63414621353,79.207321167,-36.2195129395,1.0,0.0,0.0,0.0,1.0,0.0,0.0,0.0,1.0,-2.69587106934,-1.45567460937,10.1322614258,1.0,0.0,0.0,0.0,1.0,0.0,0.0,0.0,1.0
1463923488648793903,281,1463923488625136244,,23.8364028931,-13.6785545349,132.848587036,0.0153069999069,1.0,0.0,0.0,0.0,1.0,0.0,0.0,0.0,1.0,-5.54878091812,82.3170700073,-37.7439041138,1.0,0.0,0.0,0.0,1.0,0.0,0.0,0.0,1.0,-3.22259543457,-1.65199914551,10.7643306641,1.0,0.0,0.0,0.0,1.0,0.0,0.0,0.0,1.0
1463923488651381652,282,1463923488645505636,,25.2931747437,-14.2854471207,131.428237915,0.0203820001334,1.0,0.0,0.0,0.0,1.0,0.0,0.0,0.0,1.0,-4.02439022064,81.6463394165,-40.3048782349,1.0,0.0,0.0,0.0,1.0,0.0,0.0,0.0,1.0,-3.96479794922,-1.53707746582,9.91678327637,1.0,0.0,0.0,0.0,1.0,0.0,0.0,0.0,1.0
1463923488701774197,283,1463923488665903674,,26.7730903625,-14.964679718,129.906784058,0.0204189997166,1.0,0.0,0.0,0.0,1.0,0.0,0.0,0.0,1.0,-5.12195110321,82.7439041138,-43.5975608826,1.0,0.0,0.0,0.0,1.0,0.0,0.0,0.0,1.0,-4.52025273438,-1.31681091309,9.84016882324,1.0,0.0,0.0,0.0,1.0,0.0,0.0,0.0,1.0
1463923488701836072,284,1463923488686211191,,28.1412887573,-15.7069149017,128.325119019,0.0204009991139,1.0,0.0,0.0,0.0,1.0,0.0,0.0,0.0,1.0,-5.85365867615,80.8536605835,-45.6097564697,1.0,0.0,0.0,0.0,1.0,0.0,0.0,0.0,1.0,-4.43884987793,-1.31202250977,10.0269165527,1.0,0.0,0.0,0.0,1.0,0.0,0.0,0.0,1.0
1463923488721340364,285,1463923488706450063,,29.4457740784,-16.4904003143,126.755088806,0.0204029995948,1.0,0.0,0.0,0.0,1.0,0.0,0.0,0.0,1.0,-4.39024400711,77.9268264771,-43.0487823486,1.0,0.0,0.0,0.0,1.0,0.0,0.0,0.0,1.0,-4.72615378489,-1.8866309082,9.89762966309,1.0,0.0,0.0,0.0,1.0,0.0,0.0,0.0,1.0
1463923488732329327,286,1463923488726849715,,30.6478977203,-17.1871776581,125.286819458,0.0203970000148,1.0,0.0,0.0,0.0,1.0,0.0,0.0,0.0,1.0,-2.01219511032,70.0609741211,-39.817073822,1.0,0.0,0.0,0.0,1.0,0.0,0.0,0.0,1.0,-5.2576668457,-1.69030637207,9.37569311665,1.0,0.0,0.0,0.0,1.0,0.0,0.0,0.0,1.0
1463923488754589544,287,1463923488747638949,,31.6047172546,-17.7716579437,123.978042603,0.0204390008003,1.0,0.0,0.0,0.0,1.0,0.0,0.0,0.0,1.0,-0.304878056049,54.5121955872,-36.9512214661,1.0,0.0,0.0,0.0,1.0,0.0,0.0,0.0,1.0,-5.98550415039,-1.5083470459,9.2416184082,1.0,0.0,0.0,0.0,1.0,0.0,0.0,0.0,1.0
1463923488802542360,288,1463923488768209486,,32.2039985657,-18.213640213,122.918357849,0.0204160008579,1.0,0.0,0.0,0.0,1.0,0.0,0.0,0.0,1.0,0.243902444839,34.4512214661,-32.5,1.0,0.0,0.0,0.0,1.0,0.0,0.0,0.0,1.0,-6.11479104004,-1.33117612305,8.90164177246,1.0,0.0,0.0,0.0,1.0,0.0,0.0,0.0,1.0
1463923488802959911,289,1463923488788516847,,32.580078125,-18.5257453918,122.088745117,0.0203850008547,1.0,0.0,0.0,0.0,1.0,0.0,0.0,0.0,1.0,2.19512200356,16.5243911743,-27.4390258789,1.0,0.0,0.0,0.0,1.0,0.0,0.0,0.0,1.0,-6.7660138916,-1.42215578613,8.01099875488,1.0,0.0,0.0,0.0,1.0,0.0,0.0,0.0,1.0
1463923488814235956,290,1463923488809026030,,32.4852905273,-18.6716003418,121.459312439,0.0203939992934,1.0,0.0,0.0,0.0,1.0,0.0,0.0,0.0,1.0,6.09756088257,-2.13414645195,-24.4512195587,1.0,0.0,0.0,0.0,1.0,0.0,0.0,0.0,1.0,-5.99508095703,-1.89620771484,8.72925925293,1.0,0.0,0.0,0.0,1.0,0.0,0.0,0.0,1.0
1463923488832222702,291,1463923488829323600,,32.077255249,-18.6147480011,121.051727295,0.020408000797,1.0,0.0,0.0,0.0,1.0,0.0,0.0,0.0,1.0,9.32926845551,-19.8780498505,-21.4634151459,1.0,0.0,0.0,0.0,1.0,0.0,0.0,0.0,1.0,-5.72693037109,-1.63284553223,8.26478413086,1.0,0.0,0.0,0.0,1.0,0.0,0.0,0.0,1.0
1463923488852999228,292,1463923488849332681,,31.3319587708,-18.414812088,120.803070068,0.0204130001366,1.0,0.0,0.0,0.0,1.0,0.0,0.0,0.0,1.0,12.5609760284,-34.634147644,-19.2073173523,1.0,0.0,0.0,0.0,1.0,0.0,0.0,0.0,1.0,-5.01345827637,-1.78128603516,8.3270327895,1.0,0.0,0.0,0.0,1.0,0.0,0.0,0.0,1.0
1463923488875639131,293,1463923488869704365,,30.4277763367,-18.0983905792,120.683815002,0.0204559992999,1.0,0.0,0.0,0.0,1.0,0.0,0.0,0.0,1.0,15.1219511032,-44.7560997009,-16.5243911743,1.0,0.0,0.0,0.0,1.0,0.0,0.0,0.0,1.0,-5.14274516602,-1.838746875,8.43716606587,1.0,0.0,0.0,0.0,1.0,0.0,0.0,0.0,1.0
1463923488901756259,294,1463923488890162975,,29.340921402,-17.6363868713,120.750724792,0.020408000797,1.0,0.0,0.0,0.0,1.0,0.0,0.0,0.0,1.0,16.8902435303,-55.3048820496,-11.8292684555,1.0,0.0,0.0,0.0,1.0,0.0,0.0,0.0,1.0,-4.86501777344,-1.66157595215,8.51378168804,1.0,0.0,0.0,0.0,1.0,0.0,0.0,0.0,1.0
1463923488911532155,295,1463923488910419816,,28.1216335297,-17.0830574036,120.973075867,0.0203549992293,1.0,0.0,0.0,0.0,1.0,0.0,0.0,0.0,1.0,17.3780498505,-65.1829299927,-7.56097555161,1.0,0.0,0.0,0.0,1.0,0.0,0.0,0.0,1.0,-4.98472785645,-1.52271225586,8.61433815776,1.0,0.0,0.0,0.0,1.0,0.0,0.0,0.0,1.0
1463923488944231234,296,1463923488931069988,,26.684009552,-16.4334716797,121.378349304,0.0204860009253,1.0,0.0,0.0,0.0,1.0,0.0,0.0,0.0,1.0,16.7682933807,-77.8048782349,-2.98780488968,1.0,0.0,0.0,0.0,1.0,0.0,0.0,0.0,1.0,-4.69742336497,-1.16837033709,8.42758925923,1.0,0.0,0.0,0.0,1.0,0.0,0.0,0.0,1.0
1463923488954042025,297,1463923488951102611,,24.9982147217,-15.7882108688,121.890441895,0.0203220006078,1.0,0.0,0.0,0.0,1.0,0.0,0.0,0.0,1.0,16.2195110321,-92.6219482422,-0.243902444839,1.0,0.0,0.0,0.0,1.0,0.0,0.0,0.0,1.0,-4.51546433105,-1.31681091309,8.24563051758,1.0,0.0,0.0,0.0,1.0,0.0,0.0,0.0,1.0
1463923488975577350,298,1463923488971684918,,22.9589042664,-15.1337270737,122.452217102,0.0204600002617,1.0,0.0,0.0,0.0,1.0,0.0,0.0,0.0,1.0,15.7317075729,-110.67073822,-1.8292683363,1.0,0.0,0.0,0.0,1.0,0.0,0.0,0.0,1.0,-4.31435168386,-1.11090957031,8.0397291748,1.0,0.0,0.0,0.0,1.0,0.0,0.0,0.0,1.0
1463923488994624143,299,1463923488992107852,,20.5230236053,-14.4907884598,123.06578064,0.0203660000116,1.0,0.0,0.0,0.0,1.0,0.0,0.0,0.0,1.0,13.1097564697,-124.268295288,-1.8902438879,1.0,0.0,0.0,0.0,1.0,0.0,0.0,0.0,1.0,-2.87304199219,-0.756567724609,8.20732329102,1.0,0.0,0.0,0.0,1.0,0.0,0.0,0.0,1.0
1463923489014587287,300,1463923489012369901,,18.036781311,-14.0184173584,123.67665863,0.0204009991139,1.0,0.0,0.0,0.0,1.0,0.0,0.0,0.0,1.0,8.59756088257,-123.231712341,1.34146344662,1.0,0.0,0.0,0.0,1.0,0.0,0.0,0.0,1.0,-2.13083962367,-1.28808049316,9.09796630859,1.0,0.0,0.0,0.0,1.0,0.0,0.0,0.0,1.0
1463923489038144374,301,1463923489032791063,,15.6813955307,-13.6523332596,124.299369812,0.0204099994153,1.0,0.0,0.0,0.0,1.0,0.0,0.0,0.0,1.0,8.35365867615,-120.975608826,5.36585378647,1.0,0.0,0.0,0.0,1.0,0.0,0.0,0.0,1.0,-2.52827695312,-2.07337849156,9.74440075684,1.0,0.0,0.0,0.0,1.0,0.0,0.0,0.0,1.0
1463923489066153317,302,1463923489061270317,,13.3088188171,-13.1129074097,124.941436768,0.0203939992934,1.0,0.0,0.0,0.0,1.0,0.0,0.0,0.0,1.0,14.3902444839,-117.743896484,7.50000047684,1.0,0.0,0.0,0.0,1.0,0.0,0.0,0.0,1.0,-1.29286889648,-1.39821376953,9.86411083984,1.0,0.0,0.0,0.0,1.0,0.0,0.0,0.0,1.0
1463923489080266433,303,1463923489074617395,,11.0566530228,-12.596493721,125.522239685,0.0204179994762,1.0,0.0,0.0,0.0,1.0,0.0,0.0,0.0,1.0,12.0731716156,-112.195121765,6.58536624908,1.0,0.0,0.0,0.0,1.0,0.0,0.0,0.0,1.0,-0.981622680664,-0.713472094727,9.22246479492,1.0,0.0,0.0,0.0,1.0,0.0,0.0,0.0,1.0
1463923489100038172,304,1463923489094185957,,8.99830055237,-12.2243862152,125.934646606,0.0204140003771,1.0,0.0,0.0,0.0,1.0,0.0,0.0,0.0,1.0,6.40243911743,-100.792686462,2.01219511032,1.0,0.0,0.0,0.0,1.0,0.0,0.0,0.0,1.0,-0.526724328702,-0.45968671875,9.08360109863,1.0,0.0,0.0,0.0,1.0,0.0,0.0,0.0,1.0
1463923489119702150,305,1463923489114654984,,7.19855880737,-12.069893837,126.163017273,0.0204189997166,1.0,0.0,0.0,0.0,1.0,0.0,0.0,0.0,1.0,2.80487799644,-86.2804946899,-2.19512200356,1.0,0.0,0.0,0.0,1.0,0.0,0.0,0.0,1.0,-0.134075302102,-1.23540805664,8.90643017578,1.0,0.0,0.0,0.0,1.0,0.0,0.0,0.0,1.0
1463923489150912642,306,1463923489134937241,,5.74748134613,-11.9723415375,126.249900818,0.0204000007361,1.0,0.0,0.0,0.0,1.0,0.0,0.0,0.0,1.0,3.17073178291,-67.0731735229,-4.45121955872,1.0,0.0,0.0,0.0,1.0,0.0,0.0,0.0,1.0,0.354341845703,-1.56101948242,8.97825622559,1.0,0.0,0.0,0.0,1.0,0.0,0.0,0.0,1.0
1463923489166196222,307,1463923489155620174,,4.75567293167,-11.8780508041,126.220924377,0.0204230006784,1.0,0.0,0.0,0.0,1.0,0.0,0.0,0.0,1.0,4.75609779358,-48.2317085266,-5.91463422775,1.0,0.0,0.0,0.0,1.0,0.0,0.0,0.0,1.0,-0.134075302102,-1.69030637207,8.74841286621,1.0,0.0,0.0,0.0,1.0,0.0,0.0,0.0,1.0
1463923489190481848,308,1463923489176181440,,3.97298383713,-11.7169847488,126.056991577,0.0204329993576,1.0,0.0,0.0,0.0,1.0,0.0,0.0,0.0,1.0,6.58536624908,-33.2926826477,-9.51219558716,1.0,0.0,0.0,0.0,1.0,0.0,0.0,0.0,1.0,0.612915625,-1.41736738281,9.05965908203,1.0,0.0,0.0,0.0,1.0,0.0,0.0,0.0,1.0
1463923489212595659,309,1463923489196663175,,3.5122654438,-11.5231351852,125.747093201,0.0204680003226,1.0,0.0,0.0,0.0,1.0,0.0,0.0,0.0,1.0,7.07317113876,-15.9146347046,-13.1097564697,1.0,0.0,0.0,0.0,1.0,0.0,0.0,0.0,1.0,0.804451757813,-1.12527478027,8.87769975586,1.0,0.0,0.0,0.0,1.0,0.0,0.0,0.0,1.0
1463923489228304550,310,1463923489216879599,,3.34533858299,-11.3750991821,125.302207947,0.0203549992293,1.0,0.0,0.0,0.0,1.0,0.0,0.0,0.0,1.0,5.0,-4.2682929039,-17.5000019073,1.0,0.0,0.0,0.0,1.0,0.0,0.0,0.0,1.0,0.268150604204,-1.01514150391,8.45153127583,1.0,0.0,0.0,0.0,1.0,0.0,0.0,0.0,1.0
1463923489248037279,311,1463923489236974722,,3.39951634407,-11.2499456406,124.759040833,0.0203520003706,1.0,0.0,0.0,0.0,1.0,0.0,0.0,0.0,1.0,3.71951246262,8.59756088257,-19.817073822,1.0,0.0,0.0,0.0,1.0,0.0,0.0,0.0,1.0,0.483628735352,-0.905008227539,8.24084211426,1.0,0.0,0.0,0.0,1.0,0.0,0.0,0.0,1.0
1463923489260427121,312,1463923489257746716,,3.56299185753,-11.2308855057,124.123275757,0.020428000018,1.0,0.0,0.0,0.0,1.0,0.0,0.0,0.0,1.0,-0.731707334518,15.7926826477,-22.8658542633,1.0,0.0,0.0,0.0,1.0,0.0,0.0,0.0,1.0,0.646434448242,-0.952892260742,8.24563051758,1.0,0.0,0.0,0.0,1.0,0.0,0.0,0.0,1.0
1463923489282598693,313,1463923489278303972,,3.86552762985,-11.2944059372,123.439956665,0.0204150006175,1.0,0.0,0.0,0.0,1.0,0.0,0.0,0.0,1.0,-4.75609779358,26.2804889679,-23.1707324982,1.0,0.0,0.0,0.0,1.0,0.0,0.0,0.0,1.0,1.13963999023,-0.91458503418,8.30787917622,1.0,0.0,0.0,0.0,1.0,0.0,0.0,0.0,1.0
1463923489306520206,314,1463923489299314351,,4.27484083176,-11.5232563019,122.723472595,0.0204130001366,1.0,0.0,0.0,0.0,1.0,0.0,0.0,0.0,1.0,-10.8536586761,35.4878044128,-22.8048782349,1.0,0.0,0.0,0.0,1.0,0.0,0.0,0.0,1.0,1.64721074219,-1.14442839355,8.10676682129,1.0,0.0,0.0,0.0,1.0,0.0,0.0,0.0,1.0
1463923489324547785,315,1463923489319415775,,4.89893579483,-11.8023929596,121.939460754,0.0205719992518,1.0,0.0,0.0,0.0,1.0,0.0,0.0,0.0,1.0,-16.9512195587,37.7439041138,-25.5487804413,1.0,0.0,0.0,0.0,1.0,0.0,0.0,0.0,1.0,0.296881024126,-0.60812722168,8.78193168945,1.0,0.0,0.0,0.0,1.0,0.0,0.0,0.0,1.0
1463923489356481294,316,1463923489339490898,,5.47989225388,-12.2095785141,121.050613403,0.0202409997582,1.0,0.0,0.0,0.0,1.0,0.0,0.0,0.0,1.0,-25.2439041138,36.7682952881,-31.7073192596,1.0,0.0,0.0,0.0,1.0,0.0,0.0,0.0,1.0,0.0718260498047,-0.210689746094,8.09240161133,1.0,0.0,0.0,0.0,1.0,0.0,0.0,0.0,1.0
1463923489430656914,317,1463923489359709926,,6.06844329834,-12.7706480026,120.058456421,0.0204160008579,1.0,0.0,0.0,0.0,1.0,0.0,0.0,0.0,1.0,-35.7926826477,32.8048782349,-37.5,1.0,0.0,0.0,0.0,1.0,0.0,0.0,0.0,1.0,-0.780509741211,0.335188232422,7.84819304199,1.0,0.0,0.0,0.0,1.0,0.0,0.0,0.0,1.0
1463923489430894570,318,1463923489380147807,,6.41143894196,-13.6001882553,118.970413208,0.0203830003738,1.0,0.0,0.0,0.0,1.0,0.0,0.0,0.0,1.0,-50.6097564697,27.8658542633,-43.5975608826,1.0,0.0,0.0,0.0,1.0,0.0,0.0,0.0,1.0,-0.129286889648,0.641646044922,8.20732329102,1.0,0.0,0.0,0.0,1.0,0.0,0.0,0.0,1.0
1463923489430932174,319,1463923489401167561,,6.61475515366,-14.7527217865,117.798362732,0.0204070005566,1.0,0.0,0.0,0.0,1.0,0.0,0.0,0.0,1.0,-63.2317123413,20.1829280853,-49.0853652954,1.0,0.0,0.0,0.0,1.0,0.0,0.0,0.0,1.0,-0.61770402832,0.15801730957,8.36534001606,1.0,0.0,0.0,0.0,1.0,0.0,0.0,0.0,1.0
1463923489431211131,320,1463923489420748884,,6.56308317184,-16.1016349792,116.596435547,0.0204050000757,1.0,0.0,0.0,0.0,1.0,0.0,0.0,0.0,1.0,-70.4878082275,12.1951217651,-52.3780517578,1.0,0.0,0.0,0.0,1.0,0.0,0.0,0.0,1.0,-0.258573779297,-0.335188232422,8.21690009766,1.0,0.0,0.0,0.0,1.0,0.0,0.0,0.0,1.0
1463923489492100402,321,1463923489441185255,,6.3972826004,-17.5667457581,115.400016785,0.0204520002007,1.0,0.0,0.0,0.0,1.0,0.0,0.0,0.0,1.0,-74.2682952881,10.4878053665,-52.2560997009,1.0,0.0,0.0,0.0,1.0,0.0,0.0,0.0,1.0,0.110133276367,-0.833182177734,8.37012841938,1.0,0.0,0.0,0.0,1.0,0.0,0.0,0.0,1.0
1463923489492405973,322,1463923489461592876,,6.26768541336,-18.9843292236,114.292243958,0.0203709993511,1.0,0.0,0.0,0.0,1.0,0.0,0.0,0.0,1.0,-77.6219558716,13.1707324982,-47.6829299927,1.0,0.0,0.0,0.0,1.0,0.0,0.0,0.0,1.0,0.272938989258,-0.325611425781,8.66222219097,1.0,0.0,0.0,0.0,1.0,0.0,0.0,0.0,1.0
1463923489492877586,323,1463923489482227892,,6.17928361893,-20.4133682251,113.211647034,0.0204380005598,1.0,0.0,0.0,0.0,1.0,0.0,0.0,0.0,1.0,-79.7560958862,12.9268293381,-46.2804908752,1.0,0.0,0.0,0.0,1.0,0.0,0.0,0.0,1.0,-0.172382519531,-0.268150604204,7.92480749512,1.0,0.0,0.0,0.0,1.0,0.0,0.0,0.0,1.0
1463923489506671069,324,1463923489503113271,,6.01054334641,-21.8342494965,112.196174622,0.0203740000725,1.0,0.0,0.0,0.0,1.0,0.0,0.0,0.0,1.0,-78.3536605835,7.19512224197,-45.0609779358,1.0,0.0,0.0,0.0,1.0,0.0,0.0,0.0,1.0,-0.469263525391,-0.675164868164,7.54652363281,1.0,0.0,0.0,0.0,1.0,0.0,0.0,0.0,1.0
1463923489531326119,325,1463923489523078238,,5.75455904007,-23.1399440765,111.318557739,0.0204460006207,1.0,0.0,0.0,0.0,1.0,0.0,0.0,0.0,1.0,-73.1707305908,1.34146344662,-40.1829299927,1.0,0.0,0.0,0.0,1.0,0.0,0.0,0.0,1.0,-0.588973571866,-1.01514150391,8.56645412456,1.0,0.0,0.0,0.0,1.0,0.0,0.0,0.0,1.0
1463923489551215357,326,1463923489543399141,,5.51199150085,-24.2227668762,110.601638794,0.0204179994762,1.0,0.0,0.0,0.0,1.0,0.0,0.0,0.0,1.0,-66.2804946899,2.07317066193,-31.9512214661,1.0,0.0,0.0,0.0,1.0,0.0,0.0,0.0,1.0,-0.186747729492,-0.828393774414,9.62947966167,1.0,0.0,0.0,0.0,1.0,0.0,0.0,0.0,1.0
1463923489565287224,327,1463923489563530773,,5.34489202499,-25.0641231537,110.059921265,0.0203830003738,1.0,0.0,0.0,0.0,1.0,0.0,0.0,0.0,1.0,-58.0487823486,3.10975623131,-22.5,1.0,0.0,0.0,0.0,1.0,0.0,0.0,0.0,1.0,-0.0335188255255,-0.569819995117,10.0748005859,1.0,0.0,0.0,0.0,1.0,0.0,0.0,0.0,1.0
1463923489589637485,328,1463923489584150425,,5.28168153763,-25.6955280304,109.685180664,0.0204670000821,1.0,0.0,0.0,0.0,1.0,0.0,0.0,0.0,1.0,-48.2926864624,3.53658556938,-13.1707324982,1.0,0.0,0.0,0.0,1.0,0.0,0.0,0.0,1.0,-0.220266552734,-0.818816967773,11.01811604,1.0,0.0,0.0,0.0,1.0,0.0,0.0,0.0,1.0
1463923489606452465,329,1463923489604436328,,5.03886413574,-25.8631305695,109.472862244,0.0203230008483,1.0,0.0,0.0,0.0,1.0,0.0,0.0,0.0,1.0,-34.5121955872,-6.0365858078,-9.93902492523,1.0,0.0,0.0,0.0,1.0,0.0,0.0,0.0,1.0,0.138863696289,0.713472094727,9.61990285503,1.0,0.0,0.0,0.0,1.0,0.0,0.0,0.0,1.0
1463923489630905694,330,1463923489624841240,,5.14161062241,-25.8639621735,109.457000732,0.0204140003771,1.0,0.0,0.0,0.0,1.0,0.0,0.0,0.0,1.0,-30.7317066193,0.18292683363,3.53658556938,1.0,0.0,0.0,0.0,1.0,0.0,0.0,0.0,1.0,-0.938527050781,1.80522805176,12.1769096436,1.0,0.0,0.0,0.0,1.0,0.0,0.0,0.0,1.0
1463923489648685461,331,1463923489645041519,,5.22098922729,-25.6024074554,109.613052368,0.0203920006752,1.0,0.0,0.0,0.0,1.0,0.0,0.0,0.0,1.0,-15.3658533096,1.95121955872,13.9634151459,1.0,0.0,0.0,0.0,1.0,0.0,0.0,0.0,1.0,0.790086547852,1.27850368652,16.4481654053,1.0,0.0,0.0,0.0,1.0,0.0,0.0,0.0,1.0
1463923489670090526,332,1463923489665566900,,5.55884313583,-25.1694259644,109.924949646,0.0204179994762,1.0,0.0,0.0,0.0,1.0,0.0,0.0,0.0,1.0,-5.79268312454,-1.70731711388,20.6097564697,1.0,0.0,0.0,0.0,1.0,0.0,0.0,0.0,1.0,-2.72460148926,0.742202514648,14.3604215576,1.0,0.0,0.0,0.0,1.0,0.0,0.0,0.0,1.0
1463923489687896700,333,1463923489685900407,,5.66384458542,-24.5342693329,110.378639221,0.0204070005566,1.0,0.0,0.0,0.0,1.0,0.0,0.0,0.0,1.0,-0.304878056049,-8.65853691101,24.3292694092,1.0,0.0,0.0,0.0,1.0,0.0,0.0,0.0,1.0,-1.08696755371,1.8866309082,14.6812445801,1.0,0.0,0.0,0.0,1.0,0.0,0.0,0.0,1.0
1463923489735008478,334,1463923489706534850,,5.71832084656,-23.6722106934,111.044776917,0.0204489994794,1.0,0.0,0.0,0.0,1.0,0.0,0.0,0.0,1.0,8.17073154449,-12.0121955872,33.7804870605,1.0,0.0,0.0,0.0,1.0,0.0,0.0,0.0,1.0,-0.253785375977,2.19787712402,12.8377093018,1.0,0.0,0.0,0.0,1.0,0.0,0.0,0.0,1.0
1463923489735178425,335,1463923489727017366,,5.67652463913,-22.4387664795,111.738082886,0.0204119998962,1.0,0.0,0.0,0.0,1.0,0.0,0.0,0.0,1.0,22.8658542633,-3.59756112099,38.5365829468,1.0,0.0,0.0,0.0,1.0,0.0,0.0,0.0,1.0,2.95923325195,3.47159240723,11.9087590576,1.0,0.0,0.0,0.0,1.0,0.0,0.0,0.0,1.0
1463923489802910010,336,1463923489747417852,,5.9454574585,-21.196811676,112.494758606,0.0203970000148,1.0,0.0,0.0,0.0,1.0,0.0,0.0,0.0,1.0,27.4390258789,2.07317066193,44.2073173523,1.0,0.0,0.0,0.0,1.0,0.0,0.0,0.0,1.0,1.01992990723,2.59052619629,13.8384855957,1.0,0.0,0.0,0.0,1.0,0.0,0.0,0.0,1.0
1463923489803594174,337,1463923489768225002,,6.33415651321,-19.9474620819,113.262138367,0.0204029995948,1.0,0.0,0.0,0.0,1.0,0.0,0.0,0.0,1.0,37.134147644,-1.8292683363,43.5365867615,1.0,0.0,0.0,0.0,1.0,0.0,0.0,0.0,1.0,-2.00634099121,0.263362164351,15.7538469238,1.0,0.0,0.0,0.0,1.0,0.0,0.0,0.0,1.0
1463923489804052818,338,1463923489788592832,,6.46265602112,-18.3877658844,114.089508057,0.0204119998962,1.0,0.0,0.0,0.0,1.0,0.0,0.0,0.0,1.0,44.5731735229,-10.1829271317,42.2560958862,1.0,0.0,0.0,0.0,1.0,0.0,0.0,0.0,1.0,-0.938527050781,2.67192905273,14.6477257568,1.0,0.0,0.0,0.0,1.0,0.0,0.0,0.0,1.0
1463923489871396697,339,1463923489809050453,,6.1173915863,-16.7635364532,114.967475891,0.0204169992357,1.0,0.0,0.0,0.0,1.0,0.0,0.0,0.0,1.0,45.2439041138,-15.6097564697,42.8048782349,1.0,0.0,0.0,0.0,1.0,0.0,0.0,0.0,1.0,3.82593425293,4.08450803223,14.4322476074,1.0,0.0,0.0,0.0,1.0,0.0,0.0,0.0,1.0
1463923489872136433,340,1463923489829254637,,6.19631814957,-14.725358963,115.711585999,0.0203910004348,1.0,0.0,0.0,0.0,1.0,0.0,0.0,0.0,1.0,61.5853691101,-11.0365858078,36.7073173523,1.0,0.0,0.0,0.0,1.0,0.0,0.0,0.0,1.0,-1.08696755371,4.70700017161,11.3485158691,1.0,0.0,0.0,0.0,1.0,0.0,0.0,0.0,1.0
1463923489872441640,341,1463923489849620279,,6.29765939713,-12.8893957138,116.287643433,0.0204060003161,1.0,0.0,0.0,0.0,1.0,0.0,0.0,0.0,1.0,55.2439041138,-3.90243911743,30.2439022064,1.0,0.0,0.0,0.0,1.0,0.0,0.0,0.0,1.0,-0.502782348633,4.80276882253,12.6413847656,1.0,0.0,0.0,0.0,1.0,0.0,0.0,0.0,1.0
1463923489872885128,342,1463923489870093682,,6.58725595474,-11.2878961563,117.014884949,0.0204399991781,1.0,0.0,0.0,0.0,1.0,0.0,0.0,0.0,1.0,49.6951217651,9.08536529541,41.0365867615,1.0,0.0,0.0,0.0,1.0,0.0,0.0,0.0,1.0,0.60812722168,3.54820686035,13.9055232422,1.0,0.0,0.0,0.0,1.0,0.0,0.0,0.0,1.0
1463923489899293869,343,1463923489890409793,,6.94987106323,-9.63772296906,117.544487,0.0203770007938,1.0,0.0,0.0,0.0,1.0,0.0,0.0,0.0,1.0,58.5365867615,8.29268264771,30.975610733,1.0,0.0,0.0,0.0,1.0,0.0,0.0,0.0,1.0,-1.85790048828,3.46680400391,19.3930334473,1.0,0.0,0.0,0.0,1.0,0.0,0.0,0.0,1.0
1463923489914799480,344,1463923489910774237,,6.67811346054,-8.11354351044,118.216560364,0.0204550009221,1.0,0.0,0.0,0.0,1.0,0.0,0.0,0.0,1.0,52.8048782349,-18.9024391174,33.1707305908,1.0,0.0,0.0,0.0,1.0,0.0,0.0,0.0,1.0,-0.703895288086,3.82114584961,21.6866786377,1.0,0.0,0.0,0.0,1.0,0.0,0.0,0.0,1.0
1463923489957017737,345,1463923489932674351,,6.09978103638,-6.26347541809,118.897964478,0.0207800008357,1.0,0.0,0.0,0.0,1.0,0.0,0.0,0.0,1.0,56.7073173523,-33.7804870605,30.3048782349,1.0,0.0,0.0,0.0,1.0,0.0,0.0,0.0,1.0,-0.483628735352,4.5968671875,10.3908352051,1.0,0.0,0.0,0.0,1.0,0.0,0.0,0.0,1.0
1463923489958755490,346,1463923489951542344,,5.56628227234,-5.11318016052,119.718955994,0.0199710000306,1.0,0.0,0.0,0.0,1.0,0.0,0.0,0.0,1.0,42.134147644,-31.341463089,41.7073173523,1.0,0.0,0.0,0.0,1.0,0.0,0.0,0.0,1.0,-0.234631762695,1.54665427246,13.7187755127,1.0,0.0,0.0,0.0,1.0,0.0,0.0,0.0,1.0
1463923489978593270,347,1463923489971751216,,4.93289995193,-3.4211833477,120.44783783,0.0204240009189,1.0,0.0,0.0,0.0,1.0,0.0,0.0,0.0,1.0,40.7926826477,-11.7073173523,36.1585350037,1.0,0.0,0.0,0.0,1.0,0.0,0.0,0.0,1.0,3.34230551758,5.08049592285,4.80276882253,1.0,0.0,0.0,0.0,1.0,0.0,0.0,0.0,1.0
1463923489999317608,348,1463923489992166597,,4.99421453476,-2.12547779083,121.225120544,0.0203959997743,1.0,0.0,0.0,0.0,1.0,0.0,0.0,0.0,1.0,28.6585388184,12.6219520569,40.7317085266,1.0,0.0,0.0,0.0,1.0,0.0,0.0,0.0,1.0,3.03105930176,6.86657036133,10.5105452881,1.0,0.0,0.0,0.0,1.0,0.0,0.0,0.0,1.0
1463923490019577730,349,1463923490012722707,,4.88396787643,-1.22359919548,121.856315613,0.0204140003771,1.0,0.0,0.0,0.0,1.0,0.0,0.0,0.0,1.0,16.5853652954,1.64634156227,33.3536605835,1.0,0.0,0.0,0.0,1.0,0.0,0.0,0.0,1.0,1.9105729248,4.97036264648,10.299855542,1.0,0.0,0.0,0.0,1.0,0.0,0.0,0.0,1.0
1463923490046165481,350,1463923490033004704,,6.13269138336,7.40976142883,120.299751282,0.0204399991781,1.0,0.0,0.0,0.0,1.0,0.0,0.0,0.0,1.0,391.585388184,80.6097564697,-77.3780517578,1.0,0.0,0.0,0.0,1.0,0.0,0.0,0.0,1.0,21.3658556152,31.7471140137,24.0617266846,1.0,0.0,0.0,0.0,1.0,0.0,0.0,0.0,1.0
1463923490062339683,351,1463923490054364717,,5.04844474792,12.1237888336,121.195457458,0.0205690003932,1.0,0.0,0.0,0.0,1.0,0.0,0.0,0.0,1.0,200.487808228,-2.98780488968,47.4390258789,1.0,0.0,0.0,0.0,1.0,0.0,0.0,0.0,1.0,12.7850368652,6.33984599609,-3.3470939209,1.0,0.0,0.0,0.0,1.0,0.0,0.0,0.0,1.0
1463923490084128235,352,1463923490075302856,,6.87160396576,16.3803596497,120.760795593,0.0211720000952,1.0,0.0,0.0,0.0,1.0,0.0,0.0,0.0,1.0,185.243896484,107.195121765,-45.5487823486,1.0,0.0,0.0,0.0,1.0,0.0,0.0,0.0,1.0,12.4211182129,10.8744639404,14.6716677734,1.0,0.0,0.0,0.0,1.0,0.0,0.0,0.0,1.0
1463923490096342141,353,1463923490094625482,,10.3036956787,17.0970344543,119.948684692,0.0194589998573,1.0,0.0,0.0,0.0,1.0,0.0,0.0,0.0,1.0,46.2195129395,128.841461182,-78.7195129395,1.0,0.0,0.0,0.0,1.0,0.0,0.0,0.0,1.0,-13.3261264404,5.2816088623,21.0641862061,1.0,0.0,0.0,0.0,1.0,0.0,0.0,0.0,1.0
1463923490117070178,354,1463923490114996645,,12.3197975159,17.7347431183,117.670913696,0.0204089991748,1.0,0.0,0.0,0.0,1.0,0.0,0.0,0.0,1.0,84.0853652954,22.5609760284,-112.926826477,1.0,0.0,0.0,0.0,1.0,0.0,0.0,0.0,1.0,-17.1855795166,-22.5964752686,-14.9350299561,1.0,0.0,0.0,0.0,1.0,0.0,0.0,0.0,1.0
1463923490140830128,355,1463923490135188694,,13.0094928741,13.2224912643,116.445579529,0.0204039998353,1.0,0.0,0.0,0.0,1.0,0.0,0.0,0.0,1.0,-172.378051758,32.0731697083,-59.3292732239,1.0,0.0,0.0,0.0,1.0,0.0,0.0,0.0,1.0,2.39899020961,-4.74530798269,11.8465098145,1.0,0.0,0.0,0.0,1.0,0.0,0.0,0.0,1.0
1463923490160210618,356,1463923490155834647,,12.7153043747,11.0728111267,115.150878906,0.0204390008003,1.0,0.0,0.0,0.0,1.0,0.0,0.0,0.0,1.0,-69.8170776367,-19.8780498505,-50.6707344055,1.0,0.0,0.0,0.0,1.0,0.0,0.0,0.0,1.0,0.076614453125,-2.4516625,17.0515042236,1.0,0.0,0.0,0.0,1.0,0.0,0.0,0.0,1.0
1463923490202627312,357,1463923490176224560,,12.0007305145,12.2641611099,113.643516541,0.0203920006752,1.0,0.0,0.0,0.0,1.0,0.0,0.0,0.0,1.0,90.0,-40.7317085266,-58.0487823486,1.0,0.0,0.0,0.0,1.0,0.0,0.0,0.0,1.0,0.665588061523,-1.80522805176,24.621969873,1.0,0.0,0.0,0.0,1.0,0.0,0.0,0.0,1.0
1463923490202665385,358,1463923490196580515,,10.3603115082,11.7765522003,112.127838135,0.020428000018,1.0,0.0,0.0,0.0,1.0,0.0,0.0,0.0,1.0,31.2195129395,-89.9390258789,-42.9268302917,1.0,0.0,0.0,0.0,1.0,0.0,0.0,0.0,1.0,-0.0718260498047,-6.29675036621,9.60553764507,1.0,0.0,0.0,0.0,1.0,0.0,0.0,0.0,1.0
1463923490227457414,359,1463923490216831209,,8.2100276947,16.0108680725,110.342323303,0.0203850008547,1.0,0.0,0.0,0.0,1.0,0.0,0.0,0.0,1.0,204.268310547,-118.414642334,-59.390247345,1.0,0.0,0.0,0.0,1.0,0.0,0.0,0.0,1.0,4.07014282227,60.0370008301,97.1902221924,1.0,0.0,0.0,0.0,1.0,0.0,0.0,0.0,1.0
1463923490241505687,360,1463923490237068154,,6.23128795624,14.2414216995,108.169921875,0.0203930009156,1.0,0.0,0.0,0.0,1.0,0.0,0.0,0.0,1.0,-21.7073173523,-123.292678833,-65.0609741211,1.0,0.0,0.0,0.0,1.0,0.0,0.0,0.0,1.0,3.38061274414,-35.3910912785,-5.61200869141,1.0,0.0,0.0,0.0,1.0,0.0,0.0,0.0,1.0
1463923490290886622,361,1463923490257533744,,3.7445371151,11.702044487,106.631309509,0.0204019993544,1.0,0.0,0.0,0.0,1.0,0.0,0.0,0.0,1.0,-164.146347046,-149.695129395,-44.1463432312,1.0,0.0,0.0,0.0,1.0,0.0,0.0,0.0,1.0,-2.59531459961,13.3548568604,4.14196887207,1.0,0.0,0.0,0.0,1.0,0.0,0.0,0.0,1.0
1463923490290923236,362,1463923490277737460,,1.12257409096,15.9530906677,105.469978333,0.020408000797,1.0,0.0,0.0,0.0,1.0,0.0,0.0,0.0,1.0,157.012191772,-142.134140015,-23.7195129395,1.0,0.0,0.0,0.0,1.0,0.0,0.0,0.0,1.0,0.933738647461,24.8661784424,0.574608398438,1.0,0.0,0.0,0.0,1.0,0.0,0.0,0.0,1.0
1463923490313818712,363,1463923490298578464,,-1.10533571243,16.7935619354,104.062675476,0.0204070005566,1.0,0.0,0.0,0.0,1.0,0.0,0.0,0.0,1.0,82.2560958862,-142.743896484,-25.9146347046,1.0,0.0,0.0,0.0,1.0,0.0,0.0,0.0,1.0,-5.38216533203,-20.7098443604,-10.8409451172,1.0,0.0,0.0,0.0,1.0,0.0,0.0,0.0,1.0
1463923490321770136,364,1463923490319227074,,-2.95800209045,12.2039070129,103.765449524,0.02054999955,1.0,0.0,0.0,0.0,1.0,0.0,0.0,0.0,1.0,-184.390258789,-82.8048782349,8.35365867615,1.0,0.0,0.0,0.0,1.0,0.0,0.0,0.0,1.0,2.94007963867,-4.85065256348,9.07402429199,1.0,0.0,0.0,0.0,1.0,0.0,0.0,0.0,1.0
1463923490342961816,365,1463923490339356415,,-5.01375246048,13.1816825867,103.871963501,0.0203590001911,1.0,0.0,0.0,0.0,1.0,0.0,0.0,0.0,1.0,62.0121917725,-97.3170776367,30.0609760284,1.0,0.0,0.0,0.0,1.0,0.0,0.0,0.0,1.0,2.18830031738,-15.9166526367,-34.0599128174,1.0,0.0,0.0,0.0,1.0,0.0,0.0,0.0,1.0
1463923490361854756,366,1463923490359458152,,-5.36724328995,16.697057724,104.73134613,0.0203009992838,1.0,0.0,0.0,0.0,1.0,0.0,0.0,0.0,1.0,158.719512939,-22.8048782349,54.1463432312,1.0,0.0,0.0,0.0,1.0,0.0,0.0,0.0,1.0,-16.2374768282,70.5954301514,105.857232202,1.0,0.0,0.0,0.0,1.0,0.0,0.0,0.0,1.0
1463923490382314512,367,1463923490379768690,,-6.66663312912,19.3310680389,104.960250854,0.0204169992357,1.0,0.0,0.0,0.0,1.0,0.0,0.0,0.0,1.0,75.7317047119,-66.707321167,41.6463432312,1.0,0.0,0.0,0.0,1.0,0.0,0.0,0.0,1.0,-2.88261879883,33.2746170109,-4.9751510498,1.0,0.0,0.0,0.0,1.0,0.0,0.0,0.0,1.0
1463923490414699530,368,1463923490403726400,,-8.62602233887,22.134393692,104.321533203,0.0204360000789,1.0,0.0,0.0,0.0,1.0,0.0,0.0,0.0,1.0,180.853652954,-104.024391174,3.23170733452,1.0,0.0,0.0,0.0,1.0,0.0,0.0,0.0,1.0,0.296881024126,-20.7002675537,-5.45399138184,1.0,0.0,0.0,0.0,1.0,0.0,0.0,0.0,1.0
1463923490452932596,369,1463923490429925507,,-9.5775604248,23.7833824158,104.4164505,0.0204869993031,1.0,0.0,0.0,0.0,1.0,0.0,0.0,0.0,1.0,123.475608826,-51.7682952881,22.3170719147,1.0,0.0,0.0,0.0,1.0,0.0,0.0,0.0,1.0,-3.45243879395,-21.1120702393,-7.63271489258,1.0,0.0,0.0,0.0,1.0,0.0,0.0,0.0,1.0
1463923490452972960,370,1463923490442452120,,-9.28467559814,21.2107009888,105.183731079,0.0203050002456,1.0,0.0,0.0,0.0,1.0,0.0,0.0,0.0,1.0,-88.2317047119,-20.0,46.1585388184,1.0,0.0,0.0,0.0,1.0,0.0,0.0,0.0,1.0,-16.1656496094,-11.7411649414,1.12048637695,1.0,0.0,0.0,0.0,1.0,0.0,0.0,0.0,1.0
1463923490477405929,371,1463923490461539330,,-9.00143051147,19.7021713257,105.635818481,0.0204290002584,1.0,0.0,0.0,0.0,1.0,0.0,0.0,0.0,1.0,-77.2561035156,23.2317085266,18.2926826477,1.0,0.0,0.0,0.0,1.0,0.0,0.0,0.0,1.0,7.53694682617,11.6980693115,20.2788880615,1.0,0.0,0.0,0.0,1.0,0.0,0.0,0.0,1.0
1463923490486579744,372,1463923490484219077,,-9.23566532135,16.3734455109,107.009033203,0.0220389999449,1.0,0.0,0.0,0.0,1.0,0.0,0.0,0.0,1.0,-120.000007629,20.7926826477,56.4634132385,1.0,0.0,0.0,0.0,1.0,0.0,0.0,0.0,1.0,12.6461731689,-1.78607443848,22.8789910645,1.0,0.0,0.0,0.0,1.0,0.0,0.0,0.0,1.0
1463923490517520601,373,1463923490502648373,,-8.94658565521,16.3992786407,107.913017273,0.0188319999725,1.0,0.0,0.0,0.0,1.0,0.0,0.0,0.0,1.0,47.3780517578,13.841463089,41.7073173523,1.0,0.0,0.0,0.0,1.0,0.0,0.0,0.0,1.0,-0.0814028564453,-9.43315395649,19.9484882324,1.0,0.0,0.0,0.0,1.0,0.0,0.0,0.0,1.0
1463923490531520958,374,1463923490524639789,,-8.58076286316,17.0312767029,108.230766296,0.0214859992266,1.0,0.0,0.0,0.0,1.0,0.0,0.0,0.0,1.0,50.1219520569,36.3414611816,4.39024400711,1.0,0.0,0.0,0.0,1.0,0.0,0.0,0.0,1.0,4.73573059153,-9.67257470703,-13.6804682861,1.0,0.0,0.0,0.0,1.0,0.0,0.0,0.0,1.0
1463923490569009443,375,1463923490543289501,,-8.06027126312,14.0810956955,109.157974243,0.0192779991776,1.0,0.0,0.0,0.0,1.0,0.0,0.0,0.0,1.0,-114.329277039,42.6219520569,35.1829299927,1.0,0.0,0.0,0.0,1.0,0.0,0.0,0.0,1.0,3.3710359375,-3.10288535156,9.41400034321,1.0,0.0,0.0,0.0,1.0,0.0,0.0,0.0,1.0
1463923490578593257,376,1463923490563802122,,-6.48534154892,11.3781614304,109.785484314,0.020380999893,1.0,0.0,0.0,0.0,1.0,0.0,0.0,0.0,1.0,-174.329284668,47.2560958862,31.4024391174,1.0,0.0,0.0,0.0,1.0,0.0,0.0,0.0,1.0,-6.00944616699,8.91600698242,-1.41736738281,1.0,0.0,0.0,0.0,1.0,0.0,0.0,0.0,1.0
1463923490587583739,377,1463923490583884640,,-4.0228767395,20.266828537,111.877105713,0.0204230006784,1.0,0.0,0.0,0.0,1.0,0.0,0.0,0.0,1.0,422.561004639,137.560974121,72.134147644,1.0,0.0,0.0,0.0,1.0,0.0,0.0,0.0,1.0,2.01591779785,15.7346933105,20.9540529297,1.0,0.0,0.0,0.0,1.0,0.0,0.0,0.0,1.0
1463923490621163387,378,1463923490604832363,,-3.60025191307,20.3873806,112.619735718,0.0204399991781,1.0,0.0,0.0,0.0,1.0,0.0,0.0,0.0,1.0,35.5487823486,20.975610733,31.7073192596,1.0,0.0,0.0,0.0,1.0,0.0,0.0,0.0,1.0,-3.96958635254,-19.3547262207,-17.4058460693,1.0,0.0,0.0,0.0,1.0,0.0,0.0,0.0,1.0
1463923490628262471,379,1463923490625128631,,-3.61896538734,23.8558864594,112.899360657,0.0203939992934,1.0,0.0,0.0,0.0,1.0,0.0,0.0,0.0,1.0,222.56098938,4.57317066193,11.9512195587,1.0,0.0,0.0,0.0,1.0,0.0,0.0,0.0,1.0,0.857124194336,-7.91044228516,-0.809240161133,1.0,0.0,0.0,0.0,1.0,0.0,0.0,0.0,1.0
1463923490648222959,380,1463923490645292190,,-1.63117814064,19.2121582031,114.084701538,0.0203820001334,1.0,0.0,0.0,0.0,1.0,0.0,0.0,0.0,1.0,-174.634155273,81.4024429321,30.1829280853,1.0,0.0,0.0,0.0,1.0,0.0,0.0,0.0,1.0,-3.76368500977,-6.1530982666,4.3382934082,1.0,0.0,0.0,0.0,1.0,0.0,0.0,0.0,1.0
1463923490669713336,381,1463923490665362573,,-1.36846888065,19.7778053284,114.662734985,0.0204000007361,1.0,0.0,0.0,0.0,1.0,0.0,0.0,0.0,1.0,49.207321167,22.9878044128,23.7804889679,1.0,0.0,0.0,0.0,1.0,0.0,0.0,0.0,1.0,3.9121255127,-0.497993945312,23.5110603027,1.0,0.0,0.0,0.0,1.0,0.0,0.0,0.0,1.0
1463923490689809187,382,1463923490685818371,,-0.768749773502,17.7890396118,114.979103088,0.0204009991139,1.0,0.0,0.0,0.0,1.0,0.0,0.0,0.0,1.0,-66.4024353027,20.2439022064,11.4634151459,1.0,0.0,0.0,0.0,1.0,0.0,0.0,0.0,1.0,-1.24019645996,-2.4756045166,11.7028577148,1.0,0.0,0.0,0.0,1.0,0.0,0.0,0.0,1.0
1463923490713673096,383,1463923490709349468,,-0.393830955029,17.6892929077,115.040359497,0.0204140003771,1.0,0.0,0.0,0.0,1.0,0.0,0.0,0.0,1.0,-58.2317085266,24.2073173523,-1.09756100178,1.0,0.0,0.0,0.0,1.0,0.0,0.0,0.0,1.0,3.30399829102,13.6613146729,-7.4268135498,1.0,0.0,0.0,0.0,1.0,0.0,0.0,0.0,1.0
1463923490741023187,384,1463923490727128767,,-0.982663094997,19.7067737579,114.888046265,0.0204240009189,1.0,0.0,0.0,0.0,1.0,0.0,0.0,0.0,1.0,151.219512939,-52.0121955872,11.8292684555,1.0,0.0,0.0,0.0,1.0,0.0,0.0,0.0,1.0,-4.02704719238,-10.2807019287,7.46512077637,1.0,0.0,0.0,0.0,1.0,0.0,0.0,0.0,1.0
1463923490750676479,385,1463923490747709565,,-0.907213389874,19.88489151,115.031311035,0.0204160008579,1.0,0.0,0.0,0.0,1.0,0.0,0.0,0.0,1.0,49.8780479431,-2.07317066193,10.0,1.0,0.0,0.0,0.0,1.0,0.0,0.0,0.0,1.0,-0.603338854892,-10.6925046143,22.9556055176,1.0,0.0,0.0,0.0,1.0,0.0,0.0,0.0,1.0
1463923490781367129,386,1463923490768197446,,-0.39207598567,15.5717439651,115.881797791,0.0203930009156,1.0,0.0,0.0,0.0,1.0,0.0,0.0,0.0,1.0,-170.60975647,32.6219520569,35.2439041138,1.0,0.0,0.0,0.0,1.0,0.0,0.0,0.0,1.0,4.96557424316,-44.6662261719,99.3497920898,1.0,0.0,0.0,0.0,1.0,0.0,0.0,0.0,1.0
1463923490791639273,387,1463923490789546990,,-0.654841125011,15.2442007065,115.85018158,0.0204559992999,1.0,0.0,0.0,0.0,1.0,0.0,0.0,0.0,1.0,-61.0975608826,-29.8170719147,10.0609760284,1.0,0.0,0.0,0.0,1.0,0.0,0.0,0.0,1.0,-5.58327827148,16.8503912842,-19.5702032011,1.0,0.0,0.0,0.0,1.0,0.0,0.0,0.0,1.0
1463923490819089833,388,1463923490810424088,,-2.48282337189,19.2922878265,115.960510254,0.0207880008966,1.0,0.0,0.0,0.0,1.0,0.0,0.0,0.0,1.0,240.914642334,-79.6951217651,33.0487823486,1.0,0.0,0.0,0.0,1.0,0.0,0.0,0.0,1.0,4.38138903809,-15.9693250732,20.5901342773,1.0,0.0,0.0,0.0,1.0,0.0,0.0,0.0,1.0
1463923490842621451,389,1463923490829689683,,-2.55043387413,18.7948741913,115.845794678,0.0200330000371,1.0,0.0,0.0,0.0,1.0,0.0,0.0,0.0,1.0,-80.1829299927,-11.0975618362,3.04878044128,1.0,0.0,0.0,0.0,1.0,0.0,0.0,0.0,1.0,-0.612915625,21.3275483887,-10.6398321777,1.0,0.0,0.0,0.0,1.0,0.0,0.0,0.0,1.0
1463923490883973826,390,1463923490849671473,,-2.70686650276,21.0173835754,115.913047791,0.0203719995916,1.0,0.0,0.0,0.0,1.0,0.0,0.0,0.0,1.0,161.524398804,-10.2439022064,7.37804937363,1.0,0.0,0.0,0.0,1.0,0.0,0.0,0.0,1.0,1.92972653809,-21.8159655273,21.2030499023,1.0,0.0,0.0,0.0,1.0,0.0,0.0,0.0,1.0
1463923490884025961,391,1463923490870178781,,-2.72828269005,18.4468955994,115.261070251,0.0204070005566,1.0,0.0,0.0,0.0,1.0,0.0,0.0,0.0,1.0,-159.573181152,-23.1707324982,-21.0365848541,1.0,0.0,0.0,0.0,1.0,0.0,0.0,0.0,1.0,-1.80043964844,19.0195391573,12.3301385498,1.0,0.0,0.0,0.0,1.0,0.0,0.0,0.0,1.0
1463923490958344498,392,1463923490890559631,,-3.32427358627,19.8114204407,115.088172913,0.0204579997808,1.0,0.0,0.0,0.0,1.0,0.0,0.0,0.0,1.0,122.317070007,-49.7560997009,8.10975551605,1.0,0.0,0.0,0.0,1.0,0.0,0.0,0.0,1.0,-4.66869294504,-17.7841299316,7.11077893066,1.0,0.0,0.0,0.0,1.0,0.0,0.0,0.0,1.0
1463923490958776944,393,1463923490910892617,,-2.76255631447,15.7481937408,115.461875916,0.0204659998417,1.0,0.0,0.0,0.0,1.0,0.0,0.0,0.0,1.0,-160.121948242,6.89024400711,18.1707305908,1.0,0.0,0.0,0.0,1.0,0.0,0.0,0.0,1.0,-4.21379462961,-5.09486113281,12.2152168701,1.0,0.0,0.0,0.0,1.0,0.0,0.0,0.0,1.0
1463923490959386524,394,1463923490931423519,,-3.61684632301,15.6423015594,115.409683228,0.0204189997166,1.0,0.0,0.0,0.0,1.0,0.0,0.0,0.0,1.0,-33.9024391174,-40.1219520569,13.1707324982,1.0,0.0,0.0,0.0,1.0,0.0,0.0,0.0,1.0,1.38863696289,5.15711037598,-18.1528381563,1.0,0.0,0.0,0.0,1.0,0.0,0.0,0.0,1.0
1463923490959442878,395,1463923490951365517,,-3.59078860283,18.3120861053,116.173225403,0.0202890001237,1.0,0.0,0.0,0.0,1.0,0.0,0.0,0.0,1.0,121.646347046,-14.2682924271,46.7682952881,1.0,0.0,0.0,0.0,1.0,0.0,0.0,0.0,1.0,-6.7660138916,9.93114848633,16.9557361572,1.0,0.0,0.0,0.0,1.0,0.0,0.0,0.0,1.0
1463923491018765281,396,1463923490972143084,,-3.66861367226,14.0309934616,116.286369324,0.0204920005053,1.0,0.0,0.0,0.0,1.0,0.0,0.0,0.0,1.0,-180.487808228,-7.62195110321,9.08536529541,1.0,0.0,0.0,0.0,1.0,0.0,0.0,0.0,1.0,3.14119257812,-8.00621035156,43.8952932373,1.0,0.0,0.0,0.0,1.0,0.0,0.0,0.0,1.0
1463923491019093613,397,1463923490992437008,,-4.12984609604,11.7060213089,116.356437683,0.0203159991652,1.0,0.0,0.0,0.0,1.0,0.0,0.0,0.0,1.0,-101.89024353,-9.51219558716,7.86585378647,1.0,0.0,0.0,0.0,1.0,0.0,0.0,0.0,1.0,6.00465776367,0.411802685547,14.470554834,1.0,0.0,0.0,0.0,1.0,0.0,0.0,0.0,1.0
1463923491019982880,398,1463923491013232023,,-3.37284326553,12.8434801102,116.632522583,0.0204160008579,1.0,0.0,0.0,0.0,1.0,0.0,0.0,0.0,1.0,49.5731735229,15.0609760284,14.2682924271,1.0,0.0,0.0,0.0,1.0,0.0,0.0,0.0,1.0,-5.37737692871,6.87135876465,18.492813623,1.0,0.0,0.0,0.0,1.0,0.0,0.0,0.0,1.0
1463923491051174309,399,1463923491033343864,,-3.66496968269,15.6557149887,116.994354248,0.0204009991139,1.0,0.0,0.0,0.0,1.0,0.0,0.0,0.0,1.0,117.317077637,8.41463470459,21.2195129395,1.0,0.0,0.0,0.0,1.0,0.0,0.0,0.0,1.0,14.0731173584,16.9940433838,20.1400243652,1.0,0.0,0.0,0.0,1.0,0.0,0.0,0.0,1.0
1463923491082594123,400,1463923491053631486,,-3.28067588806,15.4677705765,117.002380371,0.0205409992486,1.0,0.0,0.0,0.0,1.0,0.0,0.0,0.0,1.0,45.5487823486,12.5,-3.65853667259,1.0,0.0,0.0,0.0,1.0,0.0,0.0,0.0,1.0,1.08217922346,-22.1272117432,15.1648733154,1.0,0.0,0.0,0.0,1.0,0.0,0.0,0.0,1.0
1463923491082650320,401,1463923491073950305,,-3.03017091751,10.9440565109,117.627098083,0.0202869996428,1.0,0.0,0.0,0.0,1.0,0.0,0.0,0.0,1.0,-204.634155273,25.8536586761,27.1951236725,1.0,0.0,0.0,0.0,1.0,0.0,0.0,0.0,1.0,4.8554409668,-0.387860668945,16.1608623751,1.0,0.0,0.0,0.0,1.0,0.0,0.0,0.0,1.0
1463923491128777311,402,1463923491094756414,,-3.18143987656,10.4937601089,118.119232178,0.0203879997134,1.0,0.0,0.0,0.0,1.0,0.0,0.0,0.0,1.0,-16.5243911743,12.2560977936,25.3658542633,1.0,0.0,0.0,0.0,1.0,0.0,0.0,0.0,1.0,6.33984599609,1.76213242187,13.4314713135,1.0,0.0,0.0,0.0,1.0,0.0,0.0,0.0,1.0
1463923491128831217,403,1463923491114675652,,-2.80616140366,9.89197826385,118.653656006,0.0204179994762,1.0,0.0,0.0,0.0,1.0,0.0,0.0,0.0,1.0,-52.5609779358,40.3048782349,24.0853652954,1.0,0.0,0.0,0.0,1.0,0.0,0.0,0.0,1.0,4.21858303293,5.38216533203,6.18661708984,1.0,0.0,0.0,0.0,1.0,0.0,0.0,0.0,1.0
1463923491139489088,404,1463923491135109731,,-2.16452884674,9.92723464966,119.14150238,0.0203980002552,1.0,0.0,0.0,0.0,1.0,0.0,0.0,0.0,1.0,18.658536911,49.5121955872,18.3536586761,1.0,0.0,0.0,0.0,1.0,0.0,0.0,0.0,1.0,5.2576668457,-6.83783994141,-14.0443869385,1.0,0.0,0.0,0.0,1.0,0.0,0.0,0.0,1.0
1463923491157661406,405,1463923491156233287,,-0.277367800474,11.8334598541,120.14276123,0.0205199997872,1.0,0.0,0.0,0.0,1.0,0.0,0.0,0.0,1.0,52.5609779358,106.463417053,34.3292694092,1.0,0.0,0.0,0.0,1.0,0.0,0.0,0.0,1.0,4.40054265137,14.0348101318,-16.7546232178,1.0,0.0,0.0,0.0,1.0,0.0,0.0,0.0,1.0
1463923491178104496,406,1463923491175850859,,-0.861909747124,14.960559845,120.793815613,0.0203089993447,1.0,0.0,0.0,0.0,1.0,0.0,0.0,0.0,1.0,180.548782349,-2.31707310677,37.1951255798,1.0,0.0,0.0,0.0,1.0,0.0,0.0,0.0,1.0,8.02057556152,-4.94163222656,15.7299049072,1.0,0.0,0.0,0.0,1.0,0.0,0.0,0.0,1.0
1463923491200489816,407,1463923491196522802,,0.948955595493,18.7362937927,122.406333923,0.0204450003803,1.0,0.0,0.0,0.0,1.0,0.0,0.0,0.0,1.0,145.975616455,125.853660583,48.2317085266,1.0,0.0,0.0,0.0,1.0,0.0,0.0,0.0,1.0,19.1823448702,35.7645843994,15.4042934814,1.0,0.0,0.0,0.0,1.0,0.0,0.0,0.0,1.0
1463923491232077494,408,1463923491217105006,,3.55492734909,12.662653923,123.416412354,0.0204189997166,1.0,0.0,0.0,0.0,1.0,0.0,0.0,0.0,1.0,-243.353668213,137.682937622,15.975610733,1.0,0.0,0.0,0.0,1.0,0.0,0.0,0.0,1.0,7.62792648926,-54.7553919678,30.1621525146,1.0,0.0,0.0,0.0,1.0,0.0,0.0,0.0,1.0
1463923491240538395,409,1463923491237331169,,5.17228269577,14.5116672516,123.398193359,0.0203930009156,1.0,0.0,0.0,0.0,1.0,0.0,0.0,0.0,1.0,41.4634170532,59.0853652954,-15.4268302917,1.0,0.0,0.0,0.0,1.0,0.0,0.0,0.0,1.0,-5.57848986816,24.0569382812,-18.5790037138,1.0,0.0,0.0,0.0,1.0,0.0,0.0,0.0,1.0
1463923491263135955,410,1463923491257772592,,7.14909172058,13.8524007797,124.31212616,0.0203920006752,1.0,0.0,0.0,0.0,1.0,0.0,0.0,0.0,1.0,19.817073822,92.8658599854,30.7317066193,1.0,0.0,0.0,0.0,1.0,0.0,0.0,0.0,1.0,-2.43250888672,-16.1417087618,4.88895979004,1.0,0.0,0.0,0.0,1.0,0.0,0.0,0.0,1.0
1463923491288589388,411,1463923491278320786,,9.10739421844,13.9095287323,124.532966614,0.0203990004957,1.0,0.0,0.0,0.0,1.0,0.0,0.0,0.0,1.0,-52.2560997009,92.1951293945,-15.7317075729,1.0,0.0,0.0,0.0,1.0,0.0,0.0,0.0,1.0,0.497993945312,12.4115414062,-0.105344873047,1.0,0.0,0.0,0.0,1.0,0.0,0.0,0.0,1.0
1463923491324078038,412,1463923491300820273,,10.2814874649,13.0232028961,124.511634827,0.021547999233,1.0,0.0,0.0,0.0,1.0,0.0,0.0,0.0,1.0,-30.1219520569,67.9878082275,-12.6219520569,1.0,0.0,0.0,0.0,1.0,0.0,0.0,0.0,1.0,1.69509477539,0.474051928711,7.3549875,1.0,0.0,0.0,0.0,1.0,0.0,0.0,0.0,1.0
1463923491324118194,413,1463923491319304152,,11.3614263535,14.3199310303,124.697540283,0.0193530004472,1.0,0.0,0.0,0.0,1.0,0.0,0.0,0.0,1.0,47.0731697083,59.024394989,-5.0,1.0,0.0,0.0,0.0,1.0,0.0,0.0,0.0,1.0,-0.0909796630859,12.3061965332,18.7178685791,1.0,0.0,0.0,0.0,1.0,0.0,0.0,0.0,1.0
1463923491348510954,414,1463923491342116815,,12.2695388794,15.959980011,124.663658142,0.0204039998353,1.0,0.0,0.0,0.0,1.0,0.0,0.0,0.0,1.0,91.2195129395,57.0731697083,-11.8292684555,1.0,0.0,0.0,0.0,1.0,0.0,0.0,0.0,1.0,2.7581203125,1.26892687988,15.7873657471,1.0,0.0,0.0,0.0,1.0,0.0,0.0,0.0,1.0
1463923491467897319,415,1463923491362644957,,11.811290741,18.9072303772,123.843704224,0.0203070007265,1.0,0.0,0.0,0.0,1.0,0.0,0.0,0.0,1.0,207.073181152,-50.6097564697,-10.8536586761,1.0,0.0,0.0,0.0,1.0,0.0,0.0,0.0,1.0,-3.78762702637,-16.7067391846,0.421379492187,1.0,0.0,0.0,0.0,1.0,0.0,0.0,0.0,1.0
1463923491472532299,416,1463923491380083007,,12.3785686493,18.3060798645,123.402626038,0.0204169992357,1.0,0.0,0.0,0.0,1.0,0.0,0.0,0.0,1.0,8.90243911743,25.7317085266,-20.975610733,1.0,0.0,0.0,0.0,1.0,0.0,0.0,0.0,1.0,0.272938989258,-5.91367810059,19.2158625244,1.0,0.0,0.0,0.0,1.0,0.0,0.0,0.0,1.0
1463923491472591309,417,1463923491400369274,,13.4649105072,18.3673782349,123.078842163,0.0203990004957,1.0,0.0,0.0,0.0,1.0,0.0,0.0,0.0,1.0,19.817073822,21.4024391174,-17.7439022064,1.0,0.0,0.0,0.0,1.0,0.0,0.0,0.0,1.0,-5.05655390625,0.435744702148,7.71411774902,1.0,0.0,0.0,0.0,1.0,0.0,0.0,0.0,1.0
1463923491478546805,418,1463923491422871262,,11.5953559875,22.0737304688,121.952896118,0.0207490008324,1.0,0.0,0.0,0.0,1.0,0.0,0.0,0.0,1.0,239.207336426,-84.0853652954,-9.75609779358,1.0,0.0,0.0,0.0,1.0,0.0,0.0,0.0,1.0,11.6358200684,-22.7113969482,1.65199914551,1.0,0.0,0.0,0.0,1.0,0.0,0.0,0.0,1.0
1463923491531450641,419,1463923491441438682,,12.0139436722,15.3904018402,121.986320496,0.0202580001205,1.0,0.0,0.0,0.0,1.0,0.0,0.0,0.0,1.0,-302.012207031,31.5853652954,-1.34146344662,1.0,0.0,0.0,0.0,1.0,0.0,0.0,0.0,1.0,18.2294526095,-21.6531598145,155.421994971,1.0,0.0,0.0,0.0,1.0,0.0,0.0,0.0,1.0
1463923491540978725,420,1463923491461927917,,11.9410247803,17.8373641968,121.309692383,0.0202610008419,1.0,0.0,0.0,0.0,1.0,0.0,0.0,0.0,1.0,74.4512252808,-12.5609760284,-39.2682914734,1.0,0.0,0.0,0.0,1.0,0.0,0.0,0.0,1.0,4.19942941965,28.5340953857,-4.17548740305,1.0,0.0,0.0,0.0,1.0,0.0,0.0,0.0,1.0
1463923491788258397,421,1463923491482210018,,12.6087465286,15.1872386932,121.12046814,0.0203900001943,1.0,0.0,0.0,0.0,1.0,0.0,0.0,0.0,1.0,-73.5365905762,18.658536911,0.0609756112099,1.0,0.0,0.0,0.0,1.0,0.0,0.0,0.0,1.0,-4.17548740305,-18.7609630399,10.4578728516,1.0,0.0,0.0,0.0,1.0,0.0,0.0,0.0,1.0
1463923491793097335,422,1463923491502574879,,13.9476518631,16.2202110291,120.760513306,0.0204440001398,1.0,0.0,0.0,0.0,1.0,0.0,0.0,0.0,1.0,7.98780536652,29.0243911743,-34.2073173523,1.0,0.0,0.0,0.0,1.0,0.0,0.0,0.0,1.0,-7.74284816895,18.7753294189,-16.0746711153,1.0,0.0,0.0,0.0,1.0,0.0,0.0,0.0,1.0
1463923491796918673,423,1463923491522781407,,12.9125680923,18.4229507446,120.357788086,0.0203569997102,1.0,0.0,0.0,0.0,1.0,0.0,0.0,0.0,1.0,112.682929993,-28.5365848541,-8.04878044128,1.0,0.0,0.0,0.0,1.0,0.0,0.0,0.0,1.0,15.8496149902,12.3109849365,38.3838433537,1.0,0.0,0.0,0.0,1.0,0.0,0.0,0.0,1.0
1463923491797533983,424,1463923491545347821,,13.1971149445,19.4400215149,119.732696533,0.020447999239,1.0,0.0,0.0,0.0,1.0,0.0,0.0,0.0,1.0,95.9146347046,-5.79268312454,-17.4390239716,1.0,0.0,0.0,0.0,1.0,0.0,0.0,0.0,1.0,-3.73974299316,-5.98550415039,11.5879360352,1.0,0.0,0.0,0.0,1.0,0.0,0.0,0.0,1.0
1463923491797946377,425,1463923491563480660,,13.1102285385,19.1042060852,119.438056946,0.0203879997134,1.0,0.0,0.0,0.0,1.0,0.0,0.0,0.0,1.0,1.52439022064,7.07317113876,-11.4024391174,1.0,0.0,0.0,0.0,1.0,0.0,0.0,0.0,1.0,2.44208569336,1.2737152832,14.3221143311,1.0,0.0,0.0,0.0,1.0,0.0,0.0,0.0,1.0
1463923491798253511,426,1463923491585988533,,13.4572467804,20.6248016357,119.284324646,0.0204990003258,1.0,0.0,0.0,0.0,1.0,0.0,0.0,0.0,1.0,27.317073822,10.3048782349,-21.2195129395,1.0,0.0,0.0,0.0,1.0,0.0,0.0,0.0,1.0,4.38617744141,14.9254531494,-13.5032973633,1.0,0.0,0.0,0.0,1.0,0.0,0.0,0.0,1.0
1463923491798695384,427,1463923491604534183,,12.5000905991,24.5697174072,118.766189575,0.0203079991043,1.0,0.0,0.0,0.0,1.0,0.0,0.0,0.0,1.0,194.634155273,-29.3902435303,-12.9268293381,1.0,0.0,0.0,0.0,1.0,0.0,0.0,0.0,1.0,9.83538041992,12.0428343506,22.4911303955,1.0,0.0,0.0,0.0,1.0,0.0,0.0,0.0,1.0
1463923491798735384,428,1463923491624967429,,12.0047664642,25.0180683136,117.924629211,0.0203980002552,1.0,0.0,0.0,0.0,1.0,0.0,0.0,0.0,1.0,82.3170700073,-27.682926178,-17.0121955872,1.0,0.0,0.0,0.0,1.0,0.0,0.0,0.0,1.0,7.20654699707,-30.0903264648,32.6281825627,1.0,0.0,0.0,0.0,1.0,0.0,0.0,0.0,1.0
1463923491799077518,429,1463923491645001926,,13.050450325,20.3777675629,117.738372803,0.0204169992357,1.0,0.0,0.0,0.0,1.0,0.0,0.0,0.0,1.0,-251.402450562,14.8170728683,-18.7804889679,1.0,0.0,0.0,0.0,1.0,0.0,0.0,0.0,1.0,-3.13161577148,1.09175595703,-12.8951701416,1.0,0.0,0.0,0.0,1.0,0.0,0.0,0.0,1.0
1463923491799140434,430,1463923491665619182,,13.8600072861,19.6041316986,117.344947815,0.0204179994762,1.0,0.0,0.0,0.0,1.0,0.0,0.0,0.0,1.0,-25.3658542633,12.9268293381,-20.1829280853,1.0,0.0,0.0,0.0,1.0,0.0,0.0,0.0,1.0,-0.445321508789,-13.6900450928,-26.0106068359,1.0,0.0,0.0,0.0,1.0,0.0,0.0,0.0,1.0
1463923491799450849,431,1463923491686262271,,15.498093605,23.2629318237,117.712799072,0.0204189997166,1.0,0.0,0.0,0.0,1.0,0.0,0.0,0.0,1.0,128.536590576,44.2682914734,-9.93902492523,1.0,0.0,0.0,0.0,1.0,0.0,0.0,0.0,1.0,-14.9972791992,23.3817734131,-12.6509615723,1.0,0.0,0.0,0.0,1.0,0.0,0.0,0.0,1.0
1463923491799494599,432,1463923491706521872,,16.6422138214,22.0285186768,117.313514709,0.0203820001334,1.0,0.0,0.0,0.0,1.0,0.0,0.0,0.0,1.0,-25.3658542633,28.7804889679,-21.2195129395,1.0,0.0,0.0,0.0,1.0,0.0,0.0,0.0,1.0,-0.780509741211,-23.9228629883,-16.668431958,1.0,0.0,0.0,0.0,1.0,0.0,0.0,0.0,1.0
1463923491799864441,433,1463923491726852566,,17.1493911743,23.1608791351,116.855003357,0.0204099994153,1.0,0.0,0.0,0.0,1.0,0.0,0.0,0.0,1.0,8.90243911743,4.93902444839,-40.6707344055,1.0,0.0,0.0,0.0,1.0,0.0,0.0,0.0,1.0,1.5322890625,44.3023075195,-16.2901480957,1.0,0.0,0.0,0.0,1.0,0.0,0.0,0.0,1.0
1463923491800105326,434,1463923491747782529,,17.0474510193,23.9045257568,116.06022644,0.0203970000148,1.0,0.0,0.0,0.0,1.0,0.0,0.0,0.0,1.0,101.768295288,-28.1097564697,-8.23170757294,1.0,0.0,0.0,0.0,1.0,0.0,0.0,0.0,1.0,-8.3030907729,-33.8013390381,17.7889171659,1.0,0.0,0.0,0.0,1.0,0.0,0.0,0.0,1.0
1463923491800342721,435,1463923491768478586,,17.5403881073,21.5018348694,115.399597168,0.0204179994762,1.0,0.0,0.0,0.0,1.0,0.0,0.0,0.0,1.0,-158.414642334,0.792682945728,-48.7195129395,1.0,0.0,0.0,0.0,1.0,0.0,0.0,0.0,1.0,-1.06302561017,24.2580512207,-2.43729729004,1.0,0.0,0.0,0.0,1.0,0.0,0.0,0.0,1.0
1463923491842439624,436,1463923491788773916,,17.8491802216,19.9309272766,114.299514771,0.0203910004348,1.0,0.0,0.0,0.0,1.0,0.0,0.0,0.0,1.0,-5.73170757294,-3.90243911743,-32.4390220642,1.0,0.0,0.0,0.0,1.0,0.0,0.0,0.0,1.0,-0.790086547852,-20.1687547852,9.95509050293,1.0,0.0,0.0,0.0,1.0,0.0,0.0,0.0,1.0
1463923491842764206,437,1463923491808992371,,17.3061485291,18.055934906,113.607887268,0.0204099994153,1.0,0.0,0.0,0.0,1.0,0.0,0.0,0.0,1.0,-123.292678833,-24.0853652954,-38.1707305908,1.0,0.0,0.0,0.0,1.0,0.0,0.0,0.0,1.0,4.5250411377,16.5247798584,4.45321508789,1.0,0.0,0.0,0.0,1.0,0.0,0.0,0.0,1.0
1463923491878440772,438,1463923491829093900,,17.8324317932,22.6989383698,114.096885681,0.020610999316,1.0,0.0,0.0,0.0,1.0,0.0,0.0,0.0,1.0,197.804870605,68.5975570679,-4.2682929039,1.0,0.0,0.0,0.0,1.0,0.0,0.0,0.0,1.0,27.4950118652,23.5158487061,19.1153072237,1.0,0.0,0.0,0.0,1.0,0.0,0.0,0.0,1.0
1463923491878651605,439,1463923491850261726,,17.5296287537,23.6108551025,113.519264221,0.0209160000086,1.0,0.0,0.0,0.0,1.0,0.0,0.0,0.0,1.0,9.39024448395,-18.0487823486,-33.9024391174,1.0,0.0,0.0,0.0,1.0,0.0,0.0,0.0,1.0,3.59130249023,22.1798841797,4.73573059153,1.0,0.0,0.0,0.0,1.0,0.0,0.0,0.0,1.0
1463923491908576997,440,1463923491871353094,,16.340341568,26.2566757202,112.621780396,0.0197090003639,1.0,0.0,0.0,0.0,1.0,0.0,0.0,0.0,1.0,192.378051758,-42.682926178,-9.93902492523,1.0,0.0,0.0,0.0,1.0,0.0,0.0,0.0,1.0,15.4952731445,-18.4161991699,12.9239005615,1.0,0.0,0.0,0.0,1.0,0.0,0.0,0.0,1.0
1463923491908954288,441,1463923491890462856,,16.807062149,26.1594238281,112.150970459,0.0204719994217,1.0,0.0,0.0,0.0,1.0,0.0,0.0,0.0,1.0,49.817073822,-0.243902444839,-7.07317113876,1.0,0.0,0.0,0.0,1.0,0.0,0.0,0.0,1.0,-1.01992990723,-11.7411649414,-0.742202514648,1.0,0.0,0.0,0.0,1.0,0.0,0.0,0.0,1.0
1463923491954368833,442,1463923491910829175,,15.9997797012,27.5604877472,111.114395142,0.0203419998288,1.0,0.0,0.0,0.0,1.0,0.0,0.0,0.0,1.0,77.3780517578,-44.0243911743,-32.682926178,1.0,0.0,0.0,0.0,1.0,0.0,0.0,0.0,1.0,1.04866025408,5.03740029297,7.52258161621,1.0,0.0,0.0,0.0,1.0,0.0,0.0,0.0,1.0
1463923491954430603,443,1463923491931083464,,14.3175086975,31.9547481537,109.426139832,0.0204520002007,1.0,0.0,0.0,0.0,1.0,0.0,0.0,0.0,1.0,247.743896484,-103.841468811,-26.8292694092,1.0,0.0,0.0,0.0,1.0,0.0,0.0,0.0,1.0,-1.77170922852,12.2295820801,39.5665766357,1.0,0.0,0.0,0.0,1.0,0.0,0.0,0.0,1.0
1463923491992235702,444,1463923491951591814,,14.7336835861,31.4464988708,108.790718079,0.0204130001366,1.0,0.0,0.0,0.0,1.0,0.0,0.0,0.0,1.0,25.4878044128,-16.9512195587,-11.0365858078,1.0,0.0,0.0,0.0,1.0,0.0,0.0,0.0,1.0,-6.80432111816,-27.581203125,-3.30878669434,1.0,0.0,0.0,0.0,1.0,0.0,0.0,0.0,1.0
1463923491992514711,445,1463923491971966206,,13.9833421707,29.8786792755,108.107528687,0.0205819997936,1.0,0.0,0.0,0.0,1.0,0.0,0.0,0.0,1.0,-27.2560977936,-40.1219520569,-0.18292683363,1.0,0.0,0.0,0.0,1.0,0.0,0.0,0.0,1.0,-0.363918652344,-6.6702458252,25.5844389404,1.0,0.0,0.0,0.0,1.0,0.0,0.0,0.0,1.0
1463923492038809305,446,1463923491992184348,,13.0162744522,28.0504379272,107.222930908,0.0202019996941,1.0,0.0,0.0,0.0,1.0,0.0,0.0,0.0,1.0,-36.5243911743,-50.365852356,-7.19512224197,1.0,0.0,0.0,0.0,1.0,0.0,0.0,0.0,1.0,3.43807358398,-11.4825911621,29.4774108398,1.0,0.0,0.0,0.0,1.0,0.0,0.0,0.0,1.0
1463923492038846076,447,1463923492013016134,,12.5875062943,28.6903896332,105.988929749,0.0205179993063,1.0,0.0,0.0,0.0,1.0,0.0,0.0,0.0,1.0,74.2073135376,-68.7195129395,-20.2439022064,1.0,0.0,0.0,0.0,1.0,0.0,0.0,0.0,1.0,-6.7660138916,-26.6139456543,-15.2079689453,1.0,0.0,0.0,0.0,1.0,0.0,0.0,0.0,1.0
1463923492076259353,448,1463923492033975888,,12.8146905899,24.6797428131,106.056350708,0.0202900003642,1.0,0.0,0.0,0.0,1.0,0.0,0.0,0.0,1.0,-244.146362305,-8.41463470459,-1.70731711388,1.0,0.0,0.0,0.0,1.0,0.0,0.0,0.0,1.0,-1.20188930646,8.66701059429,-15.7969425537,1.0,0.0,0.0,0.0,1.0,0.0,0.0,0.0,1.0
1463923492077509817,449,1463923492053687419,,11.1466875076,30.7970161438,104.933204651,0.0203930009156,1.0,0.0,0.0,0.0,1.0,0.0,0.0,0.0,1.0,360.365875244,-74.5731735229,-6.0365858078,1.0,0.0,0.0,0.0,1.0,0.0,0.0,0.0,1.0,8.49941647808,-13.7666595459,4.63038601074,1.0,0.0,0.0,0.0,1.0,0.0,0.0,0.0,1.0
1463923492112825916,450,1463923492073916186,,12.0298252106,25.9735851288,105.131332397,0.0205170009285,1.0,0.0,0.0,0.0,1.0,0.0,0.0,0.0,1.0,-256.036590576,-1.34146344662,10.6097564697,1.0,0.0,0.0,0.0,1.0,0.0,0.0,0.0,1.0,-18.880674292,11.7603185547,3.9121255127,1.0,0.0,0.0,0.0,1.0,0.0,0.0,0.0,1.0
1463923492114670648,451,1463923492094464588,,12.8474979401,30.9943943024,105.583992004,0.0203680004925,1.0,0.0,0.0,0.0,1.0,0.0,0.0,0.0,1.0,290.609771729,34.3292694092,18.5365848541,1.0,0.0,0.0,0.0,1.0,0.0,0.0,0.0,1.0,-1.92493813477,-20.4512705811,-1.61369191895,1.0,0.0,0.0,0.0,1.0,0.0,0.0,0.0,1.0
1463923492150716327,452,1463923492114823147,,12.5871219635,25.4202003479,105.258956909,0.0204240009189,1.0,0.0,0.0,0.0,1.0,0.0,0.0,0.0,1.0,-226.463424683,-10.1219511032,-0.243902444839,1.0,0.0,0.0,0.0,1.0,0.0,0.0,0.0,1.0,3.01190568848,-20.3650793213,60.439226709,1.0,0.0,0.0,0.0,1.0,0.0,0.0,0.0,1.0
1463923492151164502,453,1463923492135275924,,10.2961826324,27.6373443604,104.011138916,0.0203269999474,1.0,0.0,0.0,0.0,1.0,0.0,0.0,0.0,1.0,143.414642334,-98.3536605835,-10.1219511032,1.0,0.0,0.0,0.0,1.0,0.0,0.0,0.0,1.0,19.26853613,-0.129286889648,34.4477734863,1.0,0.0,0.0,0.0,1.0,0.0,0.0,0.0,1.0
1463923492263890895,454,1463923492155580421,,10.3748531342,22.2691841125,103.984848022,0.020488999784,1.0,0.0,0.0,0.0,1.0,0.0,0.0,0.0,1.0,-231.768295288,9.08536529541,1.64634156227,1.0,0.0,0.0,0.0,1.0,0.0,0.0,0.0,1.0,0.205901342773,-0.387860668945,5.88973608398,1.0,0.0,0.0,0.0,1.0,0.0,0.0,0.0,1.0
1463923492264149748,455,1463923492176119604,,10.3619709015,19.5201835632,103.718971252,0.0203920006752,1.0,0.0,0.0,0.0,1.0,0.0,0.0,0.0,1.0,-84.8780517578,-7.07317113876,0.609756112099,1.0,0.0,0.0,0.0,1.0,0.0,0.0,0.0,1.0,-4.44842668457,-28.4574809326,41.2473062012,1.0,0.0,0.0,0.0,1.0,0.0,0.0,0.0,1.0
1463923492264610319,456,1463923492196715088,,10.6145334244,18.3677310944,103.90776062,0.0203579999506,1.0,0.0,0.0,0.0,1.0,0.0,0.0,0.0,1.0,-109.207321167,5.36585378647,0.304878056049,1.0,0.0,0.0,0.0,1.0,0.0,0.0,0.0,1.0,-1.14442839355,15.9070758301,0.31124621582,1.0,0.0,0.0,0.0,1.0,0.0,0.0,0.0,1.0
1463923492265276566,457,1463923492216983856,,9.44877243042,22.9701976776,103.606788635,0.0204019993544,1.0,0.0,0.0,0.0,1.0,0.0,0.0,0.0,1.0,274.146362305,-40.7926826477,12.3170728683,1.0,0.0,0.0,0.0,1.0,0.0,0.0,0.0,1.0,5.61200869141,-10.5488525146,-1.20188930646,1.0,0.0,0.0,0.0,1.0,0.0,0.0,0.0,1.0
1463923492332555237,458,1463923492237905589,,9.3052854538,20.588848114,103.418289185,0.0204210001975,1.0,0.0,0.0,0.0,1.0,0.0,0.0,0.0,1.0,-74.7561035156,-13.658536911,5.12195110321,1.0,0.0,0.0,0.0,1.0,0.0,0.0,0.0,1.0,-3.01190568848,-8.74362446289,21.6100641846,1.0,0.0,0.0,0.0,1.0,0.0,0.0,0.0,1.0
1463923492333209401,459,1463923492258109670,,9.4958896637,20.0849952698,103.072364807,0.0205370001495,1.0,0.0,0.0,0.0,1.0,0.0,0.0,0.0,1.0,-73.7804870605,-8.96341514587,-21.158536911,1.0,0.0,0.0,0.0,1.0,0.0,0.0,0.0,1.0,-0.110133276367,14.5998417236,-11.8704518311,1.0,0.0,0.0,0.0,1.0,0.0,0.0,0.0,1.0
1463923492333660024,460,1463923492278658228,,10.2872304916,20.8505306244,103.349258423,0.0202670004219,1.0,0.0,0.0,0.0,1.0,0.0,0.0,0.0,1.0,82.1951293945,38.8414649963,10.4878053665,1.0,0.0,0.0,0.0,1.0,0.0,0.0,0.0,1.0,1.58974990234,-14.1784622314,-3.69185895996,1.0,0.0,0.0,0.0,1.0,0.0,0.0,0.0,1.0
1463923492333986741,461,1463923492299464597,,11.6347951889,26.1778144836,103.76751709,0.0204140003771,1.0,0.0,0.0,0.0,1.0,0.0,0.0,0.0,1.0,242.56098938,69.9390258789,-9.20731735229,1.0,0.0,0.0,0.0,1.0,0.0,0.0,0.0,1.0,-2.26970317383,69.1158135254,89.8208694824,1.0,0.0,0.0,0.0,1.0,0.0,0.0,0.0,1.0
1463923492395948612,462,1463923492321602940,,13.3839159012,21.0644626617,103.728622437,0.0215060003102,1.0,0.0,0.0,0.0,1.0,0.0,0.0,0.0,1.0,-184.329269409,69.8170776367,-18.4146347046,1.0,0.0,0.0,0.0,1.0,0.0,0.0,0.0,1.0,-4.90811340332,-26.8581542236,26.7001369141,1.0,0.0,0.0,0.0,1.0,0.0,0.0,0.0,1.0
1463923492397513397,463,1463923492339846977,,13.0970115662,24.9163570404,103.336524963,0.0194039996713,1.0,0.0,0.0,0.0,1.0,0.0,0.0,0.0,1.0,161.768295288,-20.1219520569,-21.2804889679,1.0,0.0,0.0,0.0,1.0,0.0,0.0,0.0,1.0,2.35110588414,40.1316082275,13.1154366943,1.0,0.0,0.0,0.0,1.0,0.0,0.0,0.0,1.0
1463923492398349851,464,1463923492360043453,,12.4495506287,24.7603473663,101.349822998,0.0203040000051,1.0,0.0,0.0,0.0,1.0,0.0,0.0,0.0,1.0,62.9268302917,-66.4634170532,-59.6951255798,1.0,0.0,0.0,0.0,1.0,0.0,0.0,0.0,1.0,7.03895288086,-38.3694758057,-2.03028300781,1.0,0.0,0.0,0.0,1.0,0.0,0.0,0.0,1.0
1463923492398918078,465,1463923492380253054,,12.2049026489,22.6218223572,101.184913635,0.0204460006207,1.0,0.0,0.0,0.0,1.0,0.0,0.0,0.0,1.0,-134.878051758,3.7804877758,-16.8292694092,1.0,0.0,0.0,0.0,1.0,0.0,0.0,0.0,1.0,4.50588752441,10.0700121826,4.68784655832,1.0,0.0,0.0,0.0,1.0,0.0,0.0,0.0,1.0
1463923492713986627,466,1463923492400554061,,13.3596019745,23.6720161438,101.080093384,0.0203900001943,1.0,0.0,0.0,0.0,1.0,0.0,0.0,0.0,1.0,70.5487823486,-4.02439022064,2.01219511032,1.0,0.0,0.0,0.0,1.0,0.0,0.0,0.0,1.0,-7.00543405762,-2.60010300293,-0.344765039063,1.0,0.0,0.0,0.0,1.0,0.0,0.0,0.0,1.0
1463923492714318917,467,1463923492420811318,,14.2147397995,26.8511924744,101.039962769,0.0204169992357,1.0,0.0,0.0,0.0,1.0,0.0,0.0,0.0,1.0,106.707321167,8.65853691101,-18.2317085266,1.0,0.0,0.0,0.0,1.0,0.0,0.0,0.0,1.0,-12.9047469482,30.1621525146,-9.19852277832,1.0,0.0,0.0,0.0,1.0,0.0,0.0,0.0,1.0
1463923492714636051,468,1463923492441585864,,13.1908769608,28.0709857941,100.498138428,0.0203949995339,1.0,0.0,0.0,0.0,1.0,0.0,0.0,0.0,1.0,82.0731735229,-14.5121955872,-15.0609760284,1.0,0.0,0.0,0.0,1.0,0.0,0.0,0.0,1.0,11.9662198975,-0.0143652099609,8.80587370605,1.0,0.0,0.0,0.0,1.0,0.0,0.0,0.0,1.0
1463923492714934592,469,1463923492461802601,,10.9392671585,31.4737873077,98.6335983276,0.0204029995948,1.0,0.0,0.0,0.0,1.0,0.0,0.0,0.0,1.0,241.219512939,-150.0,-1.03658533096,1.0,0.0,0.0,0.0,1.0,0.0,0.0,0.0,1.0,-3.34230551758,-15.8687686035,7.0964137207,1.0,0.0,0.0,0.0,1.0,0.0,0.0,0.0,1.0
1463923492715246101,470,1463923492482206524,,11.1177692413,30.3915596008,97.7136535645,0.0204920005053,1.0,0.0,0.0,0.0,1.0,0.0,0.0,0.0,1.0,-11.8902444839,-26.158536911,-27.1341457367,1.0,0.0,0.0,0.0,1.0,0.0,0.0,0.0,1.0,-0.354341845703,-20.0394678955,-9.01177504883,1.0,0.0,0.0,0.0,1.0,0.0,0.0,0.0,1.0
1463923492715559016,471,1463923492502835707,,10.3635501862,29.5597057343,97.3798217773,0.0203269999474,1.0,0.0,0.0,0.0,1.0,0.0,0.0,0.0,1.0,-45.4878082275,-30.0000019073,-2.13414645195,1.0,0.0,0.0,0.0,1.0,0.0,0.0,0.0,1.0,1.62805712891,6.46913288574,7.79073220215,1.0,0.0,0.0,0.0,1.0,0.0,0.0,0.0,1.0
1463923492715852765,472,1463923492523004423,,10.6382331848,31.7874641418,96.8213195801,0.0204099994153,1.0,0.0,0.0,0.0,1.0,0.0,0.0,0.0,1.0,132.256103516,-27.6219520569,-10.4268293381,1.0,0.0,0.0,0.0,1.0,0.0,0.0,0.0,1.0,-7.49385119629,-19.8718737793,-17.7984939726,1.0,0.0,0.0,0.0,1.0,0.0,0.0,0.0,1.0
1463923492716139586,473,1463923492543505950,,11.1699132919,27.5696582794,96.8515167236,0.0204179994762,1.0,0.0,0.0,0.0,1.0,0.0,0.0,0.0,1.0,-157.743911743,13.4756097794,6.28048801422,1.0,0.0,0.0,0.0,1.0,0.0,0.0,0.0,1.0,-12.2631009033,-23.0322199707,37.2250474121,1.0,0.0,0.0,0.0,1.0,0.0,0.0,0.0,1.0
1463923492716459846,474,1463923492564096382,,12.3477125168,26.8017902374,96.4499130249,0.0204029995948,1.0,0.0,0.0,0.0,1.0,0.0,0.0,0.0,1.0,-48.1097602844,-9.45121955872,-18.0487823486,1.0,0.0,0.0,0.0,1.0,0.0,0.0,0.0,1.0,-14.2359230713,4.94163222656,0.320823022461,1.0,0.0,0.0,0.0,1.0,0.0,0.0,0.0,1.0
1463923492716759115,475,1463923492584308483,,10.3135814667,28.8422050476,95.1187438965,0.0203889999539,1.0,0.0,0.0,0.0,1.0,0.0,0.0,0.0,1.0,169.268295288,-117.134155273,5.12195110321,1.0,0.0,0.0,0.0,1.0,0.0,0.0,0.0,1.0,0.967257470703,-22.4193043457,9.73961235352,1.0,0.0,0.0,0.0,1.0,0.0,0.0,0.0,1.0
1463923492717807913,476,1463923492604381627,,10.5369939804,25.8530158997,95.5099487305,0.0204199999571,1.0,0.0,0.0,0.0,1.0,0.0,0.0,0.0,1.0,-115.487808228,15.3048791885,21.7682933807,1.0,0.0,0.0,0.0,1.0,0.0,0.0,0.0,1.0,-6.55532414551,-6.11000263672,42.7939604736,1.0,0.0,0.0,0.0,1.0,0.0,0.0,0.0,1.0
1463923492718215828,477,1463923492625097007,,10.2768220901,25.6800022125,94.9256973267,0.020408000797,1.0,0.0,0.0,0.0,1.0,0.0,0.0,0.0,1.0,53.0487823486,-18.1707305908,-9.08536529541,1.0,0.0,0.0,0.0,1.0,0.0,0.0,0.0,1.0,2.18830031738,-15.3468326416,8.84418093262,1.0,0.0,0.0,0.0,1.0,0.0,0.0,0.0,1.0
1463923492719064261,478,1463923492645755252,,10.2207746506,23.3014030457,94.6666259766,0.020524000749,1.0,0.0,0.0,0.0,1.0,0.0,0.0,0.0,1.0,-56.9512214661,-6.58536624908,2.5,1.0,0.0,0.0,0.0,1.0,0.0,0.0,0.0,1.0,1.01992990723,-24.9188508789,14.1688854248,1.0,0.0,0.0,0.0,1.0,0.0,0.0,0.0,1.0
1463923492719467385,479,1463923492665830635,,9.99164485931,22.9969654083,94.6605300903,0.0202980004251,1.0,0.0,0.0,0.0,1.0,0.0,0.0,0.0,1.0,-68.5975570679,-11.2195119858,-4.20731735229,1.0,0.0,0.0,0.0,1.0,0.0,0.0,0.0,1.0,2.69587106934,16.7354696045,-4.84107575684,1.0,0.0,0.0,0.0,1.0,0.0,0.0,0.0,1.0
1463923492721931853,480,1463923492686327110,,9.91985607147,25.7174701691,94.819519043,0.0203939992934,1.0,0.0,0.0,0.0,1.0,0.0,0.0,0.0,1.0,105.487808228,-1.58536589146,5.91463422775,1.0,0.0,0.0,0.0,1.0,0.0,0.0,0.0,1.0,-0.555454785156,13.1058598877,9.88326445312,1.0,0.0,0.0,0.0,1.0,0.0,0.0,0.0,1.0
1463923492722465549,481,1463923492707202177,,9.2630815506,28.3108692169,93.8962554932,0.0204550009221,1.0,0.0,0.0,0.0,1.0,0.0,0.0,0.0,1.0,157.926834106,-64.0243911743,-11.2804880142,1.0,0.0,0.0,0.0,1.0,0.0,0.0,0.0,1.0,-1.38384855957,-17.3388084229,-14.7482822266,1.0,0.0,0.0,0.0,1.0,0.0,0.0,0.0,1.0
1463923492904690603,482,1463923492727074227,,9.15589618683,27.6333770752,93.5549468994,0.0203900001943,1.0,0.0,0.0,0.0,1.0,0.0,0.0,0.0,1.0,23.658536911,-23.2317085266,5.24390268326,1.0,0.0,0.0,0.0,1.0,0.0,0.0,0.0,1.0,-2.67192905273,-8.69574042969,7.72369455566,1.0,0.0,0.0,0.0,1.0,0.0,0.0,0.0,1.0
1463923492905052060,483,1463923492747552942,,8.80832386017,29.3603401184,92.4728164673,0.0203840006143,1.0,0.0,0.0,0.0,1.0,0.0,0.0,0.0,1.0,121.524398804,-53.7195129395,-23.9024391174,1.0,0.0,0.0,0.0,1.0,0.0,0.0,0.0,1.0,-1.80522805176,-24.8039291992,-16.0172102755,1.0,0.0,0.0,0.0,1.0,0.0,0.0,0.0,1.0
1463923492905328986,484,1463923492768448790,,8.82630825043,25.7436256409,92.4854812622,0.0204140003771,1.0,0.0,0.0,0.0,1.0,0.0,0.0,0.0,1.0,-146.219512939,9.14634132385,2.31707310677,1.0,0.0,0.0,0.0,1.0,0.0,0.0,0.0,1.0,3.6535517334,-1.838746875,34.280177032,1.0,0.0,0.0,0.0,1.0,0.0,0.0,0.0,1.0
1463923492905624974,485,1463923492789578075,,11.0097694397,29.64412117,93.0084686279,0.0204089991748,1.0,0.0,0.0,0.0,1.0,0.0,0.0,0.0,1.0,135.487808228,86.0975646973,-24.9390239716,1.0,0.0,0.0,0.0,1.0,0.0,0.0,0.0,1.0,-7.57525405273,27.8158348877,-5.74129558105,1.0,0.0,0.0,0.0,1.0,0.0,0.0,0.0,1.0
1463923492905926900,486,1463923492810141945,,9.43658161163,30.693321228,91.7646331787,0.020428000018,1.0,0.0,0.0,0.0,1.0,0.0,0.0,0.0,1.0,117.682929993,-86.7073135376,-4.93902444839,1.0,0.0,0.0,0.0,1.0,0.0,0.0,0.0,1.0,4.67826975168,-18.282123877,10.5727945312,1.0,0.0,0.0,0.0,1.0,0.0,0.0,0.0,1.0
1463923492906278461,487,1463923492829686028,,9.70695018768,29.6044406891,91.4000701904,0.0203629992902,1.0,0.0,0.0,0.0,1.0,0.0,0.0,0.0,1.0,4.51219558716,-0.975609779358,-8.04878044128,1.0,0.0,0.0,0.0,1.0,0.0,0.0,0.0,1.0,-2.49475812988,-18.7130790067,19.0386927706,1.0,0.0,0.0,0.0,1.0,0.0,0.0,0.0,1.0
1463923492906566845,488,1463923492850295211,,9.57828426361,24.8048858643,92.2323150635,0.02054999955,1.0,0.0,0.0,0.0,1.0,0.0,0.0,0.0,1.0,-223.84147644,32.0731697083,31.6463413239,1.0,0.0,0.0,0.0,1.0,0.0,0.0,0.0,1.0,17.8511675781,10.8696755371,48.9039631104,1.0,0.0,0.0,0.0,1.0,0.0,0.0,0.0,1.0
1463923492906898406,489,1463923492870263511,,9.7283706665,26.1682262421,91.9626617432,0.0204399991781,1.0,0.0,0.0,0.0,1.0,0.0,0.0,0.0,1.0,15.6097564697,-18.7804889679,-13.9024391174,1.0,0.0,0.0,0.0,1.0,0.0,0.0,0.0,1.0,-4.73573059153,22.2517102295,-14.8871459229,1.0,0.0,0.0,0.0,1.0,0.0,0.0,0.0,1.0
1463923492957283035,490,1463923492890453320,,10.4506187439,25.6078624725,93.1909332275,0.0202750004828,1.0,0.0,0.0,0.0,1.0,0.0,0.0,0.0,1.0,17.317073822,46.5853691101,55.8536605835,1.0,0.0,0.0,0.0,1.0,0.0,0.0,0.0,1.0,-9.70130512695,-38.508339502,23.0034895508,1.0,0.0,0.0,0.0,1.0,0.0,0.0,0.0,1.0
1463923492957598502,491,1463923492910969274,,10.5730600357,23.9868755341,93.9475479126,0.0204160008579,1.0,0.0,0.0,0.0,1.0,0.0,0.0,0.0,1.0,-106.768295288,26.4634151459,25.0609760284,1.0,0.0,0.0,0.0,1.0,0.0,0.0,0.0,1.0,2.29843359375,18.3539499268,16.0890351562,1.0,0.0,0.0,0.0,1.0,0.0,0.0,0.0,1.0
1463923492968149967,492,1463923492931207990,,9.89231300354,27.2730579376,93.7199020386,0.0204029995948,1.0,0.0,0.0,0.0,1.0,0.0,0.0,0.0,1.0,159.573181152,-22.1341457367,0.0,1.0,0.0,0.0,0.0,1.0,0.0,0.0,0.0,1.0,10.0748005859,25.7663982666,46.3756861572,1.0,0.0,0.0,0.0,1.0,0.0,0.0,0.0,1.0
1463923492968214186,493,1463923492952197692,,9.10336017609,24.358663559,93.6385498047,0.0204390008003,1.0,0.0,0.0,0.0,1.0,0.0,0.0,0.0,1.0,-95.9146347046,-31.5853652954,21.341463089,1.0,0.0,0.0,0.0,1.0,0.0,0.0,0.0,1.0,1.42694418945,-16.6397015381,33.6864173584,1.0,0.0,0.0,0.0,1.0,0.0,0.0,0.0,1.0
1463923493019735788,494,1463923492972562969,,8.10311508179,28.8167724609,93.1834411621,0.0203939992934,1.0,0.0,0.0,0.0,1.0,0.0,0.0,0.0,1.0,260.0,-29.5121974945,-0.18292683363,1.0,0.0,0.0,0.0,1.0,0.0,0.0,0.0,1.0,8.77235488281,-6.8138979248,16.3859161621,1.0,0.0,0.0,0.0,1.0,0.0,0.0,0.0,1.0
1463923493020021621,495,1463923492992293406,,7.65264463425,24.8871555328,92.6622772217,0.0204240009189,1.0,0.0,0.0,0.0,1.0,0.0,0.0,0.0,1.0,-141.524398804,-28.9634151459,-4.63414621353,1.0,0.0,0.0,0.0,1.0,0.0,0.0,0.0,1.0,0.450109912109,-13.3548568604,26.4511399414,1.0,0.0,0.0,0.0,1.0,0.0,0.0,0.0,1.0
1463923493056976879,496,1463923493012821703,,7.78517246246,23.7093257904,92.6482543945,0.0204750001431,1.0,0.0,0.0,0.0,1.0,0.0,0.0,0.0,1.0,-8.41463470459,18.1707305908,-0.0609756112099,1.0,0.0,0.0,0.0,1.0,0.0,0.0,0.0,1.0,7.65186850586,-18.148048584,24.4256453369,1.0,0.0,0.0,0.0,1.0,0.0,0.0,0.0,1.0
1463923493057361357,497,1463923493033707291,,7.17901420593,21.4055576324,92.6068191528,0.0203620009124,1.0,0.0,0.0,0.0,1.0,0.0,0.0,0.0,1.0,-75.6707305908,-23.5975627899,15.0609760284,1.0,0.0,0.0,0.0,1.0,0.0,0.0,0.0,1.0,2.94965644531,-13.9390420654,47.6063058105,1.0,0.0,0.0,0.0,1.0,0.0,0.0,0.0,1.0
1463923493094992029,498,1463923493053832778,,7.30722665787,19.4707889557,92.5848770142,0.0203460007906,1.0,0.0,0.0,0.0,1.0,0.0,0.0,0.0,1.0,-51.5243911743,-30.6097583771,19.2073173523,1.0,0.0,0.0,0.0,1.0,0.0,0.0,0.0,1.0,-4.31435168386,-6.07648381348,-0.0957680664062,1.0,0.0,0.0,0.0,1.0,0.0,0.0,0.0,1.0
1463923493095296195,499,1463923493074355295,,7.26998806,21.9843215942,93.0503768921,0.020408000797,1.0,0.0,0.0,0.0,1.0,0.0,0.0,0.0,1.0,87.8048782349,-10.0609760284,25.5487804413,1.0,0.0,0.0,0.0,1.0,0.0,0.0,0.0,1.0,-3.73016618652,15.8879222168,-51.2023967041,1.0,0.0,0.0,0.0,1.0,0.0,0.0,0.0,1.0
1463923493136624820,500,1463923493094881821,,7.71424531937,17.6299037933,92.9944229126,0.0204579997808,1.0,0.0,0.0,0.0,1.0,0.0,0.0,0.0,1.0,-161.524398804,12.0121955872,2.37804889679,1.0,0.0,0.0,0.0,1.0,0.0,0.0,0.0,1.0,-0.737414111328,-33.6912034236,-2.92092602539,1.0,0.0,0.0,0.0,1.0,0.0,0.0,0.0,1.0
1463923493136935392,501,1463923493115908502,,8.27560806274,19.6784038544,93.289024353,0.0204649996012,1.0,0.0,0.0,0.0,1.0,0.0,0.0,0.0,1.0,52.0121955872,19.7560977936,4.14634132385,1.0,0.0,0.0,0.0,1.0,0.0,0.0,0.0,1.0,-1.74776721191,13.0005150146,3.30878669434,1.0,0.0,0.0,0.0,1.0,0.0,0.0,0.0,1.0
1463923493176230692,502,1463923493135230920,,7.70589590073,25.8821716309,92.970664978,0.0203450005502,1.0,0.0,0.0,0.0,1.0,0.0,0.0,0.0,1.0,332.561004639,4.20731735229,-10.0609760284,1.0,0.0,0.0,0.0,1.0,0.0,0.0,0.0,1.0,12.8089788818,-8.17859287109,-3.17949980469,1.0,0.0,0.0,0.0,1.0,0.0,0.0,0.0,1.0
1463923493176589232,503,1463923493155753488,,6.28677988052,21.4108371735,92.3750076294,0.0203399993479,1.0,0.0,0.0,0.0,1.0,0.0,0.0,0.0,1.0,-178.353652954,-67.1951217651,4.81707286835,1.0,0.0,0.0,0.0,1.0,0.0,0.0,0.0,1.0,3.69664736328,-7.18260498047,25.6945722168,1.0,0.0,0.0,0.0,1.0,0.0,0.0,0.0,1.0
1463923493217804681,504,1463923493176475275,,5.59618711472,21.9737281799,91.5986709595,0.0205279998481,1.0,0.0,0.0,0.0,1.0,0.0,0.0,0.0,1.0,-18.475610733,-66.7682952881,-17.5609760284,1.0,0.0,0.0,0.0,1.0,0.0,0.0,0.0,1.0,-4.17548740305,13.3069728271,-12.6796919922,1.0,0.0,0.0,0.0,1.0,0.0,0.0,0.0,1.0
1463923493217869368,505,1463923493196900344,,3.17200875282,23.9047088623,90.3901748657,0.0203040000051,1.0,0.0,0.0,0.0,1.0,0.0,0.0,0.0,1.0,151.097564697,-125.853660583,-3.10975623131,1.0,0.0,0.0,0.0,1.0,0.0,0.0,0.0,1.0,6.11479104004,-23.5924631592,25.7089374268,1.0,0.0,0.0,0.0,1.0,0.0,0.0,0.0,1.0
1463923493281809668,506,1463923493216794633,,2.72155594826,19.9792690277,90.5073928833,0.0203980002552,1.0,0.0,0.0,0.0,1.0,0.0,0.0,0.0,1.0,-136.89024353,-34.7560997009,26.3414649963,1.0,0.0,0.0,0.0,1.0,0.0,0.0,0.0,1.0,-3.48595761719,-12.8041904785,6.81868632812,1.0,0.0,0.0,0.0,1.0,0.0,0.0,0.0,1.0
1463923493282976642,507,1463923493237075172,,0.857703983784,21.847486496,90.3256988525,0.0204109996557,1.0,0.0,0.0,0.0,1.0,0.0,0.0,0.0,1.0,45.5487823486,-75.1219558716,19.6341457367,1.0,0.0,0.0,0.0,1.0,0.0,0.0,0.0,1.0,9.16500395508,15.2654297852,-15.0355864258,1.0,0.0,0.0,0.0,1.0,0.0,0.0,0.0,1.0
1463923493321600019,508,1463923493257377897,,-1.35123491287,24.6143341064,90.327583313,0.0204060003161,1.0,0.0,0.0,0.0,1.0,0.0,0.0,0.0,1.0,192.378051758,-97.3170776367,45.3048782349,1.0,0.0,0.0,0.0,1.0,0.0,0.0,0.0,1.0,3.49074602051,-20.9779949463,11.9327010742,1.0,0.0,0.0,0.0,1.0,0.0,0.0,0.0,1.0
1463923493321644706,509,1463923493279652021,,-2.21198272705,23.1300563812,90.6290740967,0.0204050000757,1.0,0.0,0.0,0.0,1.0,0.0,0.0,0.0,1.0,-64.5121917725,-38.2317085266,35.0000038147,1.0,0.0,0.0,0.0,1.0,0.0,0.0,0.0,1.0,-0.488417138672,-13.0723410645,-21.2748759521,1.0,0.0,0.0,0.0,1.0,0.0,0.0,0.0,1.0
1463923493331130395,510,1463923493298948188,,-2.91527080536,22.7688770294,91.2531661987,0.0204140003771,1.0,0.0,0.0,0.0,1.0,0.0,0.0,0.0,1.0,-8.96341514587,-23.7804889679,45.1219520569,1.0,0.0,0.0,0.0,1.0,0.0,0.0,0.0,1.0,-0.114921679688,-26.2308733887,-46.1219007812,1.0,0.0,0.0,0.0,1.0,0.0,0.0,0.0,1.0
1463923493331531383,511,1463923493323888915,,-3.54998993874,24.5965099335,92.0716934204,0.0209439992905,1.0,0.0,0.0,0.0,1.0,0.0,0.0,0.0,1.0,51.3414649963,8.35365867615,43.5975608826,1.0,0.0,0.0,0.0,1.0,0.0,0.0,0.0,1.0,5.47314499512,8.92079538574,2.10689731481,1.0,0.0,0.0,0.0,1.0,0.0,0.0,0.0,1.0
1463923493379666802,512,1463923493342218160,,-3.00940394402,26.6355361938,92.3005065918,0.0230529997498,1.0,0.0,0.0,0.0,1.0,0.0,0.0,0.0,1.0,99.0853652954,-27.2560977936,24.3902435303,1.0,0.0,0.0,0.0,1.0,0.0,0.0,0.0,1.0,-5.31991608887,-1.62326872559,-1.36469494629,1.0,0.0,0.0,0.0,1.0,0.0,0.0,0.0,1.0
1463923493379717114,513,1463923493359423347,,-3.08567023277,23.8415184021,92.7722930908,0.017216000706,1.0,0.0,0.0,0.0,1.0,0.0,0.0,0.0,1.0,-122.317070007,2.07317066193,28.9024410248,1.0,0.0,0.0,0.0,1.0,0.0,0.0,0.0,1.0,1.63763393555,-6.85220515137,26.0537024658,1.0,0.0,0.0,0.0,1.0,0.0,0.0,0.0,1.0
1463923493411410937,514,1463923493379837061,,-3.29143404961,21.8962516785,93.4824066162,0.0204060003161,1.0,0.0,0.0,0.0,1.0,0.0,0.0,0.0,1.0,-83.4756088257,7.25609779358,36.0365867615,1.0,0.0,0.0,0.0,1.0,0.0,0.0,0.0,1.0,14.0060797119,15.3420442383,58.2892336182,1.0,0.0,0.0,0.0,1.0,0.0,0.0,0.0,1.0
1463923493411474843,515,1463923493400359057,,-3.11743617058,18.1900119781,94.0204620361,0.0204319991171,1.0,0.0,0.0,0.0,1.0,0.0,0.0,0.0,1.0,-159.268295288,-4.57317066193,31.5243930817,1.0,0.0,0.0,0.0,1.0,0.0,0.0,0.0,1.0,-9.40442353657,0.670376464844,37.8235978271,1.0,0.0,0.0,0.0,1.0,0.0,0.0,0.0,1.0
1463923493448213748,516,1463923493423435260,,-2.57802700996,15.9418821335,95.2981567383,0.0231299996376,1.0,0.0,0.0,0.0,1.0,0.0,0.0,0.0,1.0,-64.2073135376,34.3902435303,48.1097602844,1.0,0.0,0.0,0.0,1.0,0.0,0.0,0.0,1.0,1.33596452637,-3.4189199707,14.9350299561,1.0,0.0,0.0,0.0,1.0,0.0,0.0,0.0,1.0
1463923493448264373,517,1463923493441105654,,-2.87381672859,19.8541049957,95.540222168,0.0176739990711,1.0,0.0,0.0,0.0,1.0,0.0,0.0,0.0,1.0,227.073181152,-2.86585378647,18.4146347046,1.0,0.0,0.0,0.0,1.0,0.0,0.0,0.0,1.0,17.9182052246,11.3724578857,53.2614101318,1.0,0.0,0.0,0.0,1.0,0.0,0.0,0.0,1.0
1463923493488566753,518,1463923493461614212,,-2.82476997375,18.6245803833,95.8703155518,0.0204070005566,1.0,0.0,0.0,0.0,1.0,0.0,0.0,0.0,1.0,-19.3902435303,16.2195110321,11.7073173523,1.0,0.0,0.0,0.0,1.0,0.0,0.0,0.0,1.0,5.88973608398,-20.8343428467,-9.58638403179,1.0,0.0,0.0,0.0,1.0,0.0,0.0,0.0,1.0
1463923493488881543,519,1463923493481942979,,-3.38526988029,13.9446659088,96.5394363403,0.0204150006175,1.0,0.0,0.0,0.0,1.0,0.0,0.0,0.0,1.0,-195.67074585,-9.02439117432,37.3780517578,1.0,0.0,0.0,0.0,1.0,0.0,0.0,0.0,1.0,9.22246479492,-8.00142194824,27.3513597656,1.0,0.0,0.0,0.0,1.0,0.0,0.0,0.0,1.0
1463923493553719964,520,1463923493502378308,,-3.78904032707,12.6474065781,97.1221389771,0.0204189997166,1.0,0.0,0.0,0.0,1.0,0.0,0.0,0.0,1.0,-24.6951236725,-15.6097564697,33.9024391174,1.0,0.0,0.0,0.0,1.0,0.0,0.0,0.0,1.0,4.16591059641,-16.7929304443,34.8164782039,1.0,0.0,0.0,0.0,1.0,0.0,0.0,0.0,1.0
1463923493555567300,521,1463923493522871710,,-3.72278809547,12.6435880661,97.5788497925,0.0203980002552,1.0,0.0,0.0,0.0,1.0,0.0,0.0,0.0,1.0,-19.3902435303,-2.25609779358,28.1707324982,1.0,0.0,0.0,0.0,1.0,0.0,0.0,0.0,1.0,-0.512359155273,11.0660000732,15.576676001,1.0,0.0,0.0,0.0,1.0,0.0,0.0,0.0,1.0
1463923493642006357,522,1463923493543272248,,-2.68629074097,11.2022123337,98.0799636841,0.0204310007393,1.0,0.0,0.0,0.0,1.0,0.0,0.0,0.0,1.0,-21.9512195587,45.7926826477,15.6097564697,1.0,0.0,0.0,0.0,1.0,0.0,0.0,0.0,1.0,-0.296881024126,-26.3793138916,29.300239917,1.0,0.0,0.0,0.0,1.0,0.0,0.0,0.0,1.0
1463923493642319429,523,1463923493563666275,,-2.52902770042,9.45324039459,99.1522979736,0.0203770007938,1.0,0.0,0.0,0.0,1.0,0.0,0.0,0.0,1.0,-63.4756088257,10.9146347046,53.9634170532,1.0,0.0,0.0,0.0,1.0,0.0,0.0,0.0,1.0,6.57926616211,-22.7688577881,156.901611597,1.0,0.0,0.0,0.0,1.0,0.0,0.0,0.0,1.0
1463923493643817808,524,1463923493584049886,,-3.58588171005,9.16091823578,99.7165527344,0.0204189997166,1.0,0.0,0.0,0.0,1.0,0.0,0.0,0.0,1.0,-60.3658561707,-37.8048782349,39.9390258789,1.0,0.0,0.0,0.0,1.0,0.0,0.0,0.0,1.0,4.29040966726,14.0874825684,-10.8553103271,1.0,0.0,0.0,0.0,1.0,0.0,0.0,0.0,1.0
1463923493644086244,525,1463923493604444122,,-3.54888105392,7.48542976379,99.5965194702,0.0204249992967,1.0,0.0,0.0,0.0,1.0,0.0,0.0,0.0,1.0,-38.9024391174,-8.41463470459,-3.53658556938,1.0,0.0,0.0,0.0,1.0,0.0,0.0,0.0,1.0,-4.96078583984,-42.8657865234,-26.5995804443,1.0,0.0,0.0,0.0,1.0,0.0,0.0,0.0,1.0
1463923493710092160,526,1463923493624920389,,-5.53787755966,10.0132799149,99.2332611084,0.0203879997134,1.0,0.0,0.0,0.0,1.0,0.0,0.0,0.0,1.0,173.10975647,-95.7317123413,-2.25609779358,1.0,0.0,0.0,0.0,1.0,0.0,0.0,0.0,1.0,5.58327827148,-36.147654327,-13.6469494629,1.0,0.0,0.0,0.0,1.0,0.0,0.0,0.0,1.0
1463923493710386846,527,1463923493645390041,,-2.93663191795,10.2661571503,100.723083496,0.0205419994891,1.0,0.0,0.0,0.0,1.0,0.0,0.0,0.0,1.0,-32.7439041138,125.975608826,59.3292732239,1.0,0.0,0.0,0.0,1.0,0.0,0.0,0.0,1.0,-3.12682736816,16.6875855713,-10.6541973877,1.0,0.0,0.0,0.0,1.0,0.0,0.0,0.0,1.0
1463923493710659605,528,1463923493665612871,,-0.687922418118,14.070101738,103.072746277,0.0202730000019,1.0,0.0,0.0,0.0,1.0,0.0,0.0,0.0,1.0,161.89024353,164.878051758,88.841468811,1.0,0.0,0.0,0.0,1.0,0.0,0.0,0.0,1.0,16.6444887724,11.3054202393,-16.2901480957,1.0,0.0,0.0,0.0,1.0,0.0,0.0,0.0,1.0
1463923493711161530,529,1463923493686077419,,0.743510425091,13.4318313599,104.403503418,0.0204140003771,1.0,0.0,0.0,0.0,1.0,0.0,0.0,0.0,1.0,16.9512195587,86.9512252808,48.1097602844,1.0,0.0,0.0,0.0,1.0,0.0,0.0,0.0,1.0,3.38061274414,-19.6468188232,-6.56490095215,1.0,0.0,0.0,0.0,1.0,0.0,0.0,0.0,1.0
1463923493728035469,530,1463923493706362749,,3.17840886116,15.5738430023,104.927528381,0.0203820001334,1.0,0.0,0.0,0.0,1.0,0.0,0.0,0.0,1.0,50.9146347046,122.317070007,-2.74390244484,1.0,0.0,0.0,0.0,1.0,0.0,0.0,0.0,1.0,5.50666381836,42.5880591309,-22.7927998047,1.0,0.0,0.0,0.0,1.0,0.0,0.0,0.0,1.0
1463923493729625097,531,1463923493727663074,,6.37280321121,11.2138471603,106.175163269,0.0212600007653,1.0,0.0,0.0,0.0,1.0,0.0,0.0,0.0,1.0,-155.121948242,158.597564697,28.3536586761,1.0,0.0,0.0,0.0,1.0,0.0,0.0,0.0,1.0,4.93205541992,-59.9891167969,-1.2737152832,1.0,0.0,0.0,0.0,1.0,0.0,0.0,0.0,1.0
1463923493754428689,532,1463923493751907450,,8.81422138214,13.9360208511,107.013847351,0.0195649992675,1.0,0.0,0.0,0.0,1.0,0.0,0.0,0.0,1.0,79.0853652954,117.621955872,13.9024391174,1.0,0.0,0.0,0.0,1.0,0.0,0.0,0.0,1.0,-4.61123239746,34.9266138184,-3.21301862793,1.0,0.0,0.0,0.0,1.0,0.0,0.0,0.0,1.0
1463923493779407280,533,1463923493773363035,,11.3392105103,11.6741876602,108.427734375,0.0205039996654,1.0,0.0,0.0,0.0,1.0,0.0,0.0,0.0,1.0,-91.4634170532,144.024398804,44.4512176514,1.0,0.0,0.0,0.0,1.0,0.0,0.0,0.0,1.0,11.6118780518,-31.617827124,94.5661771729,1.0,0.0,0.0,0.0,1.0,0.0,0.0,0.0,1.0
1463923493798426105,534,1463923493789527237,,12.9828090668,15.2609453201,108.148002625,0.0204429998994,1.0,0.0,0.0,0.0,1.0,0.0,0.0,0.0,1.0,127.378051758,80.3048858643,-40.1219520569,1.0,0.0,0.0,0.0,1.0,0.0,0.0,0.0,1.0,4.73094218821,25.5365549072,2.37025978969,1.0,0.0,0.0,0.0,1.0,0.0,0.0,0.0,1.0
1463923493811225998,535,1463923493808963143,,13.8085689545,18.4289398193,108.410858154,0.0202879998833,1.0,0.0,0.0,0.0,1.0,0.0,0.0,0.0,1.0,203.109771729,57.4390220642,10.9146347046,1.0,0.0,0.0,0.0,1.0,0.0,0.0,0.0,1.0,7.21133540039,-22.7736461914,19.2158625244,1.0,0.0,0.0,0.0,1.0,0.0,0.0,0.0,1.0
1463923493837003336,536,1463923493829272379,,15.748257637,14.5265550613,109.049583435,0.0203970000148,1.0,0.0,0.0,0.0,1.0,0.0,0.0,0.0,1.0,-186.219512939,112.439025879,3.59756112099,1.0,0.0,0.0,0.0,1.0,0.0,0.0,0.0,1.0,1.87226569824,2.03507141113,20.3411373047,1.0,0.0,0.0,0.0,1.0,0.0,0.0,0.0,1.0
1463923493854317793,537,1463923493850709371,,16.2909622192,16.6428070068,108.283309937,0.0213169995695,1.0,0.0,0.0,0.0,1.0,0.0,0.0,0.0,1.0,147.926834106,-23.475610733,-15.7317075729,1.0,0.0,0.0,0.0,1.0,0.0,0.0,0.0,1.0,-7.34541069336,-10.8026378906,-4.09887324219,1.0,0.0,0.0,0.0,1.0,0.0,0.0,0.0,1.0
1463923493883838292,538,1463923493871496001,,17.4869880676,15.4520101547,108.353797913,0.02016899921,1.0,0.0,0.0,0.0,1.0,0.0,0.0,0.0,1.0,-58.6585388184,58.1097564697,-10.2439022064,1.0,0.0,0.0,0.0,1.0,0.0,0.0,0.0,1.0,-6.18661708984,9.71088193359,33.0016756836,1.0,0.0,0.0,0.0,1.0,0.0,0.0,0.0,1.0
1463923493899709474,539,1463923493891585863,,18.9281196594,13.3674411774,108.364616394,0.0197519995272,1.0,0.0,0.0,0.0,1.0,0.0,0.0,0.0,1.0,-79.1463470459,68.2926864624,-5.48780488968,1.0,0.0,0.0,0.0,1.0,0.0,0.0,0.0,1.0,-11.8896054443,-10.9223479736,44.9200115479,1.0,0.0,0.0,0.0,1.0,0.0,0.0,0.0,1.0
1463923493933479434,540,1463923493914638108,,20.2088489532,9.44709682465,109.022460938,0.0204050000757,1.0,0.0,0.0,0.0,1.0,0.0,0.0,0.0,1.0,-189.756103516,73.1097564697,23.5975627899,1.0,0.0,0.0,0.0,1.0,0.0,0.0,0.0,1.0,-5.32949289551,0.0239420166016,38.6855080867,1.0,0.0,0.0,0.0,1.0,0.0,0.0,0.0,1.0
1463923493947001407,541,1463923493931311474,,21.0864257812,6.93006944656,108.445526123,0.0205049999058,1.0,0.0,0.0,0.0,1.0,0.0,0.0,0.0,1.0,-61.0365905762,52.2560997009,-11.5243911743,1.0,0.0,0.0,0.0,1.0,0.0,0.0,0.0,1.0,3.30878669434,-11.6406084717,3.59609089355,1.0,0.0,0.0,0.0,1.0,0.0,0.0,0.0,1.0
1463923493959716613,542,1463923493951677221,,21.4767875671,8.13246154785,108.647247314,0.020312000066,1.0,0.0,0.0,0.0,1.0,0.0,0.0,0.0,1.0,48.4146347046,49.0243911743,3.7804877758,1.0,0.0,0.0,0.0,1.0,0.0,0.0,0.0,1.0,3.58172568359,3.23696064453,10.9319247803,1.0,0.0,0.0,0.0,1.0,0.0,0.0,0.0,1.0
1463923493979889861,543,1463923493971826562,,22.5878124237,9.53180789948,108.971374512,0.0203990004957,1.0,0.0,0.0,0.0,1.0,0.0,0.0,0.0,1.0,17.0121955872,43.9634170532,-7.01219511032,1.0,0.0,0.0,0.0,1.0,0.0,0.0,0.0,1.0,0.541089611728,4.15633378977,-2.92092602539,1.0,0.0,0.0,0.0,1.0,0.0,0.0,0.0,1.0
1463923493997819315,544,1463923493992461890,,23.2714233398,11.9353933334,109.290740967,0.0204450003803,1.0,0.0,0.0,0.0,1.0,0.0,0.0,0.0,1.0,67.0121994019,33.2317085266,-7.50000047684,1.0,0.0,0.0,0.0,1.0,0.0,0.0,0.0,1.0,-1.10133276367,14.1497318115,4.93205541992,1.0,0.0,0.0,0.0,1.0,0.0,0.0,0.0,1.0
1463923494016609026,545,1463923494012876647,,22.9848098755,13.2827749252,109.194137573,0.0203939992934,1.0,0.0,0.0,0.0,1.0,0.0,0.0,0.0,1.0,108.10975647,17.7439022064,12.6219520569,1.0,0.0,0.0,0.0,1.0,0.0,0.0,0.0,1.0,21.2652991455,-23.3147357666,6.6702458252,1.0,0.0,0.0,0.0,1.0,0.0,0.0,0.0,1.0
1463923494035291030,546,1463923494033197914,,25.2831707001,13.7840433121,109.4792099,0.0203859992325,1.0,0.0,0.0,0.0,1.0,0.0,0.0,0.0,1.0,-24.4512195587,81.4634170532,-22.8048782349,1.0,0.0,0.0,0.0,1.0,0.0,0.0,0.0,1.0,-6.47392128906,21.8494843506,-20.1400243652,1.0,0.0,0.0,0.0,1.0,0.0,0.0,0.0,1.0
1463923494054517927,547,1463923494053477567,,26.2407360077,15.498134613,110.101112366,0.0204070005566,1.0,0.0,0.0,0.0,1.0,0.0,0.0,0.0,1.0,107.621955872,72.0731735229,30.4268321991,1.0,0.0,0.0,0.0,1.0,0.0,0.0,0.0,1.0,8.99262143555,-49.8616437744,84.4674345703,1.0,0.0,0.0,0.0,1.0,0.0,0.0,0.0,1.0
1463923494086320812,548,1463923494074004354,,27.5090656281,15.5132713318,110.432014465,0.0206269994378,1.0,0.0,0.0,0.0,1.0,0.0,0.0,0.0,1.0,-54.5121955872,36.7682952881,-17.6219520569,1.0,0.0,0.0,0.0,1.0,0.0,0.0,0.0,1.0,-9.1458503418,33.3655919978,-12.2631009033,1.0,0.0,0.0,0.0,1.0,0.0,0.0,0.0,1.0
1463923494104591307,549,1463923494094483798,,26.8043727875,13.061211586,108.047073364,0.0205160006881,1.0,0.0,0.0,0.0,1.0,0.0,0.0,0.0,1.0,-23.1707324982,-64.9390258789,-63.4756088257,1.0,0.0,0.0,0.0,1.0,0.0,0.0,0.0,1.0,8.97825622559,-60.3099398193,-17.2526171631,1.0,0.0,0.0,0.0,1.0,0.0,0.0,0.0,1.0
1463923494162200644,550,1463923494119306452,,28.3995876312,10.0642614365,108.548927307,0.021268999204,1.0,0.0,0.0,0.0,1.0,0.0,0.0,0.0,1.0,-160.792694092,65.1219558716,6.52439069748,1.0,0.0,0.0,0.0,1.0,0.0,0.0,0.0,1.0,8.42758925923,-0.46447512207,-22.6395708984,1.0,0.0,0.0,0.0,1.0,0.0,0.0,0.0,1.0
1463923494164780685,551,1463923494136206848,,30.337480545,13.5988912582,109.723022461,0.0193310007453,1.0,0.0,0.0,0.0,1.0,0.0,0.0,0.0,1.0,125.792686462,120.853660583,16.7682933807,1.0,0.0,0.0,0.0,1.0,0.0,0.0,0.0,1.0,-2.59052619629,51.7817935059,51.5471617432,1.0,0.0,0.0,0.0,1.0,0.0,0.0,0.0,1.0
1463923494212430481,552,1463923494163672929,,31.2256755829,14.0979290009,108.775436401,0.0203380007297,1.0,0.0,0.0,0.0,1.0,0.0,0.0,0.0,1.0,53.6585388184,20.5487823486,-40.3048782349,1.0,0.0,0.0,0.0,1.0,0.0,0.0,0.0,1.0,6.4595560791,-4.97993945312,-14.4322476074,1.0,0.0,0.0,0.0,1.0,0.0,0.0,0.0,1.0
1463923494212468554,553,1463923494183072273,,31.9719524384,12.4140176773,107.810592651,0.0205729994923,1.0,0.0,0.0,0.0,1.0,0.0,0.0,0.0,1.0,-8.47560977936,20.6097564697,-12.1951217651,1.0,0.0,0.0,0.0,1.0,0.0,0.0,0.0,1.0,-0.847547387695,-13.7666595459,1.40779057617,1.0,0.0,0.0,0.0,1.0,0.0,0.0,0.0,1.0
1463923494212503814,554,1463923494196409872,,33.5845451355,14.8961162567,107.991539001,0.02024500072,1.0,0.0,0.0,0.0,1.0,0.0,0.0,0.0,1.0,73.9024429321,62.865852356,-33.5365867615,1.0,0.0,0.0,0.0,1.0,0.0,0.0,0.0,1.0,4.24731403738,33.5092464355,-20.6763255371,1.0,0.0,0.0,0.0,1.0,0.0,0.0,0.0,1.0
1463923494263070994,555,1463923494218226394,,34.2864837646,10.1992092133,106.58391571,0.0203699991107,1.0,0.0,0.0,0.0,1.0,0.0,0.0,0.0,1.0,-144.512191772,29.6341457367,-29.8170719147,1.0,0.0,0.0,0.0,1.0,0.0,0.0,0.0,1.0,3.99831677246,-36.7366302734,11.5352635986,1.0,0.0,0.0,0.0,1.0,0.0,0.0,0.0,1.0
1463923494263193076,556,1463923494236845741,,33.6681518555,14.9320058823,106.666656494,0.0203920006752,1.0,0.0,0.0,0.0,1.0,0.0,0.0,0.0,1.0,215.548782349,2.25609779358,-3.29268312454,1.0,0.0,0.0,0.0,1.0,0.0,0.0,0.0,1.0,4.82671083914,11.1043072998,18.7944830322,1.0,0.0,0.0,0.0,1.0,0.0,0.0,0.0,1.0
1463923494289805567,557,1463923494257442945,,34.1491127014,11.5226993561,105.781394958,0.0205080006272,1.0,0.0,0.0,0.0,1.0,0.0,0.0,0.0,1.0,-104.146339417,19.5121955872,-12.3780488968,1.0,0.0,0.0,0.0,1.0,0.0,0.0,0.0,1.0,-6.14830986328,-13.6948334961,16.2183232149,1.0,0.0,0.0,0.0,1.0,0.0,0.0,0.0,1.0
1463923494289903952,558,1463923494277837597,,33.8409729004,13.3138103485,105.209701538,0.0203109998256,1.0,0.0,0.0,0.0,1.0,0.0,0.0,0.0,1.0,84.6951217651,-3.96341490746,-33.5365867615,1.0,0.0,0.0,0.0,1.0,0.0,0.0,0.0,1.0,-1.79565124512,13.7762363525,17.879897998,1.0,0.0,0.0,0.0,1.0,0.0,0.0,0.0,1.0
1463923494328122799,559,1463923494298382353,,33.4399375916,13.4020633698,103.823104858,0.020422000438,1.0,0.0,0.0,0.0,1.0,0.0,0.0,0.0,1.0,89.4512252808,-38.9024391174,-13.048781395,1.0,0.0,0.0,0.0,1.0,0.0,0.0,0.0,1.0,-2.50912333984,-25.024195752,2.86346518555,1.0,0.0,0.0,0.0,1.0,0.0,0.0,0.0,1.0
1463923494328448631,560,1463923494319486586,,33.6628379822,14.4114580154,103.906890869,0.0204760003835,1.0,0.0,0.0,0.0,1.0,0.0,0.0,0.0,1.0,5.85365867615,4.51219558716,-23.4146347046,1.0,0.0,0.0,0.0,1.0,0.0,0.0,0.0,1.0,-3.63918652344,22.4576115723,4.47715710449,1.0,0.0,0.0,0.0,1.0,0.0,0.0,0.0,1.0
1463923494368640021,561,1463923494338877128,,32.5713920593,11.461268425,102.624679565,0.0203239992261,1.0,0.0,0.0,0.0,1.0,0.0,0.0,0.0,1.0,-70.3048782349,-37.9878044128,-15.548781395,1.0,0.0,0.0,0.0,1.0,0.0,0.0,0.0,1.0,14.6525141602,-45.0157796143,45.4227938965,1.0,0.0,0.0,0.0,1.0,0.0,0.0,0.0,1.0
1463923494368950124,562,1463923494359414852,,31.5255050659,11.8646907806,102.251602173,0.0204019993544,1.0,0.0,0.0,0.0,1.0,0.0,0.0,0.0,1.0,-12.7439022064,-44.1463432312,-31.7682914734,1.0,0.0,0.0,0.0,1.0,0.0,0.0,0.0,1.0,6.24407792969,28.1701767334,4.86501777344,1.0,0.0,0.0,0.0,1.0,0.0,0.0,0.0,1.0
1463923494408910162,563,1463923494379840234,,28.9202022552,15.084610939,101.395454407,0.0204119998962,1.0,0.0,0.0,0.0,1.0,0.0,0.0,0.0,1.0,217.621948242,-102.743904114,15.2439022064,1.0,0.0,0.0,0.0,1.0,0.0,0.0,0.0,1.0,8.72925925293,-17.4537301025,18.8136366455,1.0,0.0,0.0,0.0,1.0,0.0,0.0,0.0,1.0
1463923494408998078,564,1463923494400200043,,29.15143013,14.4898462296,100.973991394,0.0204109996557,1.0,0.0,0.0,0.0,1.0,0.0,0.0,0.0,1.0,-27.8658542633,-16.5243911743,-16.6463413239,1.0,0.0,0.0,0.0,1.0,0.0,0.0,0.0,1.0,-9.75397756348,5.09964953613,8.34139799946,1.0,0.0,0.0,0.0,1.0,0.0,0.0,0.0,1.0
1463923494449708321,565,1463923494421162245,,30.456161499,12.5207052231,100.95652771,0.0204879995435,1.0,0.0,0.0,0.0,1.0,0.0,0.0,0.0,1.0,-63.9024429321,83.9634170532,-0.243902444839,1.0,0.0,0.0,0.0,1.0,0.0,0.0,0.0,1.0,3.03105930176,-23.7935760986,53.3332361816,1.0,0.0,0.0,0.0,1.0,0.0,0.0,0.0,1.0
1463923494449773997,566,1463923494441039660,,30.553194046,13.2782297134,101.181755066,0.0203290004283,1.0,0.0,0.0,0.0,1.0,0.0,0.0,0.0,1.0,-15.4268302917,1.03658533096,-16.4634151459,1.0,0.0,0.0,0.0,1.0,0.0,0.0,0.0,1.0,1.16358193377,24.8374480225,-1.90099611816,1.0,0.0,0.0,0.0,1.0,0.0,0.0,0.0,1.0
1463923494557016560,567,1463923494461759207,,32.1033287048,10.5321836472,100.71875,0.020422000438,1.0,0.0,0.0,0.0,1.0,0.0,0.0,0.0,1.0,-96.3414611816,54.3292694092,-11.7682924271,1.0,0.0,0.0,0.0,1.0,0.0,0.0,0.0,1.0,3.7253777832,-12.9861498047,-12.7179992187,1.0,0.0,0.0,0.0,1.0,0.0,0.0,0.0,1.0
1463923494557052862,568,1463923494485191502,,31.2292575836,6.63693189621,100.47555542,0.0204029995948,1.0,0.0,0.0,0.0,1.0,0.0,0.0,0.0,1.0,-169.817077637,3.71951246262,0.0,1.0,0.0,0.0,0.0,1.0,0.0,0.0,0.0,1.0,9.1697923584,-2.21224233398,10.0939541992,1.0,0.0,0.0,0.0,1.0,0.0,0.0,0.0,1.0
1463923494557736661,569,1463923494502491012,,33.0293693542,7.38514852524,100.48626709,0.020422000438,1.0,0.0,0.0,0.0,1.0,0.0,0.0,0.0,1.0,11.2195119858,50.3048820496,-17.9878044128,1.0,0.0,0.0,0.0,1.0,0.0,0.0,0.0,1.0,-3.96479794922,15.95017146,-32.3025711369,1.0,0.0,0.0,0.0,1.0,0.0,0.0,0.0,1.0
1463923494558483064,570,1463923494522965403,,31.867937088,11.6609344482,100.437332153,0.0204380005598,1.0,0.0,0.0,0.0,1.0,0.0,0.0,0.0,1.0,232.865844727,-14.1463422775,19.5121955872,1.0,0.0,0.0,0.0,1.0,0.0,0.0,0.0,1.0,16.8168712919,-11.525686792,27.2603801025,1.0,0.0,0.0,0.0,1.0,0.0,0.0,0.0,1.0
1463923494627781101,571,1463923494543546774,,32.0035972595,6.63263082504,99.2389602661,0.0204109996557,1.0,0.0,0.0,0.0,1.0,0.0,0.0,0.0,1.0,-169.573181152,17.0731716156,-21.5853652954,1.0,0.0,0.0,0.0,1.0,0.0,0.0,0.0,1.0,2.71981308594,-7.28794985352,2.25533796387,1.0,0.0,0.0,0.0,1.0,0.0,0.0,0.0,1.0
1463923494628080318,572,1463923494563929499,,32.8897628784,8.97937679291,98.6399993896,0.0203740000725,1.0,0.0,0.0,0.0,1.0,0.0,0.0,0.0,1.0,101.280487061,-3.96341490746,-40.8536605835,1.0,0.0,0.0,0.0,1.0,0.0,0.0,0.0,1.0,-5.41568415527,9.81143840332,-13.5607582031,1.0,0.0,0.0,0.0,1.0,0.0,0.0,0.0,1.0
1463923494628678441,573,1463923494584034934,,31.5092430115,13.4100694656,97.7232131958,0.0204249992967,1.0,0.0,0.0,0.0,1.0,0.0,0.0,0.0,1.0,250.304901123,-30.1829280853,-22.0731716156,1.0,0.0,0.0,0.0,1.0,0.0,0.0,0.0,1.0,16.9605257296,-0.981622680664,31.7758444336,1.0,0.0,0.0,0.0,1.0,0.0,0.0,0.0,1.0
1463923494630832911,574,1463923494604532346,,31.370016098,11.8434915543,96.4750671387,0.0203910004348,1.0,0.0,0.0,0.0,1.0,0.0,0.0,0.0,1.0,-15.975610733,3.84146332741,-33.5365867615,1.0,0.0,0.0,0.0,1.0,0.0,0.0,0.0,1.0,0.0143652099609,-7.06768330078,17.6452650663,1.0,0.0,0.0,0.0,1.0,0.0,0.0,0.0,1.0
1463923494652812661,575,1463923494625174133,,35.0008163452,6.74763774872,96.491027832,0.0204070005566,1.0,0.0,0.0,0.0,1.0,0.0,0.0,0.0,1.0,-221.95123291,133.658538818,2.01219511032,1.0,0.0,0.0,0.0,1.0,0.0,0.0,0.0,1.0,-30.018500415,-21.1551658691,2.06859023437,1.0,0.0,0.0,0.0,1.0,0.0,0.0,0.0,1.0
1463923494652854535,576,1463923494645303370,,34.1294708252,12.9165077209,96.1447219849,0.0204019993544,1.0,0.0,0.0,0.0,1.0,0.0,0.0,0.0,1.0,286.097564697,-26.6463432312,-24.4512195587,1.0,0.0,0.0,0.0,1.0,0.0,0.0,0.0,1.0,0.0239420166016,15.1792385254,15.92144104,1.0,0.0,0.0,0.0,1.0,0.0,0.0,0.0,1.0
1463923494692414627,577,1463923494665423232,,35.3311195374,10.4349040985,96.7420425415,0.0203930009156,1.0,0.0,0.0,0.0,1.0,0.0,0.0,0.0,1.0,-179.817077637,43.2926864624,-10.3048782349,1.0,0.0,0.0,0.0,1.0,0.0,0.0,0.0,1.0,3.91691391602,24.995465332,-19.1248840304,1.0,0.0,0.0,0.0,1.0,0.0,0.0,0.0,1.0
1463923494692452804,578,1463923494685991946,,34.9355926514,10.3908309937,94.503944397,0.0204050000757,1.0,0.0,0.0,0.0,1.0,0.0,0.0,0.0,1.0,106.707321167,-40.0,-47.4390258789,1.0,0.0,0.0,0.0,1.0,0.0,0.0,0.0,1.0,1.51313544922,-20.3985981445,-1.40300217285,1.0,0.0,0.0,0.0,1.0,0.0,0.0,0.0,1.0
1463923494730731650,579,1463923494706394619,,35.1592140198,6.65223026276,93.1833877563,0.0204119998962,1.0,0.0,0.0,0.0,1.0,0.0,0.0,0.0,1.0,-106.158538818,10.2439022064,-23.5365848541,1.0,0.0,0.0,0.0,1.0,0.0,0.0,0.0,1.0,-1.92493813477,-7.69017573242,6.84262834473,1.0,0.0,0.0,0.0,1.0,0.0,0.0,0.0,1.0
1463923494731710292,580,1463923494727073333,,34.9807014465,5.06060552597,92.9725265503,0.0204240009189,1.0,0.0,0.0,0.0,1.0,0.0,0.0,0.0,1.0,-104.085365295,-12.3780488968,-26.8902454376,1.0,0.0,0.0,0.0,1.0,0.0,0.0,0.0,1.0,-5.22893642578,12.9095353516,8.79629689941,1.0,0.0,0.0,0.0,1.0,0.0,0.0,0.0,1.0
1463923494762035214,581,1463923494750112245,,33.9432411194,5.88866281509,91.876373291,0.0204210001975,1.0,0.0,0.0,0.0,1.0,0.0,0.0,0.0,1.0,117.804878235,-63.8414649963,-1.8292683363,1.0,0.0,0.0,0.0,1.0,0.0,0.0,0.0,1.0,-6.50265170898,-38.4891858887,5.37737692871,1.0,0.0,0.0,0.0,1.0,0.0,0.0,0.0,1.0
1463923494785801988,582,1463923494768572999,,30.8081073761,8.3835105896,93.0939407349,0.0204199999571,1.0,0.0,0.0,0.0,1.0,0.0,0.0,0.0,1.0,59.8780517578,-192.560974121,55.7926826477,1.0,0.0,0.0,0.0,1.0,0.0,0.0,0.0,1.0,-73.0854045541,66.688093042,-20.9157457031,1.0,0.0,0.0,0.0,1.0,0.0,0.0,0.0,1.0
1463923494804234669,583,1463923494789231036,,33.1241264343,-2.32858967781,93.0198822021,0.0211520008743,1.0,0.0,0.0,0.0,1.0,0.0,0.0,0.0,1.0,-482.256134033,130.243911743,5.42682933807,1.0,0.0,0.0,0.0,1.0,0.0,0.0,0.0,1.0,-0.526724328702,-9.25598361816,25.7137258301,1.0,0.0,0.0,0.0,1.0,0.0,0.0,0.0,1.0
1463923494811031880,584,1463923494809008087,,33.403427124,3.28613448143,93.0641860962,0.0196390002966,1.0,0.0,0.0,0.0,1.0,0.0,0.0,0.0,1.0,272.5,-43.0487823486,-3.71951246262,1.0,0.0,0.0,0.0,1.0,0.0,0.0,0.0,1.0,-17.8703211914,5.73650717773,-5.54975944824,1.0,0.0,0.0,0.0,1.0,0.0,0.0,0.0,1.0
1463923494831102471,585,1463923494829294875,,33.8696937561,0.23344232142,91.8125610352,0.0204610005021,1.0,0.0,0.0,0.0,1.0,0.0,0.0,0.0,1.0,-78.7804946899,-4.08536577225,-21.8292694092,1.0,0.0,0.0,0.0,1.0,0.0,0.0,0.0,1.0,-0.272938989258,-25.2540391113,-19.4648594971,1.0,0.0,0.0,0.0,1.0,0.0,0.0,0.0,1.0
1463923494853112533,586,1463923494849685048,,34.1600875854,1.26253092289,92.0791702271,0.0203859992325,1.0,0.0,0.0,0.0,1.0,0.0,0.0,0.0,1.0,-0.670731723309,6.15853643417,-15.1829271317,1.0,0.0,0.0,0.0,1.0,0.0,0.0,0.0,1.0,-5.64073911133,27.8302000977,6.0573302002,1.0,0.0,0.0,0.0,1.0,0.0,0.0,0.0,1.0
1463923494875875040,587,1463923494870413970,,33.5900230408,2.46362805367,91.1956787109,0.0204520002007,1.0,0.0,0.0,0.0,1.0,0.0,0.0,0.0,1.0,125.67073822,-42.7439041138,-1.52439022064,1.0,0.0,0.0,0.0,1.0,0.0,0.0,0.0,1.0,-9.35653950337,-22.4767651855,7.39808312988,1.0,0.0,0.0,0.0,1.0,0.0,0.0,0.0,1.0
1463923494891948669,588,1463923494890334510,,33.4166908264,1.35834729671,91.3822097778,0.0203430000693,1.0,0.0,0.0,0.0,1.0,0.0,0.0,0.0,1.0,-66.8292694092,8.5365858078,5.85365867615,1.0,0.0,0.0,0.0,1.0,0.0,0.0,0.0,1.0,-5.5401826416,7.44596716309,32.2882035889,1.0,0.0,0.0,0.0,1.0,0.0,0.0,0.0,1.0
1463923494912304364,589,1463923494910733954,,32.1280441284,4.80885791779,90.774520874,0.0204249992967,1.0,0.0,0.0,0.0,1.0,0.0,0.0,0.0,1.0,167.012207031,-27.682926178,-30.975610733,1.0,0.0,0.0,0.0,1.0,0.0,0.0,0.0,1.0,18.2246630371,22.5964752686,43.3206848389,1.0,0.0,0.0,0.0,1.0,0.0,0.0,0.0,1.0
1463923494934063854,590,1463923494931284699,,33.1767959595,3.64036798477,89.9858398438,0.0204969998449,1.0,0.0,0.0,0.0,1.0,0.0,0.0,0.0,1.0,10.0609760284,36.8292694092,-1.8902438879,1.0,0.0,0.0,0.0,1.0,0.0,0.0,0.0,1.0,-7.1203557373,-23.544579126,6.06211860352,1.0,0.0,0.0,0.0,1.0,0.0,0.0,0.0,1.0
1463923494956668132,591,1463923494951545758,,32.9571075439,5.33146476746,89.5810623169,0.0202980004251,1.0,0.0,0.0,0.0,1.0,0.0,0.0,0.0,1.0,119.695121765,-25.975610733,5.42682933807,1.0,0.0,0.0,0.0,1.0,0.0,0.0,0.0,1.0,7.12514414062,-12.1002951904,-16.3523973389,1.0,0.0,0.0,0.0,1.0,0.0,0.0,0.0,1.0
1463923494978018093,592,1463923494972145202,,32.8190803528,2.92756152153,88.5748214722,0.0204360000789,1.0,0.0,0.0,0.0,1.0,0.0,0.0,0.0,1.0,-66.707321167,14.5731706619,-23.5365848541,1.0,0.0,0.0,0.0,1.0,0.0,0.0,0.0,1.0,0.986411083984,-11.2623246094,25.4120564209,1.0,0.0,0.0,0.0,1.0,0.0,0.0,0.0,1.0
1463923495000465966,593,1463923494992125949,,33.0741462708,-0.952109873295,87.4327774048,0.020428000018,1.0,0.0,0.0,0.0,1.0,0.0,0.0,0.0,1.0,-113.414634705,20.6707324982,-13.5365858078,1.0,0.0,0.0,0.0,1.0,0.0,0.0,0.0,1.0,4.45321508789,-14.0587521484,0.186747729492,1.0,0.0,0.0,0.0,1.0,0.0,0.0,0.0,1.0
1463923495022701756,594,1463923495012832007,,33.022731781,0.327327221632,86.5856704712,0.0203699991107,1.0,0.0,0.0,0.0,1.0,0.0,0.0,0.0,1.0,81.0975646973,-28.8414649963,-34.1463432312,1.0,0.0,0.0,0.0,1.0,0.0,0.0,0.0,1.0,4.57771357422,3.07415493164,-22.1511537598,1.0,0.0,0.0,0.0,1.0,0.0,0.0,0.0,1.0
1463923495046624623,595,1463923495033129993,,33.3791351318,-3.26349306107,85.2769470215,0.0204399991781,1.0,0.0,0.0,0.0,1.0,0.0,0.0,0.0,1.0,-102.439025879,39.2073173523,-23.9024391174,1.0,0.0,0.0,0.0,1.0,0.0,0.0,0.0,1.0,5.83706364746,-29.2810863037,22.4815535889,1.0,0.0,0.0,0.0,1.0,0.0,0.0,0.0,1.0
1463923495055458752,596,1463923495053459385,,33.7171134949,-1.73111414909,85.4839324951,0.0203719995916,1.0,0.0,0.0,0.0,1.0,0.0,0.0,0.0,1.0,37.317073822,-6.82926845551,-9.45121955872,1.0,0.0,0.0,0.0,1.0,0.0,0.0,0.0,1.0,2.92092602539,29.9323091553,-26.4415631348,1.0,0.0,0.0,0.0,1.0,0.0,0.0,0.0,1.0
1463923495122979661,597,1463923495073955495,,31.794675827,-3.69888782501,83.0830917358,0.0204060003161,1.0,0.0,0.0,0.0,1.0,0.0,0.0,0.0,1.0,13.5975618362,-107.195121765,-68.4756164551,1.0,0.0,0.0,0.0,1.0,0.0,0.0,0.0,1.0,-2.04943662109,-43.6989687012,-14.1018477783,1.0,0.0,0.0,0.0,1.0,0.0,0.0,0.0,1.0
1463923495123741168,598,1463923495094628167,,33.1340675354,-5.37490797043,83.2423400879,0.0204199999571,1.0,0.0,0.0,0.0,1.0,0.0,0.0,0.0,1.0,-132.804870605,56.5243911743,-13.3536586761,1.0,0.0,0.0,0.0,1.0,0.0,0.0,0.0,1.0,0.143652099609,16.893485745,-1.75734401855,1.0,0.0,0.0,0.0,1.0,0.0,0.0,0.0,1.0
1463923495124285072,599,1463923495114858341,,32.6819763184,-0.469638288021,83.367401123,0.0205680001527,1.0,0.0,0.0,0.0,1.0,0.0,0.0,0.0,1.0,203.475616455,-0.487804889679,-10.8536586761,1.0,0.0,0.0,0.0,1.0,0.0,0.0,0.0,1.0,4.05098920898,34.8260573486,42.4683490479,1.0,0.0,0.0,0.0,1.0,0.0,0.0,0.0,1.0
1463923495150178086,600,1463923495135452264,,32.783290863,-3.38940763474,82.202583313,0.0203329995275,1.0,0.0,0.0,0.0,1.0,0.0,0.0,0.0,1.0,-69.8780517578,12.2560977936,-16.0365848541,1.0,0.0,0.0,0.0,1.0,0.0,0.0,0.0,1.0,-1.79565124512,-24.9619465088,13.2590887939,1.0,0.0,0.0,0.0,1.0,0.0,0.0,0.0,1.0
1463923495220668618,601,1463923495155622125,,32.4427604675,-3.34878134727,82.1902084351,0.0203300006688,1.0,0.0,0.0,0.0,1.0,0.0,0.0,0.0,1.0,-43.3536567688,-22.6219520569,-27.3780498505,1.0,0.0,0.0,0.0,1.0,0.0,0.0,0.0,1.0,0.967257470703,14.5375924805,-1.54665427246,1.0,0.0,0.0,0.0,1.0,0.0,0.0,0.0,1.0
1463923495221126168,602,1463923495175907039,,30.9644317627,-0.332291930914,82.2035980225,0.0204009991139,1.0,0.0,0.0,0.0,1.0,0.0,0.0,0.0,1.0,178.719528198,-45.4878082275,23.7804889679,1.0,0.0,0.0,0.0,1.0,0.0,0.0,0.0,1.0,4.70700017161,-13.3261264404,14.1497318115,1.0,0.0,0.0,0.0,1.0,0.0,0.0,0.0,1.0
