%time,field.header.seq,field.header.stamp,field.header.frame_id,field.orientation.x,field.orientation.y,field.orientation.z,field.orientation.w,field.orientation_covariance0,field.orientation_covariance1,field.orientation_covariance2,field.orientation_covariance3,field.orientation_covariance4,field.orientation_covariance5,field.orientation_covariance6,field.orientation_covariance7,field.orientation_covariance8,field.angular_velocity.x,field.angular_velocity.y,field.angular_velocity.z,field.angular_velocity_covariance0,field.angular_velocity_covariance1,field.angular_velocity_covariance2,field.angular_velocity_covariance3,field.angular_velocity_covariance4,field.angular_velocity_covariance5,field.angular_velocity_covariance6,field.angular_velocity_covariance7,field.angular_velocity_covariance8,field.linear_acceleration.x,field.linear_acceleration.y,field.linear_acceleration.z,field.linear_acceleration_covariance0,field.linear_acceleration_covariance1,field.linear_acceleration_covariance2,field.linear_acceleration_covariance3,field.linear_acceleration_covariance4,field.linear_acceleration_covariance5,field.linear_acceleration_covariance6,field.linear_acceleration_covariance7,field.linear_acceleration_covariance8
1463935260125263922,205,1463935259872050161,,4.21366405487,-7.29943227768,-131.707626343,0.00947999954224,1.0,0.0,0.0,0.0,1.0,0.0,0.0,0.0,1.0,-1.95121955872,4.63414621353,2.5,1.0,0.0,0.0,0.0,1.0,0.0,0.0,0.0,1.0,-0.732625708008,-1.35990654297,10.3621047852,1.0,0.0,0.0,0.0,1.0,0.0,0.0,0.0,1.0
1463935260125925169,206,1463935259891577630,,4.23333930969,-7.40992498398,-132.965942383,0.00358300004154,1.0,0.0,0.0,0.0,1.0,0.0,0.0,0.0,1.0,-1.8292683363,0.18292683363,0.243902444839,1.0,0.0,0.0,0.0,1.0,0.0,0.0,0.0,1.0,-0.646434448242,-1.51792385254,10.2232410889,1.0,0.0,0.0,0.0,1.0,0.0,0.0,0.0,1.0
1463935260127278132,207,1463935259913284151,,4.11615610123,-7.50124168396,-134.315719604,0.00146399997175,1.0,0.0,0.0,0.0,1.0,0.0,0.0,0.0,1.0,-0.670731723309,-1.09756100178,-2.62195134163,1.0,0.0,0.0,0.0,1.0,0.0,0.0,0.0,1.0,0.373495458984,-1.41257897949,10.3237975586,1.0,0.0,0.0,0.0,1.0,0.0,0.0,0.0,1.0
1463935260129541873,208,1463935259935440827,,4.04930448532,-7.58938455582,-135.706008911,0.00202700006776,1.0,0.0,0.0,0.0,1.0,0.0,0.0,0.0,1.0,-1.8292683363,2.01219511032,-3.47560977936,1.0,0.0,0.0,0.0,1.0,0.0,0.0,0.0,1.0,-0.162805712891,-1.47003981934,9.95987890625,1.0,0.0,0.0,0.0,1.0,0.0,0.0,0.0,1.0
1463935260129612237,209,1463935259957033131,,4.03612327576,-7.69032764435,-137.088592529,0.00136200000998,1.0,0.0,0.0,0.0,1.0,0.0,0.0,0.0,1.0,-1.8902438879,1.09756100178,-5.48780488968,1.0,0.0,0.0,0.0,1.0,0.0,0.0,0.0,1.0,-0.598550451572,-1.59932670898,10.0891657959,1.0,0.0,0.0,0.0,1.0,0.0,0.0,0.0,1.0
1463935260129659476,210,1463935259977922625,,3.91417503357,-7.78758382797,-138.516830444,0.00142600003164,1.0,0.0,0.0,0.0,1.0,0.0,0.0,0.0,1.0,-0.914634168148,0.548780500889,-9.14634132385,1.0,0.0,0.0,0.0,1.0,0.0,0.0,0.0,1.0,0.469263525391,-1.45088620605,9.73961235352,1.0,0.0,0.0,0.0,1.0,0.0,0.0,0.0,1.0
1463935260129698955,211,1463935260002987830,,3.90779781342,-7.87060213089,-140.223144531,0.010990999639,1.0,0.0,0.0,0.0,1.0,0.0,0.0,0.0,1.0,-2.98780488968,5.18292713165,-5.91463422775,1.0,0.0,0.0,0.0,1.0,0.0,0.0,0.0,1.0,-0.593762048251,-1.07739082014,10.0508585693,1.0,0.0,0.0,0.0,1.0,0.0,0.0,0.0,1.0
1463935260129752653,212,1463935260028581002,,3.9712369442,-7.98898172379,-141.843582153,0.00609399983659,1.0,0.0,0.0,0.0,1.0,0.0,0.0,0.0,1.0,-4.75609779358,4.2682929039,-4.75609779358,1.0,0.0,0.0,0.0,1.0,0.0,0.0,0.0,1.0,-0.440533105469,-1.1540052002,10.1035310059,1.0,0.0,0.0,0.0,1.0,0.0,0.0,0.0,1.0
1463935260129808382,213,1463935260048601333,,3.98284292221,-8.12601280212,-143.225250244,0.00118499994278,1.0,0.0,0.0,0.0,1.0,0.0,0.0,0.0,1.0,-5.73170757294,1.52439022064,-4.51219558716,1.0,0.0,0.0,0.0,1.0,0.0,0.0,0.0,1.0,-0.359130249023,-1.12527478027,10.3094323486,1.0,0.0,0.0,0.0,1.0,0.0,0.0,0.0,1.0
1463935260129850673,214,1463935260071241653,,3.92913484573,-8.27386379242,-144.607055664,0.00146399997175,1.0,0.0,0.0,0.0,1.0,0.0,0.0,0.0,1.0,-7.68292665482,1.40243899822,-2.37804889679,1.0,0.0,0.0,0.0,1.0,0.0,0.0,0.0,1.0,-0.172382519531,-1.12527478027,10.6302553711,1.0,0.0,0.0,0.0,1.0,0.0,0.0,0.0,1.0
1463935260129901819,215,1463935260091702191,,3.89121794701,-8.45393276215,-145.947479248,0.00749099999666,1.0,0.0,0.0,0.0,1.0,0.0,0.0,0.0,1.0,-8.35365867615,0.609756112099,-0.853658556938,1.0,0.0,0.0,0.0,1.0,0.0,0.0,0.0,1.0,-0.502782348633,-1.29286889648,10.4961800781,1.0,0.0,0.0,0.0,1.0,0.0,0.0,0.0,1.0
1463935260129950465,216,1463935260114113136,,3.81990528107,-8.60481739044,-147.222702026,0.00190999999177,1.0,0.0,0.0,0.0,1.0,0.0,0.0,0.0,1.0,-7.31707334518,-2.43902444839,-0.0609756112099,1.0,0.0,0.0,0.0,1.0,0.0,0.0,0.0,1.0,-0.478840332031,-1.13485158691,10.4913916748,1.0,0.0,0.0,0.0,1.0,0.0,0.0,0.0,1.0
1463935260141890986,217,1463935260133930500,,3.70716500282,-8.72763633728,-148.481735229,0.00164300005417,1.0,0.0,0.0,0.0,1.0,0.0,0.0,0.0,1.0,-6.7682929039,-1.8292683363,0.487804889679,1.0,0.0,0.0,0.0,1.0,0.0,0.0,0.0,1.0,-0.383072265625,-1.01992990723,10.2902787354,1.0,0.0,0.0,0.0,1.0,0.0,0.0,0.0,1.0
1463935260157483784,218,1463935260154686869,,3.61916208267,-8.81941509247,-149.705429077,0.00154800002929,1.0,0.0,0.0,0.0,1.0,0.0,0.0,0.0,1.0,-5.85365867615,0.365853667259,0.975609779358,1.0,0.0,0.0,0.0,1.0,0.0,0.0,0.0,1.0,-0.354341845703,-0.928950244141,10.2950671387,1.0,0.0,0.0,0.0,1.0,0.0,0.0,0.0,1.0
1463935260179632908,219,1463935260176505734,,3.60092020035,-8.89749908447,-150.993942261,0.00152900000103,1.0,0.0,0.0,0.0,1.0,0.0,0.0,0.0,1.0,-3.53658556938,4.14634132385,1.76829278469,1.0,0.0,0.0,0.0,1.0,0.0,0.0,0.0,1.0,-0.493205541992,-1.20667770978,9.84495722656,1.0,0.0,0.0,0.0,1.0,0.0,0.0,0.0,1.0
1463935260200425892,220,1463935260198306318,,3.57466197014,-8.91540431976,-152.306427002,0.00152299995534,1.0,0.0,0.0,0.0,1.0,0.0,0.0,0.0,1.0,-2.37804889679,2.68292689323,-2.98780488968,1.0,0.0,0.0,0.0,1.0,0.0,0.0,0.0,1.0,0.244208569336,-0.794874951172,10.0652237793,1.0,0.0,0.0,0.0,1.0,0.0,0.0,0.0,1.0
1463935260235040901,221,1463935260219050917,,3.51028227806,-8.90451812744,-153.698699951,0.00232400000095,1.0,0.0,0.0,0.0,1.0,0.0,0.0,0.0,1.0,-3.35365867615,3.23170733452,-6.34146356583,1.0,0.0,0.0,0.0,1.0,0.0,0.0,0.0,1.0,-0.277727392578,-0.689530078125,10.2950671387,1.0,0.0,0.0,0.0,1.0,0.0,0.0,0.0,1.0
1463935260242838107,222,1463935260240973948,,3.46372699738,-8.92104148865,-155.154312134,0.00122600002214,1.0,0.0,0.0,0.0,1.0,0.0,0.0,0.0,1.0,-4.45121955872,4.20731735229,-8.23170757294,1.0,0.0,0.0,0.0,1.0,0.0,0.0,0.0,1.0,-0.00478840332031,-0.895431420898,10.3477395752,1.0,0.0,0.0,0.0,1.0,0.0,0.0,0.0,1.0
1463935260267420658,223,1463935260262159379,,3.43145751953,-8.93892097473,-156.650802612,0.00351099995896,1.0,0.0,0.0,0.0,1.0,0.0,0.0,0.0,1.0,-3.29268312454,4.39024400711,-10.1219511032,1.0,0.0,0.0,0.0,1.0,0.0,0.0,0.0,1.0,-0.0191536132812,-0.632069238281,10.1083194092,1.0,0.0,0.0,0.0,1.0,0.0,0.0,0.0,1.0
1463935260289129992,224,1463935260284016368,,3.37412858009,-8.95630645752,-158.15184021,0.00349000003189,1.0,0.0,0.0,0.0,1.0,0.0,0.0,0.0,1.0,-3.23170733452,2.74390244484,-13.048781395,1.0,0.0,0.0,0.0,1.0,0.0,0.0,0.0,1.0,0.0239420166016,-0.775721337891,10.419565625,1.0,0.0,0.0,0.0,1.0,0.0,0.0,0.0,1.0
1463935260317739974,225,1463935260305601016,,3.30927085876,-8.98531532288,-159.690643311,0.00155799998902,1.0,0.0,0.0,0.0,1.0,0.0,0.0,0.0,1.0,-3.59756112099,4.75609779358,-11.9512195587,1.0,0.0,0.0,0.0,1.0,0.0,0.0,0.0,1.0,-0.416591088867,-1.5322890625,10.3477395752,1.0,0.0,0.0,0.0,1.0,0.0,0.0,0.0,1.0
1463935260339669412,226,1463935260326641447,,3.48462677002,-9.00784492493,-161.177566528,0.0055889999494,1.0,0.0,0.0,0.0,1.0,0.0,0.0,0.0,1.0,-2.43902444839,10.2439022064,-2.56097555161,1.0,0.0,0.0,0.0,1.0,0.0,0.0,0.0,1.0,-1.34075292969,-1.07260241682,9.72045874023,1.0,0.0,0.0,0.0,1.0,0.0,0.0,0.0,1.0
1463935260352533419,227,1463935260349819577,,3.60596609116,-8.99483585358,-162.528900146,0.00158899999224,1.0,0.0,0.0,0.0,1.0,0.0,0.0,0.0,1.0,-0.365853667259,5.18292713165,0.365853667259,1.0,0.0,0.0,0.0,1.0,0.0,0.0,0.0,1.0,-0.962469067383,-0.890643017578,10.2807019287,1.0,0.0,0.0,0.0,1.0,0.0,0.0,0.0,1.0
1463935260371790785,228,1463935260367996843,,3.57468676567,-8.95839214325,-163.79637146,0.00116099999286,1.0,0.0,0.0,0.0,1.0,0.0,0.0,0.0,1.0,0.18292683363,0.487804889679,-1.95121955872,1.0,0.0,0.0,0.0,1.0,0.0,0.0,0.0,1.0,-0.3064578125,-0.928950244141,9.84495722656,1.0,0.0,0.0,0.0,1.0,0.0,0.0,0.0,1.0
1463935260393115017,229,1463935260389362897,,3.48611760139,-8.91656589508,-165.096374512,0.00110899994615,1.0,0.0,0.0,0.0,1.0,0.0,0.0,0.0,1.0,-1.70731711388,1.40243899822,0.12195122242,1.0,0.0,0.0,0.0,1.0,0.0,0.0,0.0,1.0,-0.450109912109,-0.823605371094,10.5009684814,1.0,0.0,0.0,0.0,1.0,0.0,0.0,0.0,1.0
1463935260413165816,230,1463935260410063954,,3.37625789642,-8.8850402832,-166.373184204,0.00107300002128,1.0,0.0,0.0,0.0,1.0,0.0,0.0,0.0,1.0,-1.09756100178,0.975609779358,-1.76829278469,1.0,0.0,0.0,0.0,1.0,0.0,0.0,0.0,1.0,0.330399829102,-1.00077629395,10.5009684814,1.0,0.0,0.0,0.0,1.0,0.0,0.0,0.0,1.0
1463935260434914994,231,1463935260431025948,,3.3233935833,-8.86350917816,-167.656112671,0.00117199996021,1.0,0.0,0.0,0.0,1.0,0.0,0.0,0.0,1.0,0.670731723309,2.56097555161,-1.64634156227,1.0,0.0,0.0,0.0,1.0,0.0,0.0,0.0,1.0,-0.612915625,-1.40779057617,10.4961800781,1.0,0.0,0.0,0.0,1.0,0.0,0.0,0.0,1.0
1463935260463987786,232,1463935260453270749,,3.35143256187,-8.80027008057,-168.987548828,0.00223400001414,1.0,0.0,0.0,0.0,1.0,0.0,0.0,0.0,1.0,2.13414645195,3.41463422775,1.58536589146,1.0,0.0,0.0,0.0,1.0,0.0,0.0,0.0,1.0,-0.3064578125,-1.28808049316,10.7068698242,1.0,0.0,0.0,0.0,1.0,0.0,0.0,0.0,1.0
1463935260476884658,233,1463935260473932744,,3.39236116409,-8.69867515564,-170.18347168,0.00172399997246,1.0,0.0,0.0,0.0,1.0,0.0,0.0,0.0,1.0,4.75609779358,4.02439022064,2.68292689323,1.0,0.0,0.0,0.0,1.0,0.0,0.0,0.0,1.0,-0.402225878906,-1.13963999023,10.5488525146,1.0,0.0,0.0,0.0,1.0,0.0,0.0,0.0,1.0
1463935260496756865,234,1463935260494750832,,3.40777802467,-8.55022525787,-171.425704956,0.00158499996178,1.0,0.0,0.0,0.0,1.0,0.0,0.0,0.0,1.0,5.24390268326,5.12195110321,3.04878044128,1.0,0.0,0.0,0.0,1.0,0.0,0.0,0.0,1.0,-0.134075302102,-1.11090957031,10.4866032715,1.0,0.0,0.0,0.0,1.0,0.0,0.0,0.0,1.0
1463935260518452710,235,1463935260516163553,,3.50664138794,-8.40515708923,-172.621932983,0.00123900000472,1.0,0.0,0.0,0.0,1.0,0.0,0.0,0.0,1.0,5.67073154449,5.67073154449,5.85365867615,1.0,0.0,0.0,0.0,1.0,0.0,0.0,0.0,1.0,-0.248996972656,-1.0534486574,10.314220752,1.0,0.0,0.0,0.0,1.0,0.0,0.0,0.0,1.0
1463935260554308286,236,1463935260536849090,,3.60888576508,-8.24916172028,-173.749557495,0.00113200000487,1.0,0.0,0.0,0.0,1.0,0.0,0.0,0.0,1.0,5.18292713165,3.84146332741,7.13414621353,1.0,0.0,0.0,0.0,1.0,0.0,0.0,0.0,1.0,-0.502782348633,-0.847547387695,10.1705686523,1.0,0.0,0.0,0.0,1.0,0.0,0.0,0.0,1.0
1463935260567293959,237,1463935260557503637,,3.60496211052,-8.1034488678,-174.873321533,0.00116200000048,1.0,0.0,0.0,0.0,1.0,0.0,0.0,0.0,1.0,5.0,-0.914634168148,3.65853667259,1.0,0.0,0.0,0.0,1.0,0.0,0.0,0.0,1.0,0.110133276367,-0.861912597656,10.1178962158,1.0,0.0,0.0,0.0,1.0,0.0,0.0,0.0,1.0
1463935260580986557,238,1463935260578482662,,3.50807404518,-7.9595618248,-176.085647583,0.00117299996782,1.0,0.0,0.0,0.0,1.0,0.0,0.0,0.0,1.0,5.91463422775,3.29268312454,2.68292689323,1.0,0.0,0.0,0.0,1.0,0.0,0.0,0.0,1.0,-0.15801730957,-0.909796630859,10.1035310059,1.0,0.0,0.0,0.0,1.0,0.0,0.0,0.0,1.0
1463935260603879584,239,1463935260599653613,,3.50588274002,-7.83537435532,-177.312927246,0.0012529999949,1.0,0.0,0.0,0.0,1.0,0.0,0.0,0.0,1.0,5.18292713165,5.06097555161,3.65853667259,1.0,0.0,0.0,0.0,1.0,0.0,0.0,0.0,1.0,0.067037651051,-1.20188930646,10.2376062988,1.0,0.0,0.0,0.0,1.0,0.0,0.0,0.0,1.0
1463935260629722338,240,1463935260622484609,,3.58403682709,-7.71039199829,-178.522796631,0.00114599999506,1.0,0.0,0.0,0.0,1.0,0.0,0.0,0.0,1.0,7.56097555161,5.42682933807,4.39024400711,1.0,0.0,0.0,0.0,1.0,0.0,0.0,0.0,1.0,-0.411802685547,-1.51313544922,10.1274730225,1.0,0.0,0.0,0.0,1.0,0.0,0.0,0.0,1.0
1463935260660601373,241,1463935260642997334,,3.6733853817,-7.55739688873,-179.722824097,0.00197100010701,1.0,0.0,0.0,0.0,1.0,0.0,0.0,0.0,1.0,9.45121955872,2.13414645195,6.15853643417,1.0,0.0,0.0,0.0,1.0,0.0,0.0,0.0,1.0,-0.718260498047,-1.25456166992,10.1370498291,1.0,0.0,0.0,0.0,1.0,0.0,0.0,0.0,1.0
1463935260672564811,242,1463935260663379382,,3.64831995964,-7.38972520828,179.148590088,0.0019340000581,1.0,0.0,0.0,0.0,1.0,0.0,0.0,0.0,1.0,8.78048801422,0.12195122242,5.42682933807,1.0,0.0,0.0,0.0,1.0,0.0,0.0,0.0,1.0,0.0909796630859,-1.52271225586,10.4626612549,1.0,0.0,0.0,0.0,1.0,0.0,0.0,0.0,1.0
1463935260694860966,243,1463935260685107049,,3.67292928696,-7.23800373077,178.01789856,0.00132899999153,1.0,0.0,0.0,0.0,1.0,0.0,0.0,0.0,1.0,7.07317113876,6.15853643417,12.8048782349,1.0,0.0,0.0,0.0,1.0,0.0,0.0,0.0,1.0,-1.19710090314,-1.64242233887,10.9558667969,1.0,0.0,0.0,0.0,1.0,0.0,0.0,0.0,1.0
1463935260713585001,244,1463935260705665191,,3.87383270264,-7.1212310791,177.07673645,0.0012009999482,1.0,0.0,0.0,0.0,1.0,0.0,0.0,0.0,1.0,7.50000047684,2.31707310677,17.2560977936,1.0,0.0,0.0,0.0,1.0,0.0,0.0,0.0,1.0,-0.550666381836,-1.2976572998,10.2184526855,1.0,0.0,0.0,0.0,1.0,0.0,0.0,0.0,1.0
1463935260736958338,245,1463935260727246661,,3.90217232704,-7.02785110474,176.13142395,0.00203200010583,1.0,0.0,0.0,0.0,1.0,0.0,0.0,0.0,1.0,5.18292713165,-0.975609779358,13.9634151459,1.0,0.0,0.0,0.0,1.0,0.0,0.0,0.0,1.0,-0.0957680664062,-1.32638771973,9.8305920166,1.0,0.0,0.0,0.0,1.0,0.0,0.0,0.0,1.0
1463935260760034854,246,1463935260748565997,,3.85204958916,-6.98434591293,175.093093872,0.001200000057,1.0,0.0,0.0,0.0,1.0,0.0,0.0,0.0,1.0,2.43902444839,-0.792682945728,11.4634151459,1.0,0.0,0.0,0.0,1.0,0.0,0.0,0.0,1.0,-0.220266552734,-1.58974990234,9.95987890625,1.0,0.0,0.0,0.0,1.0,0.0,0.0,0.0,1.0
1463935260772381885,247,1463935260769654240,,3.81986999512,-6.98812866211,174.034088135,0.0012009999482,1.0,0.0,0.0,0.0,1.0,0.0,0.0,0.0,1.0,0.975609779358,1.95121955872,10.3658542633,1.0,0.0,0.0,0.0,1.0,0.0,0.0,0.0,1.0,0.0191536132812,-1.4604630127,10.4099888184,1.0,0.0,0.0,0.0,1.0,0.0,0.0,0.0,1.0
1463935260799261353,248,1463935260791855603,,3.85778641701,-7.037586689,172.928741455,0.00146599998698,1.0,0.0,0.0,0.0,1.0,0.0,0.0,0.0,1.0,-0.914634168148,6.52439069748,8.29268264771,1.0,0.0,0.0,0.0,1.0,0.0,0.0,0.0,1.0,-0.0430956298828,-1.55144267578,9.76834277344,1.0,0.0,0.0,0.0,1.0,0.0,0.0,0.0,1.0
1463935260814407434,249,1463935260811919320,,3.95286870003,-7.13497638702,171.796218872,0.00169900001492,1.0,0.0,0.0,0.0,1.0,0.0,0.0,0.0,1.0,-1.64634156227,8.17073154449,4.87804889679,1.0,0.0,0.0,0.0,1.0,0.0,0.0,0.0,1.0,-0.114921679688,-1.55144267578,9.5432884019,1.0,0.0,0.0,0.0,1.0,0.0,0.0,0.0,1.0
1463935260837213170,250,1463935260833288760,,4.06365013123,-7.27424621582,170.600143433,0.00185999996029,1.0,0.0,0.0,0.0,1.0,0.0,0.0,0.0,1.0,-2.43902444839,8.84146404266,2.92682933807,1.0,0.0,0.0,0.0,1.0,0.0,0.0,0.0,1.0,-0.215478149414,-1.78607443848,9.32302068013,1.0,0.0,0.0,0.0,1.0,0.0,0.0,0.0,1.0
1463935260866191327,251,1463935260853224612,,4.17757892609,-7.4415397644,169.378143311,0.00325699988753,1.0,0.0,0.0,0.0,1.0,0.0,0.0,0.0,1.0,-1.40243899822,7.07317113876,1.03658533096,1.0,0.0,0.0,0.0,1.0,0.0,0.0,0.0,1.0,-0.220266552734,-2.11647412145,9.37090471333,1.0,0.0,0.0,0.0,1.0,0.0,0.0,0.0,1.0
1463935260879331219,252,1463935260874786603,,4.23852825165,-7.59667062759,168.039215088,0.00169099995401,1.0,0.0,0.0,0.0,1.0,0.0,0.0,0.0,1.0,1.95121955872,5.67073154449,-0.426829278469,1.0,0.0,0.0,0.0,1.0,0.0,0.0,0.0,1.0,-0.201112939453,-2.29364519043,9.58638403179,1.0,0.0,0.0,0.0,1.0,0.0,0.0,0.0,1.0
1463935260915113097,253,1463935260895499431,,4.26238203049,-7.68050098419,166.730789185,0.00131700001657,1.0,0.0,0.0,0.0,1.0,0.0,0.0,0.0,1.0,5.18292713165,3.59756112099,-1.8902438879,1.0,0.0,0.0,0.0,1.0,0.0,0.0,0.0,1.0,-0.191536132812,-2.24576115723,9.32302068013,1.0,0.0,0.0,0.0,1.0,0.0,0.0,0.0,1.0
1463935260936788161,254,1463935260916634080,,4.25267457962,-7.70870256424,165.399780273,0.00149299995974,1.0,0.0,0.0,0.0,1.0,0.0,0.0,0.0,1.0,6.64634132385,1.2195122242,-2.62195134163,1.0,0.0,0.0,0.0,1.0,0.0,0.0,0.0,1.0,-0.172382519531,-2.14520483363,9.30865547017,1.0,0.0,0.0,0.0,1.0,0.0,0.0,0.0,1.0
1463935260952552156,255,1463935260937275190,,4.1582069397,-7.69371652603,164.0493927,0.00126499996986,1.0,0.0,0.0,0.0,1.0,0.0,0.0,0.0,1.0,6.28048801422,-2.56097555161,-5.73170757294,1.0,0.0,0.0,0.0,1.0,0.0,0.0,0.0,1.0,-0.234631762695,-1.85311208496,9.61511445171,1.0,0.0,0.0,0.0,1.0,0.0,0.0,0.0,1.0
1463935260971149056,256,1463935260958858796,,3.97750687599,-7.68335390091,162.611633301,0.00147699995432,1.0,0.0,0.0,0.0,1.0,0.0,0.0,0.0,1.0,3.90243911743,-4.75609779358,-8.10975551605,1.0,0.0,0.0,0.0,1.0,0.0,0.0,0.0,1.0,-0.416591088867,-1.86747729492,9.23204160156,1.0,0.0,0.0,0.0,1.0,0.0,0.0,0.0,1.0
1463935260987765860,257,1463935260980270058,,3.8498249054,-7.72544765472,161.195861816,0.00127500004601,1.0,0.0,0.0,0.0,1.0,0.0,0.0,0.0,1.0,0.731707334518,-1.40243899822,-3.65853667259,1.0,0.0,0.0,0.0,1.0,0.0,0.0,0.0,1.0,-1.0534486574,-1.09175595703,8.9591026123,1.0,0.0,0.0,0.0,1.0,0.0,0.0,0.0,1.0
1463935261061942990,258,1463935261002165486,,3.7436645031,-7.8644990921,159.838653564,0.0123150004074,1.0,0.0,0.0,0.0,1.0,0.0,0.0,0.0,1.0,-5.79268312454,-4.63414621353,-1.8902438879,1.0,0.0,0.0,0.0,1.0,0.0,0.0,0.0,1.0,-0.517147558594,-1.27850368652,9.5193463853,1.0,0.0,0.0,0.0,1.0,0.0,0.0,0.0,1.0
1463935261063388765,259,1463935261024061121,,3.60679554939,-8.07080459595,158.533370972,0.00189299997874,1.0,0.0,0.0,0.0,1.0,0.0,0.0,0.0,1.0,-12.8658542633,-6.34146356583,-4.2682929039,1.0,0.0,0.0,0.0,1.0,0.0,0.0,0.0,1.0,-0.15801730957,-1.13485158691,9.40921193989,1.0,0.0,0.0,0.0,1.0,0.0,0.0,0.0,1.0
1463935261063809962,260,1463935261044886709,,3.28897690773,-8.43730163574,157.062301636,0.00160700001288,1.0,0.0,0.0,0.0,1.0,0.0,0.0,0.0,1.0,-20.0609760284,-9.93902492523,-13.9634151459,1.0,0.0,0.0,0.0,1.0,0.0,0.0,0.0,1.0,0.450109912109,-1.32159931641,9.61511445171,1.0,0.0,0.0,0.0,1.0,0.0,0.0,0.0,1.0
1463935261173046474,261,1463935261066472086,,2.95703315735,-8.96181583405,155.454589844,0.00218899990432,1.0,0.0,0.0,0.0,1.0,0.0,0.0,0.0,1.0,-27.0731716156,-3.53658556938,-15.6097564697,1.0,0.0,0.0,0.0,1.0,0.0,0.0,0.0,1.0,-0.215478149414,-1.47003981934,10.0269165527,1.0,0.0,0.0,0.0,1.0,0.0,0.0,0.0,1.0
1463935261176162971,262,1463935261087935588,,2.88855004311,-9.63967895508,153.866027832,0.00168999994639,1.0,0.0,0.0,0.0,1.0,0.0,0.0,0.0,1.0,-33.2926826477,5.06097555161,-10.548781395,1.0,0.0,0.0,0.0,1.0,0.0,0.0,0.0,1.0,-0.790086547852,-1.42215578613,10.0652237793,1.0,0.0,0.0,0.0,1.0,0.0,0.0,0.0,1.0
1463935261177852339,263,1463935261109522943,,2.92027759552,-10.3673343658,152.363189697,0.00181199994404,1.0,0.0,0.0,0.0,1.0,0.0,0.0,0.0,1.0,-38.6585388184,4.57317066193,-9.45121955872,1.0,0.0,0.0,0.0,1.0,0.0,0.0,0.0,1.0,-0.588973571866,-0.809240161133,9.68693991699,1.0,0.0,0.0,0.0,1.0,0.0,0.0,0.0,1.0
1463935261178257285,264,1463935261130759467,,2.77875423431,-11.2311878204,150.841186523,0.00158000004012,1.0,0.0,0.0,0.0,1.0,0.0,0.0,0.0,1.0,-44.390247345,-6.21951246262,-15.0000009537,1.0,0.0,0.0,0.0,1.0,0.0,0.0,0.0,1.0,0.244208569336,-1.28808049316,10.9175595703,1.0,0.0,0.0,0.0,1.0,0.0,0.0,0.0,1.0
1463935261178563638,265,1463935261152409947,,2.3938293457,-12.1623344421,149.215148926,0.0103719998151,1.0,0.0,0.0,0.0,1.0,0.0,0.0,0.0,1.0,-47.6829299927,-5.85365867615,-17.7439022064,1.0,0.0,0.0,0.0,1.0,0.0,0.0,0.0,1.0,-0.225054956055,-1.33117612305,9.80186159668,1.0,0.0,0.0,0.0,1.0,0.0,0.0,0.0,1.0
1463935261180023683,266,1463935261174311052,,2.07707118988,-13.1888713837,147.588821411,0.00177800003439,1.0,0.0,0.0,0.0,1.0,0.0,0.0,0.0,1.0,-53.8414649963,-3.47560977936,-12.7439022064,1.0,0.0,0.0,0.0,1.0,0.0,0.0,0.0,1.0,-1.23540805664,-0.938527050781,10.0795889893,1.0,0.0,0.0,0.0,1.0,0.0,0.0,0.0,1.0
1463935261310906093,267,1463935261196503092,,1.77324473858,-14.2047281265,146.091827393,0.00171400001273,1.0,0.0,0.0,0.0,1.0,0.0,0.0,0.0,1.0,-54.7560997009,-7.74390268326,-10.4878053665,1.0,0.0,0.0,0.0,1.0,0.0,0.0,0.0,1.0,-0.756567724609,-1.00556469727,10.0029745361,1.0,0.0,0.0,0.0,1.0,0.0,0.0,0.0,1.0
1463935261311356716,268,1463935261216986234,,1.41115689278,-15.1786022186,144.67414856,0.00153799995314,1.0,0.0,0.0,0.0,1.0,0.0,0.0,0.0,1.0,-54.0853652954,-11.8902444839,-10.9146347046,1.0,0.0,0.0,0.0,1.0,0.0,0.0,0.0,1.0,-0.679953271484,-1.16358193377,9.7827079834,1.0,0.0,0.0,0.0,1.0,0.0,0.0,0.0,1.0
1463935261311664944,269,1463935261238869578,,0.942250013351,-16.1028747559,143.249160767,0.00148900004569,1.0,0.0,0.0,0.0,1.0,0.0,0.0,0.0,1.0,-53.2317085266,-14.4512205124,-9.93902492523,1.0,0.0,0.0,0.0,1.0,0.0,0.0,0.0,1.0,-0.359130249023,-0.833182177734,10.0795889893,1.0,0.0,0.0,0.0,1.0,0.0,0.0,0.0,1.0
1463935261313356603,270,1463935261260666151,,0.410517513752,-16.9274272919,141.857589722,0.00177900004201,1.0,0.0,0.0,0.0,1.0,0.0,0.0,0.0,1.0,-52.2560997009,-11.5243911743,-10.8536586761,1.0,0.0,0.0,0.0,1.0,0.0,0.0,0.0,1.0,-0.134075302102,-0.622492431641,10.1753570557,1.0,0.0,0.0,0.0,1.0,0.0,0.0,0.0,1.0
1463935261314902221,271,1463935261281934550,,-0.0485545396805,-17.6839885712,140.422042847,0.00149199995212,1.0,0.0,0.0,0.0,1.0,0.0,0.0,0.0,1.0,-51.5853691101,-6.82926845551,-9.51219558716,1.0,0.0,0.0,0.0,1.0,0.0,0.0,0.0,1.0,-0.325611425781,-0.292092584273,9.80186159668,1.0,0.0,0.0,0.0,1.0,0.0,0.0,0.0,1.0
1463935261315433625,272,1463935261303407583,,-0.42036563158,-18.3721256256,138.981658936,0.00262099993415,1.0,0.0,0.0,0.0,1.0,0.0,0.0,0.0,1.0,-52.7439041138,-3.53658556938,-9.02439117432,1.0,0.0,0.0,0.0,1.0,0.0,0.0,0.0,1.0,-0.15801730957,0.067037651051,9.86889924316,1.0,0.0,0.0,0.0,1.0,0.0,0.0,0.0,1.0
1463935261441989334,273,1463935261323790777,,-0.688581168652,-18.9978313446,137.635848999,0.00223300000653,1.0,0.0,0.0,0.0,1.0,0.0,0.0,0.0,1.0,-53.2317085266,-2.68292689323,-6.46341466904,1.0,0.0,0.0,0.0,1.0,0.0,0.0,0.0,1.0,-0.521935925381,0.143652099609,9.89762966309,1.0,0.0,0.0,0.0,1.0,0.0,0.0,0.0,1.0
1463935261442305427,274,1463935261344486522,,-0.916488707066,-19.6123600006,136.351898193,0.00219699996524,1.0,0.0,0.0,0.0,1.0,0.0,0.0,0.0,1.0,-52.1951255798,-5.73170757294,-2.31707310677,1.0,0.0,0.0,0.0,1.0,0.0,0.0,0.0,1.0,-1.07260241682,-0.119710083008,10.0317049561,1.0,0.0,0.0,0.0,1.0,0.0,0.0,0.0,1.0
1463935261442578082,275,1463935261364850758,,-1.23324322701,-20.1423587799,135.153213501,0.00208200002089,1.0,0.0,0.0,0.0,1.0,0.0,0.0,0.0,1.0,-49.5731735229,-17.0121955872,-7.43902492523,1.0,0.0,0.0,0.0,1.0,0.0,0.0,0.0,1.0,0.0,0.890643017578,9.96945571289,1.0,0.0,0.0,0.0,1.0,0.0,0.0,0.0,1.0
1463935261442861518,276,1463935261385419368,,-1.8681665659,-20.5838260651,133.87109375,0.0016380000161,1.0,0.0,0.0,0.0,1.0,0.0,0.0,0.0,1.0,-48.7195129395,-12.5,-9.08536529541,1.0,0.0,0.0,0.0,1.0,0.0,0.0,0.0,1.0,-0.46447512207,0.469263525391,10.1322614258,1.0,0.0,0.0,0.0,1.0,0.0,0.0,0.0,1.0
1463935261443159225,277,1463935261405897509,,-2.29083299637,-20.9879322052,132.599746704,0.00131399999373,1.0,0.0,0.0,0.0,1.0,0.0,0.0,0.0,1.0,-43.9634170532,-9.26829242706,-3.65853667259,1.0,0.0,0.0,0.0,1.0,0.0,0.0,0.0,1.0,-1.06302561017,0.407014282227,10.2232410889,1.0,0.0,0.0,0.0,1.0,0.0,0.0,0.0,1.0
1463935261444762864,278,1463935261426705545,,-2.57450795174,-21.262260437,131.407775879,0.00135799997952,1.0,0.0,0.0,0.0,1.0,0.0,0.0,0.0,1.0,-37.1951255798,-12.1341466904,0.548780500889,1.0,0.0,0.0,0.0,1.0,0.0,0.0,0.0,1.0,-1.32159931641,0.531512805087,10.2519715088,1.0,0.0,0.0,0.0,1.0,0.0,0.0,0.0,1.0
1463935261591148749,279,1463935261452816319,,-3.09765458107,-21.2728538513,130.092285156,0.0108000002801,1.0,0.0,0.0,0.0,1.0,0.0,0.0,0.0,1.0,-33.8414649963,-18.5975627899,2.07317066193,1.0,0.0,0.0,0.0,1.0,0.0,0.0,0.0,1.0,-1.03908344744,1.77649763184,10.6925046143,1.0,0.0,0.0,0.0,1.0,0.0,0.0,0.0,1.0
1463935261591437497,280,1463935261473941750,,-3.55754709244,-21.1222686768,129.043334961,0.00176599994302,1.0,0.0,0.0,0.0,1.0,0.0,0.0,0.0,1.0,-10.6097564697,-22.8658542633,9.39024448395,1.0,0.0,0.0,0.0,1.0,0.0,0.0,0.0,1.0,-2.9927520752,5.78439121094,11.4921679687,1.0,0.0,0.0,0.0,1.0,0.0,0.0,0.0,1.0
1463935261591754059,281,1463935261494308538,,-4.07159948349,-21.071434021,128.079193115,0.00186700001359,1.0,0.0,0.0,0.0,1.0,0.0,0.0,0.0,1.0,-1.03658533096,-11.6463422775,4.87804889679,1.0,0.0,0.0,0.0,1.0,0.0,0.0,0.0,1.0,0.632069238281,1.6041151123,4.72615378489,1.0,0.0,0.0,0.0,1.0,0.0,0.0,0.0,1.0
1463935261592063328,282,1463935261515123240,,-4.53532361984,-21.3304367065,127.231758118,0.00137099996209,1.0,0.0,0.0,0.0,1.0,0.0,0.0,0.0,1.0,-14.3902444839,0.0609756112099,21.6463432312,1.0,0.0,0.0,0.0,1.0,0.0,0.0,0.0,1.0,3.78283862305,-6.23928952637,1.41257897949,1.0,0.0,0.0,0.0,1.0,0.0,0.0,0.0,1.0
1463935261592371139,283,1463935261536367212,,-5.49696683884,-20.9830265045,126.511077881,0.00174099998549,1.0,0.0,0.0,0.0,1.0,0.0,0.0,0.0,1.0,31.5853652954,-15.8536596298,5.30487823486,1.0,0.0,0.0,0.0,1.0,0.0,0.0,0.0,1.0,-2.88261879883,14.0587521484,24.4543757568,1.0,0.0,0.0,0.0,1.0,0.0,0.0,0.0,1.0
1463935261592665565,284,1463935261556292179,,-5.51792573929,-20.7640857697,125.785575867,0.00152100005653,1.0,0.0,0.0,0.0,1.0,0.0,0.0,0.0,1.0,17.9268302917,-6.7682929039,12.2560977936,1.0,0.0,0.0,0.0,1.0,0.0,0.0,0.0,1.0,-1.04387185076,7.78115539551,14.6094185303,1.0,0.0,0.0,0.0,1.0,0.0,0.0,0.0,1.0
1463935261704308317,285,1463935261577150579,,-5.57848548889,-19.9860668182,125.10559082,0.00189800001681,1.0,0.0,0.0,0.0,1.0,0.0,0.0,0.0,1.0,18.7804889679,-13.5365858078,28.7804889679,1.0,0.0,0.0,0.0,1.0,0.0,0.0,0.0,1.0,-0.636857641602,5.54975944824,13.4506249268,1.0,0.0,0.0,0.0,1.0,0.0,0.0,0.0,1.0
1463935261704607170,286,1463935261598333822,,-5.74766302109,-18.9316654205,124.425712585,0.00142800004687,1.0,0.0,0.0,0.0,1.0,0.0,0.0,0.0,1.0,24.2682933807,-16.6463413239,31.9512214661,1.0,0.0,0.0,0.0,1.0,0.0,0.0,0.0,1.0,1.70467158203,5.41568415527,14.0108681152,1.0,0.0,0.0,0.0,1.0,0.0,0.0,0.0,1.0
1463935261704912273,287,1463935261618820974,,-5.80781698227,-17.5850486755,123.802268982,0.00151299999561,1.0,0.0,0.0,0.0,1.0,0.0,0.0,0.0,1.0,30.2439022064,-6.09756088257,36.0365867615,1.0,0.0,0.0,0.0,1.0,0.0,0.0,0.0,1.0,1.70467158203,7.41244833984,15.0882588623,1.0,0.0,0.0,0.0,1.0,0.0,0.0,0.0,1.0
1463935261705256542,288,1463935261641439159,,-5.76053762436,-15.9133424759,123.208389282,0.00208400003612,1.0,0.0,0.0,0.0,1.0,0.0,0.0,0.0,1.0,33.7804870605,4.57317066193,42.682926178,1.0,0.0,0.0,0.0,1.0,0.0,0.0,0.0,1.0,0.92416184082,4.09887324219,20.6571719238,1.0,0.0,0.0,0.0,1.0,0.0,0.0,0.0,1.0
1463935261705564301,289,1463935261661754749,,-5.10447216034,-14.4788284302,122.767578125,0.001408000011,1.0,0.0,0.0,0.0,1.0,0.0,0.0,0.0,1.0,43.4146347046,35.2439041138,53.1097602844,1.0,0.0,0.0,0.0,1.0,0.0,0.0,0.0,1.0,-3.01190568848,2.14520483363,16.4577422119,1.0,0.0,0.0,0.0,1.0,0.0,0.0,0.0,1.0
1463935261822314114,290,1463935261682392734,,-4.60877799988,-12.6227989197,122.478492737,0.0115710003302,1.0,0.0,0.0,0.0,1.0,0.0,0.0,0.0,1.0,38.1707305908,-6.64634132385,51.8902435303,1.0,0.0,0.0,0.0,1.0,0.0,0.0,0.0,1.0,-1.11569797363,9.38048151997,6.75643708496,1.0,0.0,0.0,0.0,1.0,0.0,0.0,0.0,1.0
1463935261822593645,291,1463935261704425191,,-4.38966751099,-11.4974880219,122.394325256,0.00355200003833,1.0,0.0,0.0,0.0,1.0,0.0,0.0,0.0,1.0,23.1097564697,-17.0731716156,52.134147644,1.0,0.0,0.0,0.0,1.0,0.0,0.0,0.0,1.0,0.708683691406,-16.5104146484,22.1032697266,1.0,0.0,0.0,0.0,1.0,0.0,0.0,0.0,1.0
1463935261822883279,292,1463935261725737132,,-4.58615350723,-5.84350538254,121.568206787,0.00202800007537,1.0,0.0,0.0,0.0,1.0,0.0,0.0,0.0,1.0,385.121948242,63.8414649963,-86.0975646973,1.0,0.0,0.0,0.0,1.0,0.0,0.0,0.0,1.0,-11.8321446045,26.4415631348,-7.64708010254,1.0,0.0,0.0,0.0,1.0,0.0,0.0,0.0,1.0
1463935261824793166,293,1463935261745870275,,-3.51280403137,-3.68069839478,121.052947998,0.00138499995228,1.0,0.0,0.0,0.0,1.0,0.0,0.0,0.0,1.0,65.3048782349,65.9756088257,46.8292694092,1.0,0.0,0.0,0.0,1.0,0.0,0.0,0.0,1.0,-5.77960280762,-32.8915400691,7.14429775391,1.0,0.0,0.0,0.0,1.0,0.0,0.0,0.0,1.0
1463935261826333264,294,1463935261780722469,,-3.0402905941,2.73720479012,120.309616089,0.0079650003463,1.0,0.0,0.0,0.0,1.0,0.0,0.0,0.0,1.0,255.670730591,-65.8536605835,20.2439022064,1.0,0.0,0.0,0.0,1.0,0.0,0.0,0.0,1.0,0.0478840332031,-28.2611563965,17.9038388456,1.0,0.0,0.0,0.0,1.0,0.0,0.0,0.0,1.0
1463935261827964455,295,1463935261792844084,,-2.36223435402,4.41390037537,119.060714722,0.00253900000826,1.0,0.0,0.0,0.0,1.0,0.0,0.0,0.0,1.0,-2.92682933807,32.9268302917,12.1341466904,1.0,0.0,0.0,0.0,1.0,0.0,0.0,0.0,1.0,-12.9957266113,3.1364041748,13.2734540039,1.0,0.0,0.0,0.0,1.0,0.0,0.0,0.0,1.0
1463935261917993341,296,1463935261813797953,,-2.52524280548,8.38956832886,118.555274963,0.00225799996406,1.0,0.0,0.0,0.0,1.0,0.0,0.0,0.0,1.0,100.182929993,-16.0975608826,40.8536605835,1.0,0.0,0.0,0.0,1.0,0.0,0.0,0.0,1.0,-6.32069238281,32.0200530029,28.5149417725,1.0,0.0,0.0,0.0,1.0,0.0,0.0,0.0,1.0
1463935261920682183,297,1463935261835467496,,-1.73276638985,7.34892463684,118.231674194,0.00222899997607,1.0,0.0,0.0,0.0,1.0,0.0,0.0,0.0,1.0,33.4756126404,38.7804870605,63.1707305908,1.0,0.0,0.0,0.0,1.0,0.0,0.0,0.0,1.0,-33.4038992244,-41.9703551025,7.42202514648,1.0,0.0,0.0,0.0,1.0,0.0,0.0,0.0,1.0
1463935261921075619,298,1463935261856859227,,-1.11640524864,12.4194660187,115.783874512,0.00180500000715,1.0,0.0,0.0,0.0,1.0,0.0,0.0,0.0,1.0,-22.9878044128,135.426834106,-16.9512195587,1.0,0.0,0.0,0.0,1.0,0.0,0.0,0.0,1.0,0.603338854892,30.0615960449,18.7896934599,1.0,0.0,0.0,0.0,1.0,0.0,0.0,0.0,1.0
1463935261921660461,299,1463935261879252152,,-0.12520045042,14.3053321838,115.058586121,0.00196600006893,1.0,0.0,0.0,0.0,1.0,0.0,0.0,0.0,1.0,192.134155273,83.2317123413,-14.2682924271,1.0,0.0,0.0,0.0,1.0,0.0,0.0,0.0,1.0,8.00142194824,15.0164328125,1.40779057617,1.0,0.0,0.0,0.0,1.0,0.0,0.0,0.0,1.0
1463935261921720929,300,1463935261899268369,,0.954919159412,16.5362911224,114.418426514,0.00186900002882,1.0,0.0,0.0,0.0,1.0,0.0,0.0,0.0,1.0,-58.9024391174,-11.0975618362,7.19512224197,1.0,0.0,0.0,0.0,1.0,0.0,0.0,0.0,1.0,-10.2184526855,5.41089575195,37.7517694393,1.0,0.0,0.0,0.0,1.0,0.0,0.0,0.0,1.0
1463935261922093688,301,1463935261919580678,,1.35753536224,16.3608093262,113.664154053,0.00173000001814,1.0,0.0,0.0,0.0,1.0,0.0,0.0,0.0,1.0,-149.268295288,33.8414649963,17.6219520569,1.0,0.0,0.0,0.0,1.0,0.0,0.0,0.0,1.0,5.5880666748,15.5575223877,17.0802346436,1.0,0.0,0.0,0.0,1.0,0.0,0.0,0.0,1.0
1463935261981963119,302,1463935261940809806,,1.3271023035,11.5808486938,113.997467041,0.0018680000212,1.0,0.0,0.0,0.0,1.0,0.0,0.0,0.0,1.0,-411.341461182,73.4146347046,-16.8902435303,1.0,0.0,0.0,0.0,1.0,0.0,0.0,0.0,1.0,5.96156213379,-37.014357666,25.8861083496,1.0,0.0,0.0,0.0,1.0,0.0,0.0,0.0,1.0
1463935261993385779,303,1463935261963214918,,1.58936131001,11.7089223862,112.776863098,0.00199300004169,1.0,0.0,0.0,0.0,1.0,0.0,0.0,0.0,1.0,316.219543457,-68.7804870605,-31.5243930817,1.0,0.0,0.0,0.0,1.0,0.0,0.0,0.0,1.0,5.01345827637,0.885854614258,3.2992098877,1.0,0.0,0.0,0.0,1.0,0.0,0.0,0.0,1.0
1463935261998434611,304,1463935261983417749,,2.27083110809,11.1940460205,111.193717957,0.00218300009146,1.0,0.0,0.0,0.0,1.0,0.0,0.0,0.0,1.0,-146.829269409,12.5609760284,-23.475610733,1.0,0.0,0.0,0.0,1.0,0.0,0.0,0.0,1.0,0.723048901367,-16.2087464083,15.8544033936,1.0,0.0,0.0,0.0,1.0,0.0,0.0,0.0,1.0
1463935262080955405,305,1463935262005060833,,2.6835258007,12.7945232391,109.742828369,0.00248700007796,1.0,0.0,0.0,0.0,1.0,0.0,0.0,0.0,1.0,44.4512176514,3.47560977936,-5.60975599289,1.0,0.0,0.0,0.0,1.0,0.0,0.0,0.0,1.0,-5.36780012207,8.11155522461,-5.04218869629,1.0,0.0,0.0,0.0,1.0,0.0,0.0,0.0,1.0
1463935262085184605,306,1463935262026685584,,3.35428953171,11.5124025345,108.450645447,0.00173699995503,1.0,0.0,0.0,0.0,1.0,0.0,0.0,0.0,1.0,-130.304870605,102.134155273,28.7195110321,1.0,0.0,0.0,0.0,1.0,0.0,0.0,0.0,1.0,6.19140549316,-23.8127297119,62.6993530762,1.0,0.0,0.0,0.0,1.0,0.0,0.0,0.0,1.0
1463935262086800015,307,1463935262048329763,,3.78769230843,12.4488286972,107.561439514,0.00173699995503,1.0,0.0,0.0,0.0,1.0,0.0,0.0,0.0,1.0,-84.3902511597,34.817073822,13.841463089,1.0,0.0,0.0,0.0,1.0,0.0,0.0,0.0,1.0,1.50355864258,18.4449295898,3.67749375,1.0,0.0,0.0,0.0,1.0,0.0,0.0,0.0,1.0
1463935262088431050,308,1463935262070020243,,4.6714758873,10.0248003006,106.54599762,0.00196600006893,1.0,0.0,0.0,0.0,1.0,0.0,0.0,0.0,1.0,13.658536911,39.2073173523,-0.365853667259,1.0,0.0,0.0,0.0,1.0,0.0,0.0,0.0,1.0,3.36145913086,-27.8637189209,-1.20188930646,1.0,0.0,0.0,0.0,1.0,0.0,0.0,0.0,1.0
1463935262163063751,309,1463935262090675728,,4.76258945465,11.9540529251,105.231781006,0.00203300011344,1.0,0.0,0.0,0.0,1.0,0.0,0.0,0.0,1.0,-259.512176514,23.658536911,-13.841463089,1.0,0.0,0.0,0.0,1.0,0.0,0.0,0.0,1.0,-11.5735708252,31.8811893066,1.99676418457,1.0,0.0,0.0,0.0,1.0,0.0,0.0,0.0,1.0
1463935262163116772,310,1463935262112641675,,4.62701129913,10.831196785,103.65461731,0.00173300004099,1.0,0.0,0.0,0.0,1.0,0.0,0.0,0.0,1.0,253.963424683,2.43902444839,-70.8536605835,1.0,0.0,0.0,0.0,1.0,0.0,0.0,0.0,1.0,2.3654710941,-10.0700121826,-0.474051928711,1.0,0.0,0.0,0.0,1.0,0.0,0.0,0.0,1.0
1463935262163471770,311,1463935262133817939,,4.43845510483,10.9133758545,101.149261475,0.00222599995323,1.0,0.0,0.0,0.0,1.0,0.0,0.0,0.0,1.0,6.46341466904,-45.9146347046,-19.3292694092,1.0,0.0,0.0,0.0,1.0,0.0,0.0,0.0,1.0,-8.95431420898,-13.9342536621,-5.29118566895,1.0,0.0,0.0,0.0,1.0,0.0,0.0,0.0,1.0
1463935262165117388,312,1463935262155017015,,3.0766108036,11.989449501,99.201751709,0.00146299996413,1.0,0.0,0.0,0.0,1.0,0.0,0.0,0.0,1.0,-71.158531189,-68.4146347046,-1.76829278469,1.0,0.0,0.0,0.0,1.0,0.0,0.0,0.0,1.0,-1.36948334961,13.1393787109,-19.1440376437,1.0,0.0,0.0,0.0,1.0,0.0,0.0,0.0,1.0
1463935262241795706,313,1463935262175555990,,1.6845895052,11.1725940704,97.1106033325,0.00184799998533,1.0,0.0,0.0,0.0,1.0,0.0,0.0,0.0,1.0,57.2560997009,-112.865859985,-12.1341466904,1.0,0.0,0.0,0.0,1.0,0.0,0.0,0.0,1.0,9.84016882324,13.3548568604,3.74453139648,1.0,0.0,0.0,0.0,1.0,0.0,0.0,0.0,1.0
1463935262242114559,314,1463935262197193293,,0.192984372377,10.8004665375,95.1131057739,0.0015419999836,1.0,0.0,0.0,0.0,1.0,0.0,0.0,0.0,1.0,107.195121765,-110.548782349,-2.43902444839,1.0,0.0,0.0,0.0,1.0,0.0,0.0,0.0,1.0,4.38138903809,-8.82502731934,6.01423457031,1.0,0.0,0.0,0.0,1.0,0.0,0.0,0.0,1.0
1463935262242421068,315,1463935262217591852,,-1.41059625149,11.0430774689,93.3542098999,0.00147200003266,1.0,0.0,0.0,0.0,1.0,0.0,0.0,0.0,1.0,-72.8048782349,-93.841468811,6.40243911743,1.0,0.0,0.0,0.0,1.0,0.0,0.0,0.0,1.0,3.87860668945,-4.34787021484,25.4455752441,1.0,0.0,0.0,0.0,1.0,0.0,0.0,0.0,1.0
1463935262242727005,316,1463935262238923323,,-3.1404337883,11.2529582977,91.6572952271,0.00143599999137,1.0,0.0,0.0,0.0,1.0,0.0,0.0,0.0,1.0,-136.34147644,-114.207321167,9.63414573669,1.0,0.0,0.0,0.0,1.0,0.0,0.0,0.0,1.0,11.2575362061,8.59039614116,20.0490447021,1.0,0.0,0.0,0.0,1.0,0.0,0.0,0.0,1.0
1463935262298095622,317,1463935262260718594,,-4.80842113495,11.6719093323,90.1605987549,0.00145099998917,1.0,0.0,0.0,0.0,1.0,0.0,0.0,0.0,1.0,-13.4756097794,-72.3170700073,-0.487804889679,1.0,0.0,0.0,0.0,1.0,0.0,0.0,0.0,1.0,-2.88261879883,20.9253225098,24.516625,1.0,0.0,0.0,0.0,1.0,0.0,0.0,0.0,1.0
1463935262299873271,318,1463935262281891368,,-6.32153129578,11.7069282532,89.0013122559,0.00162999995518,1.0,0.0,0.0,0.0,1.0,0.0,0.0,0.0,1.0,18.5975627899,-94.634147644,15.4268302917,1.0,0.0,0.0,0.0,1.0,0.0,0.0,0.0,1.0,0.330399829102,1.67594116211,6.3637880127,1.0,0.0,0.0,0.0,1.0,0.0,0.0,0.0,1.0
1463935262389448200,319,1463935262302973049,,-7.85303974152,12.4638376236,87.66355896,0.00162700004876,1.0,0.0,0.0,0.0,1.0,0.0,0.0,0.0,1.0,-184.146347046,-84.5731735229,28.0487804413,1.0,0.0,0.0,0.0,1.0,0.0,0.0,0.0,1.0,-0.943315454102,0.167594116211,-17.1281186768,1.0,0.0,0.0,0.0,1.0,0.0,0.0,0.0,1.0
1463935262389767313,320,1463935262324243583,,-8.94853973389,13.1874065399,86.6708297729,0.00167899997905,1.0,0.0,0.0,0.0,1.0,0.0,0.0,0.0,1.0,182.560974121,-121.28049469,19.1463432312,1.0,0.0,0.0,0.0,1.0,0.0,0.0,0.0,1.0,6.00944616699,41.1659033447,-20.106505542,1.0,0.0,0.0,0.0,1.0,0.0,0.0,0.0,1.0
1463935262390305540,321,1463935262344790006,,-9.61364459991,11.887799263,86.0643081665,0.00153000000864,1.0,0.0,0.0,0.0,1.0,0.0,0.0,0.0,1.0,100.060974121,-72.7439041138,43.5365867615,1.0,0.0,0.0,0.0,1.0,0.0,0.0,0.0,1.0,-4.48194550781,-24.9475812988,12.885593335,1.0,0.0,0.0,0.0,1.0,0.0,0.0,0.0,1.0
1463935262390665799,322,1463935262366511788,,-10.4247674942,12.639087677,85.4160232544,0.00204299995676,1.0,0.0,0.0,0.0,1.0,0.0,0.0,0.0,1.0,-245.975616455,31.2195129395,42.134147644,1.0,0.0,0.0,0.0,1.0,0.0,0.0,0.0,1.0,10.8505219238,-7.48427438965,21.3802208252,1.0,0.0,0.0,0.0,1.0,0.0,0.0,0.0,1.0
1463935262482634416,323,1463935262387508052,,-9.6864118576,12.2844562531,85.5851745605,0.00156700005755,1.0,0.0,0.0,0.0,1.0,0.0,0.0,0.0,1.0,-80.6707382202,159.146347046,90.6097564697,1.0,0.0,0.0,0.0,1.0,0.0,0.0,0.0,1.0,13.0914946777,6.4356140625,114.959986914,1.0,0.0,0.0,0.0,1.0,0.0,0.0,0.0,1.0
1463935262484191910,324,1463935262408962804,,-9.13549232483,14.3427829742,85.6583480835,0.00136600004043,1.0,0.0,0.0,0.0,1.0,0.0,0.0,0.0,1.0,-252.134155273,103.475608826,67.5609741211,1.0,0.0,0.0,0.0,1.0,0.0,0.0,0.0,1.0,-4.13718046875,8.10197841797,-18.2869134493,1.0,0.0,0.0,0.0,1.0,0.0,0.0,0.0,1.0
1463935262485771382,325,1463935262429721726,,-7.50934410095,13.1503925323,86.3080215454,0.00159600004554,1.0,0.0,0.0,0.0,1.0,0.0,0.0,0.0,1.0,-22.6219520569,135.792694092,24.5121955872,1.0,0.0,0.0,0.0,1.0,0.0,0.0,0.0,1.0,11.7698953613,-9.67257470703,0.0861912597656,1.0,0.0,0.0,0.0,1.0,0.0,0.0,0.0,1.0
1463935262486167318,326,1463935262451720694,,-5.82427167892,12.8556919098,87.4025878906,0.00140499998815,1.0,0.0,0.0,0.0,1.0,0.0,0.0,0.0,1.0,-81.4024429321,191.280502319,60.4878044128,1.0,0.0,0.0,0.0,1.0,0.0,0.0,0.0,1.0,15.6341368408,-3.12682736816,83.7012900391,1.0,0.0,0.0,0.0,1.0,0.0,0.0,0.0,1.0
1463935262545585345,327,1463935262473845964,,-2.47270011902,13.9781799316,87.9518203735,0.00232400000095,1.0,0.0,0.0,0.0,1.0,0.0,0.0,0.0,1.0,-65.1829299927,154.085372925,49.0243911743,1.0,0.0,0.0,0.0,1.0,0.0,0.0,0.0,1.0,-1.79565124512,13.6134306396,6.52659372559,1.0,0.0,0.0,0.0,1.0,0.0,0.0,0.0,1.0
1463935262545858104,328,1463935262495232435,,0.555496037006,12.9083633423,87.6428222656,0.00158899999224,1.0,0.0,0.0,0.0,1.0,0.0,0.0,0.0,1.0,120.060974121,109.939025879,-1.09756100178,1.0,0.0,0.0,0.0,1.0,0.0,0.0,0.0,1.0,-1.57059628906,-17.5830169922,-3.75889660645,1.0,0.0,0.0,0.0,1.0,0.0,0.0,0.0,1.0
1463935262546145499,329,1463935262516435470,,3.14727306366,12.7392683029,86.894203186,0.00144100002944,1.0,0.0,0.0,0.0,1.0,0.0,0.0,0.0,1.0,12.8658542633,95.1219558716,-16.8902435303,1.0,0.0,0.0,0.0,1.0,0.0,0.0,0.0,1.0,-11.7220113281,-6.58884296875,8.90643017578,1.0,0.0,0.0,0.0,1.0,0.0,0.0,0.0,1.0
1463935262546472789,330,1463935262538974280,,4.6098484993,13.7217483521,85.4953460693,0.0019490000559,1.0,0.0,0.0,0.0,1.0,0.0,0.0,0.0,1.0,-89.9390258789,44.390247345,-9.26829242706,1.0,0.0,0.0,0.0,1.0,0.0,0.0,0.0,1.0,-5.5641246582,2.64319863281,9.33259748677,1.0,0.0,0.0,0.0,1.0,0.0,0.0,0.0,1.0
1463935262593312901,331,1463935262560287418,,5.91926956177,13.0804309845,84.168296814,0.00173899997026,1.0,0.0,0.0,0.0,1.0,0.0,0.0,0.0,1.0,78.7804946899,40.9756088257,-4.93902444839,1.0,0.0,0.0,0.0,1.0,0.0,0.0,0.0,1.0,3.35667072754,5.73171877441,15.3324674316,1.0,0.0,0.0,0.0,1.0,0.0,0.0,0.0,1.0
1463935262593746025,332,1463935262581784722,,6.77793741226,12.3923892975,82.9406967163,0.00163199997041,1.0,0.0,0.0,0.0,1.0,0.0,0.0,0.0,1.0,-195.548782349,46.0975646973,-11.5243911743,1.0,0.0,0.0,0.0,1.0,0.0,0.0,0.0,1.0,-5.45877978516,-4.19464101633,20.5087314209,1.0,0.0,0.0,0.0,1.0,0.0,0.0,0.0,1.0
1463935262609907935,333,1463935262603888377,,6.22315168381,14.4945058823,80.4935455322,0.00172900001053,1.0,0.0,0.0,0.0,1.0,0.0,0.0,0.0,1.0,13.4146347046,-114.207321167,-53.7804908752,1.0,0.0,0.0,0.0,1.0,0.0,0.0,0.0,1.0,22.4049391357,-7.51779321289,-7.36935270996,1.0,0.0,0.0,0.0,1.0,0.0,0.0,0.0,1.0
1463935262631368989,334,1463935262625335890,,6.03304767609,9.66381072998,78.6309967041,0.00164200004656,1.0,0.0,0.0,0.0,1.0,0.0,0.0,0.0,1.0,25.3048782349,-96.3414611816,37.7439041138,1.0,0.0,0.0,0.0,1.0,0.0,0.0,0.0,1.0,-11.2192289795,-36.3535580078,23.0561619873,1.0,0.0,0.0,0.0,1.0,0.0,0.0,0.0,1.0
1463935262665354156,335,1463935262645807677,,4.43908500671,10.846871376,76.5243988037,0.00204199994914,1.0,0.0,0.0,0.0,1.0,0.0,0.0,0.0,1.0,-100.0,-30.7317066193,-47.1951255798,1.0,0.0,0.0,0.0,1.0,0.0,0.0,0.0,1.0,-3.95043273926,-28.9315328613,31.4406562012,1.0,0.0,0.0,0.0,1.0,0.0,0.0,0.0,1.0
1463935262728914249,336,1463935262667720500,,2.8362224102,11.9878892899,74.2655181885,0.00180600001477,1.0,0.0,0.0,0.0,1.0,0.0,0.0,0.0,1.0,-178.475616455,-85.4878082275,2.5,1.0,0.0,0.0,0.0,1.0,0.0,0.0,0.0,1.0,-6.48828649902,21.8159655273,-24.411280127,1.0,0.0,0.0,0.0,1.0,0.0,0.0,0.0,1.0
1463935262730817418,337,1463935262688071194,,0.539123296738,9.74544811249,72.4715270996,0.00137900002301,1.0,0.0,0.0,0.0,1.0,0.0,0.0,0.0,1.0,359.939025879,-183.963424683,13.658536911,1.0,0.0,0.0,0.0,1.0,0.0,0.0,0.0,1.0,11.9422778809,-0.517147558594,12.8520745117,1.0,0.0,0.0,0.0,1.0,0.0,0.0,0.0,1.0
1463935262731294447,338,1463935262709324385,,-1.39934909344,11.1684036255,70.6394119263,0.00177800003439,1.0,0.0,0.0,0.0,1.0,0.0,0.0,0.0,1.0,-105.304878235,-89.1463470459,-0.670731723309,1.0,0.0,0.0,0.0,1.0,0.0,0.0,0.0,1.0,-2.79642753906,-2.69108266602,17.161638669,1.0,0.0,0.0,0.0,1.0,0.0,0.0,0.0,1.0
1463935262733018033,339,1463935262729428257,,-4.02096223831,11.6620893478,69.0119476318,0.00136999995448,1.0,0.0,0.0,0.0,1.0,0.0,0.0,0.0,1.0,125.06098175,-160.548782349,13.7195129395,1.0,0.0,0.0,0.0,1.0,0.0,0.0,0.0,1.0,2.11647412145,18.8232134521,13.6661030762,1.0,0.0,0.0,0.0,1.0,0.0,0.0,0.0,1.0
1463935262889157678,340,1463935262750805353,,-5.65496397018,11.5108366013,68.3544387817,0.00135399994906,1.0,0.0,0.0,0.0,1.0,0.0,0.0,0.0,1.0,103.353660583,-110.121955872,40.5487823486,1.0,0.0,0.0,0.0,1.0,0.0,0.0,0.0,1.0,-0.167594116211,-12.2247936768,16.2757840548,1.0,0.0,0.0,0.0,1.0,0.0,0.0,0.0,1.0
1463935262889466271,341,1463935262776671128,,-7.38683080673,12.7634544373,68.0105667114,0.0061449999921,1.0,0.0,0.0,0.0,1.0,0.0,0.0,0.0,1.0,249.817077637,-47.2560958862,79.207321167,1.0,0.0,0.0,0.0,1.0,0.0,0.0,0.0,1.0,9.43794235981,-4.90811340332,-6.91445439453,1.0,0.0,0.0,0.0,1.0,0.0,0.0,0.0,1.0
1463935262889761999,342,1463935262798871658,,-7.32150316238,13.4078741074,68.4044723511,0.00200399989262,1.0,0.0,0.0,0.0,1.0,0.0,0.0,0.0,1.0,325.060974121,23.7195129395,85.9146347046,1.0,0.0,0.0,0.0,1.0,0.0,0.0,0.0,1.0,2.76290871582,19.1153072237,2.52827695312,1.0,0.0,0.0,0.0,1.0,0.0,0.0,0.0,1.0
1463935262890214393,343,1463935262819395424,,-6.67231464386,14.6715641022,69.1820144653,0.00154800002929,1.0,0.0,0.0,0.0,1.0,0.0,0.0,0.0,1.0,213.10975647,14.3902444839,113.414634705,1.0,0.0,0.0,0.0,1.0,0.0,0.0,0.0,1.0,6.84741674805,-7.01979926758,-11.9087590576,1.0,0.0,0.0,0.0,1.0,0.0,0.0,0.0,1.0
1463935262890574808,344,1463935262841655486,,-5.09027194977,14.90604496,70.0349273682,0.00169800000731,1.0,0.0,0.0,0.0,1.0,0.0,0.0,0.0,1.0,15.975610733,64.8170776367,102.012199402,1.0,0.0,0.0,0.0,1.0,0.0,0.0,0.0,1.0,6.98149204102,12.0955067871,33.6481101318,1.0,0.0,0.0,0.0,1.0,0.0,0.0,0.0,1.0
1463935262890907254,345,1463935262862975030,,-1.90027987957,11.6334314346,71.2900390625,0.00156200001948,1.0,0.0,0.0,0.0,1.0,0.0,0.0,0.0,1.0,203.536590576,-24.5121955872,97.9878082275,1.0,0.0,0.0,0.0,1.0,0.0,0.0,0.0,1.0,-10.1753570557,-38.9440842041,44.0341569336,1.0,0.0,0.0,0.0,1.0,0.0,0.0,0.0,1.0
1463935262911371073,346,1463935262883648952,,0.427025675774,16.2175731659,71.603805542,0.00204499997199,1.0,0.0,0.0,0.0,1.0,0.0,0.0,0.0,1.0,-213.414642334,165.60975647,26.7682933807,1.0,0.0,0.0,0.0,1.0,0.0,0.0,0.0,1.0,-3.18907661133,6.06211860352,-9.8545340332,1.0,0.0,0.0,0.0,1.0,0.0,0.0,0.0,1.0
1463935262911437271,347,1463935262904650945,,3.85534548759,13.4577646255,71.7378234863,0.00136500003282,1.0,0.0,0.0,0.0,1.0,0.0,0.0,0.0,1.0,8.23170757294,136.585372925,0.914634168148,1.0,0.0,0.0,0.0,1.0,0.0,0.0,0.0,1.0,-4.33350529714,-23.8414601318,-30.899566626,1.0,0.0,0.0,0.0,1.0,0.0,0.0,0.0,1.0
1463935263091957072,348,1463935262925593356,,6.68092250824,13.4946947098,70.8852081299,0.00148900004569,1.0,0.0,0.0,0.0,1.0,0.0,0.0,0.0,1.0,-80.0609741211,80.4878082275,-5.06097555161,1.0,0.0,0.0,0.0,1.0,0.0,0.0,0.0,1.0,-8.49941647808,-12.7610948486,10.2807019287,1.0,0.0,0.0,0.0,1.0,0.0,0.0,0.0,1.0
1463935263092242852,349,1463935262947102847,,8.21985435486,13.9643793106,68.9704818726,0.00206699990667,1.0,0.0,0.0,0.0,1.0,0.0,0.0,0.0,1.0,-87.6219558716,-6.21951246262,-55.3048820496,1.0,0.0,0.0,0.0,1.0,0.0,0.0,0.0,1.0,-5.42047255859,6.04296499023,13.5703350098,1.0,0.0,0.0,0.0,1.0,0.0,0.0,0.0,1.0
1463935263094765862,350,1463935262968158955,,8.60077571869,12.5199871063,66.9292068481,0.00120900000911,1.0,0.0,0.0,0.0,1.0,0.0,0.0,0.0,1.0,-157.56098938,10.9756097794,-38.2317085266,1.0,0.0,0.0,0.0,1.0,0.0,0.0,0.0,1.0,-1.5322890625,-9.65342167827,34.8787297852,1.0,0.0,0.0,0.0,1.0,0.0,0.0,0.0,1.0
1463935263095093465,351,1463935262990301881,,8.19656276703,12.897518158,64.9856872559,0.0019499999471,1.0,0.0,0.0,0.0,1.0,0.0,0.0,0.0,1.0,-89.0853652954,-33.7195129395,-9.93902492523,1.0,0.0,0.0,0.0,1.0,0.0,0.0,0.0,1.0,-1.26413847656,-7.45075556641,9.63905646831,1.0,0.0,0.0,0.0,1.0,0.0,0.0,0.0,1.0
1463935263095402265,352,1463935263011832935,,7.27485275269,13.6194257736,62.9714889526,0.00136600004043,1.0,0.0,0.0,0.0,1.0,0.0,0.0,0.0,1.0,-58.9634132385,-110.67073822,-12.9878053665,1.0,0.0,0.0,0.0,1.0,0.0,0.0,0.0,1.0,-3.28005627441,12.6988456055,-3.80199223633,1.0,0.0,0.0,0.0,1.0,0.0,0.0,0.0,1.0
1463935263095758462,353,1463935263032477430,,5.82573461533,12.4942617416,60.7283744812,0.00170999998227,1.0,0.0,0.0,0.0,1.0,0.0,0.0,0.0,1.0,282.987823486,-161.707321167,-34.5731735229,1.0,0.0,0.0,0.0,1.0,0.0,0.0,0.0,1.0,0.732625708008,36.2003291016,43.8091019775,1.0,0.0,0.0,0.0,1.0,0.0,0.0,0.0,1.0
1463935263096060335,354,1463935263053517028,,4.08427238464,11.5880384445,58.8008575439,0.00217600003816,1.0,0.0,0.0,0.0,1.0,0.0,0.0,0.0,1.0,115.731712341,-148.10975647,-8.29268264771,1.0,0.0,0.0,0.0,1.0,0.0,0.0,0.0,1.0,-4.32871689382,-23.0801040039,2.67192905273,1.0,0.0,0.0,0.0,1.0,0.0,0.0,0.0,1.0
1463935263155139458,355,1463935263074101627,,1.84074819088,12.8497362137,57.4569206238,0.0020530000329,1.0,0.0,0.0,0.0,1.0,0.0,0.0,0.0,1.0,-76.7073135376,-98.1707305908,21.341463089,1.0,0.0,0.0,0.0,1.0,0.0,0.0,0.0,1.0,4.78840361257,20.0586215088,2.89219560547,1.0,0.0,0.0,0.0,1.0,0.0,0.0,0.0,1.0
1463935263155196489,356,1463935263095324870,,0.857514023781,11.3175344467,57.0561027527,0.00146599998698,1.0,0.0,0.0,0.0,1.0,0.0,0.0,0.0,1.0,237.621963501,-162.012191772,83.5975646973,1.0,0.0,0.0,0.0,1.0,0.0,0.0,0.0,1.0,-0.550666381836,-14.2071926514,11.1282493164,1.0,0.0,0.0,0.0,1.0,0.0,0.0,0.0,1.0
1463935263155833413,357,1463935263116199885,,0.684108376503,12.5999364853,56.9876098633,0.00120299996343,1.0,0.0,0.0,0.0,1.0,0.0,0.0,0.0,1.0,136.097564697,-60.7926826477,91.2195129395,1.0,0.0,0.0,0.0,1.0,0.0,0.0,0.0,1.0,-3.0406361084,-9.65821008159,-0.0814028564453,1.0,0.0,0.0,0.0,1.0,0.0,0.0,0.0,1.0
1463935263156012631,358,1463935263137781824,,0.665563106537,14.75349617,56.8251228333,0.00141499994788,1.0,0.0,0.0,0.0,1.0,0.0,0.0,0.0,1.0,-128.231704712,1.76829278469,70.6097564697,1.0,0.0,0.0,0.0,1.0,0.0,0.0,0.0,1.0,7.42202514648,20.8630732666,-13.2926076172,1.0,0.0,0.0,0.0,1.0,0.0,0.0,0.0,1.0
1463935263507694253,359,1463935263164823271,,2.49796915054,15.3116168976,57.4517860413,0.00918599963188,1.0,0.0,0.0,0.0,1.0,0.0,0.0,0.0,1.0,322.5,64.3902435303,65.5487823486,1.0,0.0,0.0,0.0,1.0,0.0,0.0,0.0,1.0,0.488417138672,5.86100566406,-2.7820623291,1.0,0.0,0.0,0.0,1.0,0.0,0.0,0.0,1.0
1463935263507742377,360,1463935263185591203,,3.95507192612,15.0221147537,57.1802368164,0.00188200001139,1.0,0.0,0.0,0.0,1.0,0.0,0.0,0.0,1.0,-6.58536624908,49.0853652954,-31.7682914734,1.0,0.0,0.0,0.0,1.0,0.0,0.0,0.0,1.0,-0.392649072266,-25.4551520508,-4.9512090332,1.0,0.0,0.0,0.0,1.0,0.0,0.0,0.0,1.0
1463935263508271854,361,1463935263206741946,,4.83092737198,16.4725456238,56.5051193237,0.00164499995299,1.0,0.0,0.0,0.0,1.0,0.0,0.0,0.0,1.0,-123.414642334,28.4146347046,6.64634132385,1.0,0.0,0.0,0.0,1.0,0.0,0.0,0.0,1.0,-9.27034882812,27.7104900146,3.33751711426,1.0,0.0,0.0,0.0,1.0,0.0,0.0,0.0,1.0
1463935263524713503,362,1463935263227388211,,5.72393703461,14.4082841873,55.5011863708,0.00113800005056,1.0,0.0,0.0,0.0,1.0,0.0,0.0,0.0,1.0,21.2804889679,-9.75609779358,-0.12195122242,1.0,0.0,0.0,0.0,1.0,0.0,0.0,0.0,1.0,-2.47081611328,-7.73805976562,14.1401550049,1.0,0.0,0.0,0.0,1.0,0.0,0.0,0.0,1.0
1463935263524832825,363,1463935263248952755,,5.85748052597,15.4354505539,54.1619262695,0.0012080000015,1.0,0.0,0.0,0.0,1.0,0.0,0.0,0.0,1.0,-65.3048782349,4.75609779358,29.7560997009,1.0,0.0,0.0,0.0,1.0,0.0,0.0,0.0,1.0,0.995987890625,14.8248966797,-0.239420166016,1.0,0.0,0.0,0.0,1.0,0.0,0.0,0.0,1.0
1463935263530447957,364,1463935263269758134,,6.53926467896,13.5460891724,53.1637001038,0.00134800001979,1.0,0.0,0.0,0.0,1.0,0.0,0.0,0.0,1.0,256.036590576,-88.0487823486,30.2439022064,1.0,0.0,0.0,0.0,1.0,0.0,0.0,0.0,1.0,-2.77248552246,-7.71890615234,-0.15322890625,1.0,0.0,0.0,0.0,1.0,0.0,0.0,0.0,1.0
1463935263534588825,365,1463935263291084397,,6.82491445541,13.8045568466,52.6330604553,0.00136700004805,1.0,0.0,0.0,0.0,1.0,0.0,0.0,0.0,1.0,-80.6097564697,47.7439041138,26.4024391174,1.0,0.0,0.0,0.0,1.0,0.0,0.0,0.0,1.0,1.7908628418,-10.3573163818,-2.59052619629,1.0,0.0,0.0,0.0,1.0,0.0,0.0,0.0,1.0
1463935263534966584,366,1463935263311788476,,7.00667858124,15.5890398026,51.9565849304,0.00132399995346,1.0,0.0,0.0,0.0,1.0,0.0,0.0,0.0,1.0,26.4634151459,-21.158536911,40.0,1.0,0.0,0.0,0.0,1.0,0.0,0.0,0.0,1.0,8.70052883301,29.2715094971,-31.9099197266,1.0,0.0,0.0,0.0,1.0,0.0,0.0,0.0,1.0
1463935263535290957,367,1463935263334541503,,7.16671800613,16.1532497406,51.6656723022,0.00332899997011,1.0,0.0,0.0,0.0,1.0,0.0,0.0,0.0,1.0,223.475616455,-48.7195129395,55.3048820496,1.0,0.0,0.0,0.0,1.0,0.0,0.0,0.0,1.0,-10.6541973877,51.4035096436,97.9372131104,1.0,0.0,0.0,0.0,1.0,0.0,0.0,0.0,1.0
1463935263535426790,368,1463935263355239852,,7.82897377014,17.2555923462,51.1902694702,0.00148700003047,1.0,0.0,0.0,0.0,1.0,0.0,0.0,0.0,1.0,21.158536911,26.5243911743,28.475610733,1.0,0.0,0.0,0.0,1.0,0.0,0.0,0.0,1.0,6.06690700684,7.15387456055,-2.95444484863,1.0,0.0,0.0,0.0,1.0,0.0,0.0,0.0,1.0
1463935263535831216,369,1463935263377069186,,8.6834897995,15.9818878174,50.3249931335,0.00142099999357,1.0,0.0,0.0,0.0,1.0,0.0,0.0,0.0,1.0,-139.329269409,29.6341457367,-6.34146356583,1.0,0.0,0.0,0.0,1.0,0.0,0.0,0.0,1.0,15.0643168457,0.220266552734,38.5658003418,1.0,0.0,0.0,0.0,1.0,0.0,0.0,0.0,1.0
1463935263536184912,370,1463935263397658265,,9.26507377625,17.5875339508,49.2401580811,0.0012300000526,1.0,0.0,0.0,0.0,1.0,0.0,0.0,0.0,1.0,74.0853729248,-41.4024391174,-13.5365858078,1.0,0.0,0.0,0.0,1.0,0.0,0.0,0.0,1.0,1.62805712891,45.1642201172,-24.1287643311,1.0,0.0,0.0,0.0,1.0,0.0,0.0,0.0,1.0
1463935263536484338,371,1463935263418985673,,10.2141609192,14.4642877579,48.6500244141,0.00115599995479,1.0,0.0,0.0,0.0,1.0,0.0,0.0,0.0,1.0,179.878051758,-57.3780479431,16.4024391174,1.0,0.0,0.0,0.0,1.0,0.0,0.0,0.0,1.0,-1.38863696289,-13.8767928223,0.847547387695,1.0,0.0,0.0,0.0,1.0,0.0,0.0,0.0,1.0
1463935263536749493,372,1463935263439964021,,10.5966081619,15.5609931946,47.8067169189,0.00161699997261,1.0,0.0,0.0,0.0,1.0,0.0,0.0,0.0,1.0,-286.585357666,94.5121917725,38.1097564697,1.0,0.0,0.0,0.0,1.0,0.0,0.0,0.0,1.0,4.82192243582,18.0331269043,34.3615845647,1.0,0.0,0.0,0.0,1.0,0.0,0.0,0.0,1.0
1463935263537320532,373,1463935263461659189,,11.790345192,16.4160633087,47.6059036255,0.0014600000577,1.0,0.0,0.0,0.0,1.0,0.0,0.0,0.0,1.0,347.500030518,-2.92682933807,-29.8170719147,1.0,0.0,0.0,0.0,1.0,0.0,0.0,0.0,1.0,31.1198331787,-10.0652237793,-8.52335849468,1.0,0.0,0.0,0.0,1.0,0.0,0.0,0.0,1.0
1463935263537379907,374,1463935263483015921,,12.6518230438,16.0412731171,46.3678741455,0.00196500006132,1.0,0.0,0.0,0.0,1.0,0.0,0.0,0.0,1.0,-416.097564697,61.2804870605,9.45121955872,1.0,0.0,0.0,0.0,1.0,0.0,0.0,0.0,1.0,20.8678616699,9.37569311665,6.09563742676,1.0,0.0,0.0,0.0,1.0,0.0,0.0,0.0,1.0
1463935263537417407,375,1463935263507483472,,13.7159490585,12.439245224,45.7531166077,0.00410499982536,1.0,0.0,0.0,0.0,1.0,0.0,0.0,0.0,1.0,-119.451217651,87.9268341064,27.682926178,1.0,0.0,0.0,0.0,1.0,0.0,0.0,0.0,1.0,28.7208431152,-12.8377093018,21.0833398193,1.0,0.0,0.0,0.0,1.0,0.0,0.0,0.0,1.0
1463935263808000312,376,1463935263527878854,,15.1828069687,16.2730178833,45.4744606018,0.00151800003368,1.0,0.0,0.0,0.0,1.0,0.0,0.0,0.0,1.0,179.817077637,57.3780479431,-16.7073173523,1.0,0.0,0.0,0.0,1.0,0.0,0.0,0.0,1.0,6.16746347656,5.08049592285,-12.5216746826,1.0,0.0,0.0,0.0,1.0,0.0,0.0,0.0,1.0
1463935263808283905,377,1463935263549194127,,16.5342712402,14.7756652832,44.9924812317,0.00265799998306,1.0,0.0,0.0,0.0,1.0,0.0,0.0,0.0,1.0,-70.1219482422,60.1219520569,20.0609760284,1.0,0.0,0.0,0.0,1.0,0.0,0.0,0.0,1.0,0.263362164351,0.067037651051,-7.01979926758,1.0,0.0,0.0,0.0,1.0,0.0,0.0,0.0,1.0
1463935263808574008,378,1463935263569580134,,18.0227432251,13.9967985153,44.5313568115,0.00139999995008,1.0,0.0,0.0,0.0,1.0,0.0,0.0,0.0,1.0,123.292678833,61.8292655945,11.0365858078,1.0,0.0,0.0,0.0,1.0,0.0,0.0,0.0,1.0,5.00866987305,-11.0803652832,12.8951701416,1.0,0.0,0.0,0.0,1.0,0.0,0.0,0.0,1.0
1463935263808874684,379,1463935263593283730,,20.0843715668,12.8204660416,44.4533348083,0.00185200001579,1.0,0.0,0.0,0.0,1.0,0.0,0.0,0.0,1.0,-120.121955872,92.3170776367,37.5609779358,1.0,0.0,0.0,0.0,1.0,0.0,0.0,0.0,1.0,-2.5234885498,-16.6492783447,2.76769711914,1.0,0.0,0.0,0.0,1.0,0.0,0.0,0.0,1.0
1463935263809282442,380,1463935263613981246,,21.3294372559,11.8527030945,43.7120437622,0.002223999938,1.0,0.0,0.0,0.0,1.0,0.0,0.0,0.0,1.0,37.1951255798,60.6097564697,1.95121955872,1.0,0.0,0.0,0.0,1.0,0.0,0.0,0.0,1.0,-0.430956298828,6.30153876953,19.7234332764,1.0,0.0,0.0,0.0,1.0,0.0,0.0,0.0,1.0
1463935263809335984,381,1463935263635065375,,23.1593074799,12.474401474,42.9669837952,0.00331999990158,1.0,0.0,0.0,0.0,1.0,0.0,0.0,0.0,1.0,77.9878082275,81.0365905762,30.0000019073,1.0,0.0,0.0,0.0,1.0,0.0,0.0,0.0,1.0,-0.742202514648,-9.4954043687,17.908628418,1.0,0.0,0.0,0.0,1.0,0.0,0.0,0.0,1.0
1463935263809625253,382,1463935263656878667,,24.5068359375,12.5350408554,41.9487342834,0.00145900005009,1.0,0.0,0.0,0.0,1.0,0.0,0.0,0.0,1.0,-193.902450562,106.219520569,9.69512176514,1.0,0.0,0.0,0.0,1.0,0.0,0.0,0.0,1.0,3.56736047363,-8.57124252788,40.4237008301,1.0,0.0,0.0,0.0,1.0,0.0,0.0,0.0,1.0
1463935263809917544,383,1463935263679284092,,26.7082576752,11.7537021637,40.8071746826,0.00209100008942,1.0,0.0,0.0,0.0,1.0,0.0,0.0,0.0,1.0,91.341468811,45.1219520569,11.2195119858,1.0,0.0,0.0,0.0,1.0,0.0,0.0,0.0,1.0,-21.4903541016,6.82826313477,9.38526992329,1.0,0.0,0.0,0.0,1.0,0.0,0.0,0.0,1.0
1463935263810294678,384,1463935263699479891,,28.122253418,10.1099224091,40.0002632141,0.00233999988995,1.0,0.0,0.0,0.0,1.0,0.0,0.0,0.0,1.0,-183.963424683,164.146347046,37.0121955872,1.0,0.0,0.0,0.0,1.0,0.0,0.0,0.0,1.0,-5.1858407959,-22.170307373,30.6266276367,1.0,0.0,0.0,0.0,1.0,0.0,0.0,0.0,1.0
1463935263810593947,385,1463935263720383604,,28.4099750519,11.1157426834,38.3120384216,0.0019570000004,1.0,0.0,0.0,0.0,1.0,0.0,0.0,0.0,1.0,-111.158538818,32.5609779358,-34.1463432312,1.0,0.0,0.0,0.0,1.0,0.0,0.0,0.0,1.0,2.25533796387,32.6425430965,-7.72369455566,1.0,0.0,0.0,0.0,1.0,0.0,0.0,0.0,1.0
1463935263810904310,386,1463935263743129340,,29.3154067993,9.84100532532,36.6492347717,0.00184399995487,1.0,0.0,0.0,0.0,1.0,0.0,0.0,0.0,1.0,-36.5243911743,52.0121955872,-24.2073173523,1.0,0.0,0.0,0.0,1.0,0.0,0.0,0.0,1.0,-8.14986245117,30.5308595703,-2.1691467041,1.0,0.0,0.0,0.0,1.0,0.0,0.0,0.0,1.0
1463935263811201913,387,1463935263766383928,,30.5224571228,5.75426483154,34.5205612183,0.00958000030369,1.0,0.0,0.0,0.0,1.0,0.0,0.0,0.0,1.0,-157.073165894,31.158536911,-26.0365848541,1.0,0.0,0.0,0.0,1.0,0.0,0.0,0.0,1.0,3.39018955078,2.03507141113,-7.29273825684,1.0,0.0,0.0,0.0,1.0,0.0,0.0,0.0,1.0
1463935263811688265,388,1463935263788069616,,31.0740909576,4.07162189484,32.6911659241,0.0017640000442,1.0,0.0,0.0,0.0,1.0,0.0,0.0,0.0,1.0,-155.0,50.6707344055,-18.3536586761,1.0,0.0,0.0,0.0,1.0,0.0,0.0,0.0,1.0,-3.30399829102,12.0476227539,29.5731789062,1.0,0.0,0.0,0.0,1.0,0.0,0.0,0.0,1.0
1463935263812137013,389,1463935263808818278,,31.2142505646,4.03044080734,30.9033107758,0.00163299997803,1.0,0.0,0.0,0.0,1.0,0.0,0.0,0.0,1.0,88.3536605835,13.2926826477,-10.3048782349,1.0,0.0,0.0,0.0,1.0,0.0,0.0,0.0,1.0,11.2575362061,12.7754600586,-0.861912597656,1.0,0.0,0.0,0.0,1.0,0.0,0.0,0.0,1.0
1463935263913880120,390,1463935263830952610,,31.324678421,2.58583569527,29.1742992401,0.00150100002065,1.0,0.0,0.0,0.0,1.0,0.0,0.0,0.0,1.0,8.10975551605,3.41463422775,-9.93902492523,1.0,0.0,0.0,0.0,1.0,0.0,0.0,0.0,1.0,-0.517147558594,-1.70467158203,4.40054265137,1.0,0.0,0.0,0.0,1.0,0.0,0.0,0.0,1.0
1463935263914198192,391,1463935263850397944,,31.7247562408,1.07103157043,27.864572525,0.00170899997465,1.0,0.0,0.0,0.0,1.0,0.0,0.0,0.0,1.0,-96.8292694092,-5.48780488968,-16.158536911,1.0,0.0,0.0,0.0,1.0,0.0,0.0,0.0,1.0,-9.06444748535,2.58094938965,3.16992299805,1.0,0.0,0.0,0.0,1.0,0.0,0.0,0.0,1.0
1463935263914492878,392,1463935263873212117,,32.2159538269,-1.13463175297,26.1160545349,0.00235199998133,1.0,0.0,0.0,0.0,1.0,0.0,0.0,0.0,1.0,93.4146347046,-27.6219520569,-8.04878044128,1.0,0.0,0.0,0.0,1.0,0.0,0.0,0.0,1.0,-6.22492431641,-16.7498336454,-8.07803640137,1.0,0.0,0.0,0.0,1.0,0.0,0.0,0.0,1.0
1463935263914923137,393,1463935263893790987,,31.7302284241,0.83998644352,23.9025707245,0.00237199990079,1.0,0.0,0.0,0.0,1.0,0.0,0.0,0.0,1.0,-114.39024353,-10.7926826477,-2.62195134163,1.0,0.0,0.0,0.0,1.0,0.0,0.0,0.0,1.0,-4.51067592773,-8.25520732422,21.3802208252,1.0,0.0,0.0,0.0,1.0,0.0,0.0,0.0,1.0
1463935263956154366,394,1463935263915537092,,32.0499649048,-1.26963508129,22.3571681976,0.00133200001437,1.0,0.0,0.0,0.0,1.0,0.0,0.0,0.0,1.0,-10.2439022064,86.5853729248,0.304878056049,1.0,0.0,0.0,0.0,1.0,0.0,0.0,0.0,1.0,-9.60553764507,-14.2407114746,-8.25999572754,1.0,0.0,0.0,0.0,1.0,0.0,0.0,0.0,1.0
1463935263956595771,395,1463935263936016536,,31.532043457,-1.28494262695,20.9378089905,0.00144899997395,1.0,0.0,0.0,0.0,1.0,0.0,0.0,0.0,1.0,-71.8292694092,30.1219520569,-14.8780498505,1.0,0.0,0.0,0.0,1.0,0.0,0.0,0.0,1.0,3.63918652344,-5.85142885742,30.0280772217,1.0,0.0,0.0,0.0,1.0,0.0,0.0,0.0,1.0
1463935263980735303,396,1463935263957551496,,31.1378879547,-2.47277998924,19.4211578369,0.0018230000278,1.0,0.0,0.0,0.0,1.0,0.0,0.0,0.0,1.0,-61.7682952881,13.841463089,-0.243902444839,1.0,0.0,0.0,0.0,1.0,0.0,0.0,0.0,1.0,4.37181223145,-27.6099335449,20.7625167969,1.0,0.0,0.0,0.0,1.0,0.0,0.0,0.0,1.0
1463935263981259103,397,1463935263978184533,,31.5681381226,-2.31380677223,17.9343318939,0.00218100007623,1.0,0.0,0.0,0.0,1.0,0.0,0.0,0.0,1.0,-179.756103516,-6.64634132385,-9.63414573669,1.0,0.0,0.0,0.0,1.0,0.0,0.0,0.0,1.0,-5.97113894043,14.7387054199,-16.4242233887,1.0,0.0,0.0,0.0,1.0,0.0,0.0,0.0,1.0
1463935264006480714,398,1463935263999776420,,31.6655406952,-3.86186075211,16.1939163208,0.00161399994977,1.0,0.0,0.0,0.0,1.0,0.0,0.0,0.0,1.0,416.646331787,-51.2804870605,-11.2195119858,1.0,0.0,0.0,0.0,1.0,0.0,0.0,0.0,1.0,11.511321582,-3.68707055664,7.65665690918,1.0,0.0,0.0,0.0,1.0,0.0,0.0,0.0,1.0
1463935264030856078,399,1463935264022294240,,31.6102466583,-5.68392419815,14.3793516159,0.0019490000559,1.0,0.0,0.0,0.0,1.0,0.0,0.0,0.0,1.0,-58.1097564697,8.23170757294,-4.45121955872,1.0,0.0,0.0,0.0,1.0,0.0,0.0,0.0,1.0,2.09732050817,-27.1406700195,-6.12436784668,1.0,0.0,0.0,0.0,1.0,0.0,0.0,0.0,1.0
1463935264053689939,400,1463935264043665086,,31.5895214081,-5.31335544586,12.8801050186,0.00174500001594,1.0,0.0,0.0,0.0,1.0,0.0,0.0,0.0,1.0,-76.4634170532,37.6219520569,-3.84146332741,1.0,0.0,0.0,0.0,1.0,0.0,0.0,0.0,1.0,-7.85298144531,13.5847002197,-13.0388222412,1.0,0.0,0.0,0.0,1.0,0.0,0.0,0.0,1.0
1463935264078387698,401,1463935264064881610,,31.7029972076,-7.668364048,10.997420311,0.0026839999482,1.0,0.0,0.0,0.0,1.0,0.0,0.0,0.0,1.0,62.134147644,39.0853652954,2.19512200356,1.0,0.0,0.0,0.0,1.0,0.0,0.0,0.0,1.0,12.8089788818,-42.3677925781,-3.35188232422,1.0,0.0,0.0,0.0,1.0,0.0,0.0,0.0,1.0
1463935264137500518,402,1463935264086679017,,31.8899879456,-8.22339344025,9.41153526306,0.00142099999357,1.0,0.0,0.0,0.0,1.0,0.0,0.0,0.0,1.0,-234.268310547,10.4268293381,-25.7317085266,1.0,0.0,0.0,0.0,1.0,0.0,0.0,0.0,1.0,8.33660959614,30.5212827637,10.2711251221,1.0,0.0,0.0,0.0,1.0,0.0,0.0,0.0,1.0
1463935264139513426,403,1463935264108906682,,32.1059303284,-9.4354763031,7.58587408066,0.00176799995825,1.0,0.0,0.0,0.0,1.0,0.0,0.0,0.0,1.0,118.231712341,30.975610733,-5.54878091812,1.0,0.0,0.0,0.0,1.0,0.0,0.0,0.0,1.0,-6.16746347656,-24.6459118896,-1.2976572998,1.0,0.0,0.0,0.0,1.0,0.0,0.0,0.0,1.0
1463935264140227277,404,1463935264131451898,,32.1622276306,-10.2701864243,6.09264755249,0.0016309999628,1.0,0.0,0.0,0.0,1.0,0.0,0.0,0.0,1.0,29.7560997009,4.87804889679,-8.96341514587,1.0,0.0,0.0,0.0,1.0,0.0,0.0,0.0,1.0,2.11168571813,12.0141039307,2.78685073242,1.0,0.0,0.0,0.0,1.0,0.0,0.0,0.0,1.0
1463935264159442456,405,1463935264153095191,,31.7465839386,-10.1523599625,4.10526227951,0.00211800006218,1.0,0.0,0.0,0.0,1.0,0.0,0.0,0.0,1.0,5.60975599289,27.9268302917,-10.1219511032,1.0,0.0,0.0,0.0,1.0,0.0,0.0,0.0,1.0,-0.330399829102,7.96311472168,-21.9548292236,1.0,0.0,0.0,0.0,1.0,0.0,0.0,0.0,1.0
1463935264175419314,406,1463935264173006825,,32.369342804,-12.4846515656,2.27441954613,0.00219399994239,1.0,0.0,0.0,0.0,1.0,0.0,0.0,0.0,1.0,-36.4634170532,18.1707305908,-1.70731711388,1.0,0.0,0.0,0.0,1.0,0.0,0.0,0.0,1.0,1.30723410645,-8.51857009136,-7.19218178711,1.0,0.0,0.0,0.0,1.0,0.0,0.0,0.0,1.0
1463935264233811409,407,1463935264194071266,,33.0439949036,-13.4402952194,0.536304295063,0.00134700001217,1.0,0.0,0.0,0.0,1.0,0.0,0.0,0.0,1.0,-78.0487823486,33.3536605835,-12.0731716156,1.0,0.0,0.0,0.0,1.0,0.0,0.0,0.0,1.0,-3.34230551758,11.6884925049,-25.8094938965,1.0,0.0,0.0,0.0,1.0,0.0,0.0,0.0,1.0
1463935264234187240,408,1463935264217266792,,33.0076179504,-16.0062084198,-1.33998084068,0.0020530000329,1.0,0.0,0.0,0.0,1.0,0.0,0.0,0.0,1.0,225.853652954,-25.0609760284,6.09756088257,1.0,0.0,0.0,0.0,1.0,0.0,0.0,0.0,1.0,0.325611425781,-19.7904709229,10.7020814209,1.0,0.0,0.0,0.0,1.0,0.0,0.0,0.0,1.0
1463935264322045875,409,1463935264238323941,,32.8802185059,-16.091217041,-2.88075065613,0.00187999999616,1.0,0.0,0.0,0.0,1.0,0.0,0.0,0.0,1.0,-149.573165894,23.3536586761,-15.3048791885,1.0,0.0,0.0,0.0,1.0,0.0,0.0,0.0,1.0,-3.23696064453,-6.68461103516,37.3926438664,1.0,0.0,0.0,0.0,1.0,0.0,0.0,0.0,1.0
1463935264322344311,410,1463935264259309841,,32.7925453186,-15.1671695709,-5.13522434235,0.0017490000464,1.0,0.0,0.0,0.0,1.0,0.0,0.0,0.0,1.0,371.463439941,16.7073173523,-75.365852356,1.0,0.0,0.0,0.0,1.0,0.0,0.0,0.0,1.0,11.3868230957,6.22971271973,3.61524450684,1.0,0.0,0.0,0.0,1.0,0.0,0.0,0.0,1.0
1463935264322637852,411,1463935264283648227,,32.8866119385,-19.1054954529,-7.14449119568,0.0020530000329,1.0,0.0,0.0,0.0,1.0,0.0,0.0,0.0,1.0,-134.45123291,60.1219520569,-10.3048782349,1.0,0.0,0.0,0.0,1.0,0.0,0.0,0.0,1.0,-15.2654297852,-42.2432940918,-13.3357032471,1.0,0.0,0.0,0.0,1.0,0.0,0.0,0.0,1.0
1463935264323134100,412,1463935264302833301,,31.6464672089,-17.0309810638,-8.16639614105,0.00186199997552,1.0,0.0,0.0,0.0,1.0,0.0,0.0,0.0,1.0,-10.0609760284,-19.0243911743,-23.475610733,1.0,0.0,0.0,0.0,1.0,0.0,0.0,0.0,1.0,5.91846650391,25.8094938965,-5.23851323242,1.0,0.0,0.0,0.0,1.0,0.0,0.0,0.0,1.0
1463935264337141123,413,1463935264326028879,,31.5844135284,-19.606672287,-10.0635080338,0.0050840000622,1.0,0.0,0.0,0.0,1.0,0.0,0.0,0.0,1.0,166.036590576,-36.4634170532,6.58536624908,1.0,0.0,0.0,0.0,1.0,0.0,0.0,0.0,1.0,-5.95677373047,-7.68059892578,17.7793403593,1.0,0.0,0.0,0.0,1.0,0.0,0.0,0.0,1.0
1463935264348846490,414,1463935264347142591,,31.4953041077,-20.3734645844,-12.0073156357,0.00136800005566,1.0,0.0,0.0,0.0,1.0,0.0,0.0,0.0,1.0,41.4024391174,22.1341457367,3.71951246262,1.0,0.0,0.0,0.0,1.0,0.0,0.0,0.0,1.0,-4.14675698313,-9.5193463853,8.78672009277,1.0,0.0,0.0,0.0,1.0,0.0,0.0,0.0,1.0
1463935264370211659,415,1463935264367513962,,31.4603462219,-20.8427658081,-13.6888160706,0.00131700001657,1.0,0.0,0.0,0.0,1.0,0.0,0.0,0.0,1.0,124.146347046,28.4146347046,-28.4146347046,1.0,0.0,0.0,0.0,1.0,0.0,0.0,0.0,1.0,-10.2376062988,-20.6763255371,-6.62236179199,1.0,0.0,0.0,0.0,1.0,0.0,0.0,0.0,1.0
1463935264395899049,416,1463935264388840329,,31.2902622223,-21.0233974457,-15.0323553085,0.00152000004891,1.0,0.0,0.0,0.0,1.0,0.0,0.0,0.0,1.0,-9.63414573669,19.6951236725,-12.8658542633,1.0,0.0,0.0,0.0,1.0,0.0,0.0,0.0,1.0,1.7908628418,-14.8679923096,12.8281324951,1.0,0.0,0.0,0.0,1.0,0.0,0.0,0.0,1.0
1463935264413295485,417,1463935264409250294,,31.1684989929,-20.5300636292,-16.6746711731,0.00142500002403,1.0,0.0,0.0,0.0,1.0,0.0,0.0,0.0,1.0,-17.0731716156,35.4268302917,-15.548781395,1.0,0.0,0.0,0.0,1.0,0.0,0.0,0.0,1.0,-5.72214196777,18.6508309326,10.7451770508,1.0,0.0,0.0,0.0,1.0,0.0,0.0,0.0,1.0
1463935264437870692,418,1463935264429973851,,30.7459373474,-22.3590354919,-18.4092521667,0.00120900000911,1.0,0.0,0.0,0.0,1.0,0.0,0.0,0.0,1.0,-94.4512176514,60.9756088257,1.8902438879,1.0,0.0,0.0,0.0,1.0,0.0,0.0,0.0,1.0,1.44609780273,-27.5045886719,25.3593839844,1.0,0.0,0.0,0.0,1.0,0.0,0.0,0.0,1.0
1463935264453841093,419,1463935264450942043,,30.8313713074,-22.2534389496,-20.074924469,0.0017190000508,1.0,0.0,0.0,0.0,1.0,0.0,0.0,0.0,1.0,-141.219512939,22.0121955872,-8.90243911743,1.0,0.0,0.0,0.0,1.0,0.0,0.0,0.0,1.0,-3.02627089844,31.7710560303,-23.4871182861,1.0,0.0,0.0,0.0,1.0,0.0,0.0,0.0,1.0
1463935264476105685,420,1463935264471184144,,30.4519672394,-24.9900627136,-21.9122772217,0.00126599997748,1.0,0.0,0.0,0.0,1.0,0.0,0.0,0.0,1.0,41.8902435303,65.0609741211,2.01219511032,1.0,0.0,0.0,0.0,1.0,0.0,0.0,0.0,1.0,1.41257897949,-8.29830236958,25.3929028076,1.0,0.0,0.0,0.0,1.0,0.0,0.0,0.0,1.0
1463935264501347452,421,1463935264491644525,,30.1713352203,-25.5145359039,-23.3143157959,0.00132999999914,1.0,0.0,0.0,0.0,1.0,0.0,0.0,0.0,1.0,-184.268295288,44.5121955872,-29.1463413239,1.0,0.0,0.0,0.0,1.0,0.0,0.0,0.0,1.0,-1.98718737793,-1.63763393555,16.1081887695,1.0,0.0,0.0,0.0,1.0,0.0,0.0,0.0,1.0
1463935264515086716,422,1463935264512567977,,30.2581615448,-25.5553741455,-25.0633926392,0.00176599994302,1.0,0.0,0.0,0.0,1.0,0.0,0.0,0.0,1.0,272.621948242,-41.3414649963,-43.4756126404,1.0,0.0,0.0,0.0,1.0,0.0,0.0,0.0,1.0,-0.536301208408,-8.49941647808,-3.7253777832,1.0,0.0,0.0,0.0,1.0,0.0,0.0,0.0,1.0
1463935264557842367,423,1463935264534406165,,30.0355796814,-27.3470916748,-27.1132450104,0.00320499995723,1.0,0.0,0.0,0.0,1.0,0.0,0.0,0.0,1.0,82.2560958862,1.40243899822,-16.341463089,1.0,0.0,0.0,0.0,1.0,0.0,0.0,0.0,1.0,-6.73728347168,-19.134460837,13.2207815674,1.0,0.0,0.0,0.0,1.0,0.0,0.0,0.0,1.0
1463935264557880492,424,1463935264555982114,,29.7745227814,-26.6374530792,-28.8611183167,0.00147899996955,1.0,0.0,0.0,0.0,1.0,0.0,0.0,0.0,1.0,182.560974121,-12.2560977936,-22.1341457367,1.0,0.0,0.0,0.0,1.0,0.0,0.0,0.0,1.0,-3.12203896484,-17.7506099394,24.636335083,1.0,0.0,0.0,0.0,1.0,0.0,0.0,0.0,1.0
1463935264627705454,425,1463935264576943327,,29.4422111511,-27.5479717255,-30.4056816101,0.00153600005433,1.0,0.0,0.0,0.0,1.0,0.0,0.0,0.0,1.0,-259.634155273,49.3292694092,-22.1951236725,1.0,0.0,0.0,0.0,1.0,0.0,0.0,0.0,1.0,-0.77093293457,4.0557776123,58.8590536133,1.0,0.0,0.0,0.0,1.0,0.0,0.0,0.0,1.0
1463935264628553263,426,1463935264598682453,,29.3257274628,-27.608379364,-32.387046814,0.00191400002223,1.0,0.0,0.0,0.0,1.0,0.0,0.0,0.0,1.0,-49.3292694092,28.8414649963,-16.8292694092,1.0,0.0,0.0,0.0,1.0,0.0,0.0,0.0,1.0,0.837970581055,4.73573059153,-10.0748005859,1.0,0.0,0.0,0.0,1.0,0.0,0.0,0.0,1.0
1463935264628889980,427,1463935264618747836,,28.9285087585,-29.0866394043,-34.1390151978,0.00178499997128,1.0,0.0,0.0,0.0,1.0,0.0,0.0,0.0,1.0,-90.1829299927,36.2804908752,-11.6463422775,1.0,0.0,0.0,0.0,1.0,0.0,0.0,0.0,1.0,0.330399829102,5.83706364746,-16.6349119657,1.0,0.0,0.0,0.0,1.0,0.0,0.0,0.0,1.0
1463935264664353891,428,1463935264640938314,,28.3655204773,-29.392282486,-36.014957428,0.00213299994357,1.0,0.0,0.0,0.0,1.0,0.0,0.0,0.0,1.0,330.731719971,-13.7195129395,-26.5243911743,1.0,0.0,0.0,0.0,1.0,0.0,0.0,0.0,1.0,-4.56334836426,53.1560652588,60.0561544434,1.0,0.0,0.0,0.0,1.0,0.0,0.0,0.0,1.0
1463935264664789618,429,1463935264662997230,,28.5320720673,-31.3226928711,-38.3758544922,0.00197599991225,1.0,0.0,0.0,0.0,1.0,0.0,0.0,0.0,1.0,160.670730591,-74.0243911743,13.9024391174,1.0,0.0,0.0,0.0,1.0,0.0,0.0,0.0,1.0,0.742202514648,-19.3020537842,7.82903942871,1.0,0.0,0.0,0.0,1.0,0.0,0.0,0.0,1.0
1463935264719857247,430,1463935264685019115,,27.8803005219,-29.583694458,-39.8089866638,0.00173999997787,1.0,0.0,0.0,0.0,1.0,0.0,0.0,0.0,1.0,20.5487823486,10.1829271317,-11.4024391174,1.0,0.0,0.0,0.0,1.0,0.0,0.0,0.0,1.0,3.32794030762,15.3420442383,8.06845959473,1.0,0.0,0.0,0.0,1.0,0.0,0.0,0.0,1.0
1463935264720440161,431,1463935264705113039,,27.2484970093,-31.3169193268,-41.7287445068,0.00292899995111,1.0,0.0,0.0,0.0,1.0,0.0,0.0,0.0,1.0,-24.3292694092,11.0975618362,-8.59756088257,1.0,0.0,0.0,0.0,1.0,0.0,0.0,0.0,1.0,8.79150849609,0.392649072266,-2.17393510742,1.0,0.0,0.0,0.0,1.0,0.0,0.0,0.0,1.0
1463935264770689842,432,1463935264725838055,,26.8026599884,-31.8611831665,-43.1994972229,0.00249599991366,1.0,0.0,0.0,0.0,1.0,0.0,0.0,0.0,1.0,-103.658538818,24.1463432312,-22.0731716156,1.0,0.0,0.0,0.0,1.0,0.0,0.0,0.0,1.0,0.517147558594,1.42694418945,-8.56166572124,1.0,0.0,0.0,0.0,1.0,0.0,0.0,0.0,1.0
1463935264780704175,433,1463935264748171032,,26.3458747864,-31.9302272797,-44.9780693054,0.00147000001743,1.0,0.0,0.0,0.0,1.0,0.0,0.0,0.0,1.0,-13.658536911,32.4390220642,-27.6219520569,1.0,0.0,0.0,0.0,1.0,0.0,0.0,0.0,1.0,5.14274516602,-7.84340463867,-25.2731927246,1.0,0.0,0.0,0.0,1.0,0.0,0.0,0.0,1.0
1463935264780774487,434,1463935264768015218,,25.7015419006,-34.0136413574,-46.7051696777,0.00168300000951,1.0,0.0,0.0,0.0,1.0,0.0,0.0,0.0,1.0,29.3292694092,40.5487823486,-15.2439022064,1.0,0.0,0.0,0.0,1.0,0.0,0.0,0.0,1.0,15.2414877686,-21.4951425049,-4.53940634766,1.0,0.0,0.0,0.0,1.0,0.0,0.0,0.0,1.0
1463935264793277506,435,1463935264788995806,,25.4728832245,-33.633102417,-48.2149963379,0.00119500001892,1.0,0.0,0.0,0.0,1.0,0.0,0.0,0.0,1.0,-181.646347046,36.1585350037,-28.2926845551,1.0,0.0,0.0,0.0,1.0,0.0,0.0,0.0,1.0,2.27927998047,-5.89931289062,-2.7820623291,1.0,0.0,0.0,0.0,1.0,0.0,0.0,0.0,1.0
1463935264855098336,436,1463935264809673582,,24.9340267181,-34.0276985168,-50.0101623535,0.0013119999785,1.0,0.0,0.0,0.0,1.0,0.0,0.0,0.0,1.0,10.548781395,8.65853691101,-16.4024391174,1.0,0.0,0.0,0.0,1.0,0.0,0.0,0.0,1.0,1.49398183594,-9.23683000488,-35.6448743164,1.0,0.0,0.0,0.0,1.0,0.0,0.0,0.0,1.0
1463935264855963697,437,1463935264830207921,,24.8413276672,-36.7958145142,-51.9755935669,0.00131600000896,1.0,0.0,0.0,0.0,1.0,0.0,0.0,0.0,1.0,146.585372925,-29.8170719147,-6.28048801422,1.0,0.0,0.0,0.0,1.0,0.0,0.0,0.0,1.0,2.91134921875,1.73819040527,-0.258573779297,1.0,0.0,0.0,0.0,1.0,0.0,0.0,0.0,1.0
1463935264856014582,438,1463935264852453034,,24.2525463104,-34.7376785278,-53.7441177368,0.00118999998085,1.0,0.0,0.0,0.0,1.0,0.0,0.0,0.0,1.0,-6.52439069748,25.1219520569,-37.134147644,1.0,0.0,0.0,0.0,1.0,0.0,0.0,0.0,1.0,-6.54574733887,1.38384855957,12.765883252,1.0,0.0,0.0,0.0,1.0,0.0,0.0,0.0,1.0
1463935265212074257,439,1463935264874718616,,23.9321212769,-35.3577690125,-55.7319068909,0.00344399991445,1.0,0.0,0.0,0.0,1.0,0.0,0.0,0.0,1.0,19.5731716156,32.134147644,1.8292683363,1.0,0.0,0.0,0.0,1.0,0.0,0.0,0.0,1.0,0.488417138672,12.9478425781,-9.95509050293,1.0,0.0,0.0,0.0,1.0,0.0,0.0,0.0,1.0
1463935265212445350,440,1463935264896066598,,23.5255718231,-35.6053314209,-57.7287979126,0.00237099989317,1.0,0.0,0.0,0.0,1.0,0.0,0.0,0.0,1.0,107.56098175,-19.2073173523,-13.9634151459,1.0,0.0,0.0,0.0,1.0,0.0,0.0,0.0,1.0,10.0795889893,1.34554133301,-3.62003291016,1.0,0.0,0.0,0.0,1.0,0.0,0.0,0.0,1.0
1463935265212743734,441,1463935264917429215,,23.4114551544,-36.6373291016,-59.6179847717,0.00174600002356,1.0,0.0,0.0,0.0,1.0,0.0,0.0,0.0,1.0,205.426834106,-50.7926826477,-4.75609779358,1.0,0.0,0.0,0.0,1.0,0.0,0.0,0.0,1.0,-7.44596716309,50.4841362061,63.7001293701,1.0,0.0,0.0,0.0,1.0,0.0,0.0,0.0,1.0
1463935265216416270,442,1463935264938515583,,23.2610397339,-39.7028999329,-62.1585884094,0.00190399994608,1.0,0.0,0.0,0.0,1.0,0.0,0.0,0.0,1.0,65.8536605835,-4.93902444839,-36.6463432312,1.0,0.0,0.0,0.0,1.0,0.0,0.0,0.0,1.0,-9.26077202148,-31.2539084717,14.7482822266,1.0,0.0,0.0,0.0,1.0,0.0,0.0,0.0,1.0
1463935265216814081,443,1463935264960841477,,22.8595314026,-39.1305389404,-63.8004226685,0.00231899996288,1.0,0.0,0.0,0.0,1.0,0.0,0.0,0.0,1.0,-130.67074585,42.9878044128,-27.3780498505,1.0,0.0,0.0,0.0,1.0,0.0,0.0,0.0,1.0,-0.119710083008,-17.5399213623,27.9307565674,1.0,0.0,0.0,0.0,1.0,0.0,0.0,0.0,1.0
1463935265217123402,444,1463935264981087953,,22.513671875,-38.9898834229,-65.7602157593,0.00166299997363,1.0,0.0,0.0,0.0,1.0,0.0,0.0,0.0,1.0,-134.146347046,34.817073822,-52.1951255798,1.0,0.0,0.0,0.0,1.0,0.0,0.0,0.0,1.0,4.18985261301,-5.50187541504,-5.97592734375,1.0,0.0,0.0,0.0,1.0,0.0,0.0,0.0,1.0
1463935265218782822,445,1463935265004427697,,22.3368473053,-38.5379943848,-67.7845535278,0.00264599989168,1.0,0.0,0.0,0.0,1.0,0.0,0.0,0.0,1.0,-34.8780479431,44.5121955872,-8.29268264771,1.0,0.0,0.0,0.0,1.0,0.0,0.0,0.0,1.0,6.18661708984,22.5964752686,7.23048901367,1.0,0.0,0.0,0.0,1.0,0.0,0.0,0.0,1.0
1463935265218848812,446,1463935265024010478,,22.150554657,-39.6838569641,-69.8122177124,0.00223600002937,1.0,0.0,0.0,0.0,1.0,0.0,0.0,0.0,1.0,36.9512214661,57.3170776367,0.12195122242,1.0,0.0,0.0,0.0,1.0,0.0,0.0,0.0,1.0,-10.7068698242,-3.16992299805,8.61912656108,1.0,0.0,0.0,0.0,1.0,0.0,0.0,0.0,1.0
1463935265220395316,447,1463935265044869816,,22.0942192078,-39.9416618347,-71.9571151733,0.00152299995534,1.0,0.0,0.0,0.0,1.0,0.0,0.0,0.0,1.0,136.829269409,41.8292694092,-7.31707334518,1.0,0.0,0.0,0.0,1.0,0.0,0.0,0.0,1.0,-12.5264630859,-13.1154366943,7.11556733398,1.0,0.0,0.0,0.0,1.0,0.0,0.0,0.0,1.0
1463935265220757554,448,1463935265066294672,,21.503610611,-39.5040969849,-73.9769515991,0.00122900004499,1.0,0.0,0.0,0.0,1.0,0.0,0.0,0.0,1.0,93.5365905762,24.6341457367,-29.8780498505,1.0,0.0,0.0,0.0,1.0,0.0,0.0,0.0,1.0,-0.134075302102,-5.67425793457,7.06768330078,1.0,0.0,0.0,0.0,1.0,0.0,0.0,0.0,1.0
1463935265221071042,449,1463935265086828126,,21.1748180389,-39.7013053894,-75.7882156372,0.00166399998125,1.0,0.0,0.0,0.0,1.0,0.0,0.0,0.0,1.0,13.7195129395,25.9146347046,-38.7804870605,1.0,0.0,0.0,0.0,1.0,0.0,0.0,0.0,1.0,-6.12915625,10.6015249512,-12.1721212402,1.0,0.0,0.0,0.0,1.0,0.0,0.0,0.0,1.0
1463935265221386093,450,1463935265107664027,,21.2213516235,-40.8241233826,-78.0996780396,0.00129000004381,1.0,0.0,0.0,0.0,1.0,0.0,0.0,0.0,1.0,200.914642334,-43.3536567688,-34.8780479431,1.0,0.0,0.0,0.0,1.0,0.0,0.0,0.0,1.0,1.52750065918,-9.10754311523,-2.50433493652,1.0,0.0,0.0,0.0,1.0,0.0,0.0,0.0,1.0
1463935265223277491,451,1463935265128677166,,20.882686615,-42.0171585083,-80.3743133545,0.00147999997716,1.0,0.0,0.0,0.0,1.0,0.0,0.0,0.0,1.0,-200.487808228,151.036590576,0.487804889679,1.0,0.0,0.0,0.0,1.0,0.0,0.0,0.0,1.0,-3.79241542969,-8.08282480469,20.733786377,1.0,0.0,0.0,0.0,1.0,0.0,0.0,0.0,1.0
1463935265226224822,452,1463935265150192595,,20.2082138062,-41.3624076843,-82.3283843994,0.00156999996398,1.0,0.0,0.0,0.0,1.0,0.0,0.0,0.0,1.0,7.31707334518,56.6463394165,-22.1951236725,1.0,0.0,0.0,0.0,1.0,0.0,0.0,0.0,1.0,8.61912656108,20.5805574707,-6.37336481934,1.0,0.0,0.0,0.0,1.0,0.0,0.0,0.0,1.0
1463935265227882002,453,1463935265170559383,,19.644443512,-41.9066810608,-84.556060791,0.00158599996939,1.0,0.0,0.0,0.0,1.0,0.0,0.0,0.0,1.0,113.963417053,39.6951217651,-22.9268302917,1.0,0.0,0.0,0.0,1.0,0.0,0.0,0.0,1.0,5.64552751465,4.79798041921,10.9750204102,1.0,0.0,0.0,0.0,1.0,0.0,0.0,0.0,1.0
1463935265395205818,454,1463935265191957468,,19.4779033661,-42.4076156616,-86.7940139771,0.00153200002387,1.0,0.0,0.0,0.0,1.0,0.0,0.0,0.0,1.0,25.4878044128,28.1097564697,-30.0000019073,1.0,0.0,0.0,0.0,1.0,0.0,0.0,0.0,1.0,-13.4602017334,-2.57137258301,12.9813614014,1.0,0.0,0.0,0.0,1.0,0.0,0.0,0.0,1.0
1463935265395248526,455,1463935265212647901,,18.8535518646,-43.49792099,-89.0811920166,0.00198699999601,1.0,0.0,0.0,0.0,1.0,0.0,0.0,0.0,1.0,145.914642334,26.2804889679,-19.817073822,1.0,0.0,0.0,0.0,1.0,0.0,0.0,0.0,1.0,1.01514150391,-34.0311823975,28.6202866455,1.0,0.0,0.0,0.0,1.0,0.0,0.0,0.0,1.0
1463935265398023410,456,1463935265233825258,,18.3909072876,-42.7943077087,-91.1079025269,0.00179400003981,1.0,0.0,0.0,0.0,1.0,0.0,0.0,0.0,1.0,-292.804870605,8.90243911743,-46.9512214661,1.0,0.0,0.0,0.0,1.0,0.0,0.0,0.0,1.0,-0.268150604204,-20.4464821777,-17.6596314453,1.0,0.0,0.0,0.0,1.0,0.0,0.0,0.0,1.0
1463935265398277836,457,1463935265254927303,,17.6410751343,-39.907951355,-93.1856689453,0.00184299994726,1.0,0.0,0.0,0.0,1.0,0.0,0.0,0.0,1.0,624.146362305,142.256103516,-98.841468811,1.0,0.0,0.0,0.0,1.0,0.0,0.0,0.0,1.0,5.15232197266,89.0738785645,58.480769751,1.0,0.0,0.0,0.0,1.0,0.0,0.0,0.0,1.0
1463935265398433408,458,1463935265276735439,,16.9316501617,-44.1824913025,-95.7318496704,0.00184299994726,1.0,0.0,0.0,0.0,1.0,0.0,0.0,0.0,1.0,-473.231689453,239.756103516,-17.0731716156,1.0,0.0,0.0,0.0,1.0,0.0,0.0,0.0,1.0,14.1162129883,-0.244208569336,79.3486314209,1.0,0.0,0.0,0.0,1.0,0.0,0.0,0.0,1.0
1463935265398556637,459,1463935265297419570,,16.3883972168,-43.4857635498,-97.8131942749,0.00162700004876,1.0,0.0,0.0,0.0,1.0,0.0,0.0,0.0,1.0,67.3170776367,89.5731735229,-33.7195129395,1.0,0.0,0.0,0.0,1.0,0.0,0.0,0.0,1.0,-25.7376678467,13.857639209,10.0364933594,1.0,0.0,0.0,0.0,1.0,0.0,0.0,0.0,1.0
1463935265398674605,460,1463935265319291507,,15.7488327026,-43.4473266602,-100.110313416,0.00150799995754,1.0,0.0,0.0,0.0,1.0,0.0,0.0,0.0,1.0,213.231704712,34.9390258789,-31.4024391174,1.0,0.0,0.0,0.0,1.0,0.0,0.0,0.0,1.0,6.06690700684,-4.40533105469,-2.69108266602,1.0,0.0,0.0,0.0,1.0,0.0,0.0,0.0,1.0
1463935265398786272,461,1463935265341392402,,15.0565958023,-40.2176361084,-102.165527344,0.00158399995416,1.0,0.0,0.0,0.0,1.0,0.0,0.0,0.0,1.0,-32.4390220642,43.0487823486,-56.5853691101,1.0,0.0,0.0,0.0,1.0,0.0,0.0,0.0,1.0,-3.14598098145,20.1112939453,1.87705410156,1.0,0.0,0.0,0.0,1.0,0.0,0.0,0.0,1.0
1463935265398906115,462,1463935265367687082,,14.2073078156,-41.2770576477,-104.864379883,0.00733500020579,1.0,0.0,0.0,0.0,1.0,0.0,0.0,0.0,1.0,-2.98780488968,51.9512214661,-46.8292694092,1.0,0.0,0.0,0.0,1.0,0.0,0.0,0.0,1.0,-6.61278498535,-14.0012913086,43.2344935791,1.0,0.0,0.0,0.0,1.0,0.0,0.0,0.0,1.0
1463935265400604701,463,1463935265388826835,,13.7328205109,-40.7332649231,-106.878425598,0.00132899999153,1.0,0.0,0.0,0.0,1.0,0.0,0.0,0.0,1.0,-137.073181152,60.8536643982,-34.1463432312,1.0,0.0,0.0,0.0,1.0,0.0,0.0,0.0,1.0,1.8148048584,-7.75721337891,27.2891105225,1.0,0.0,0.0,0.0,1.0,0.0,0.0,0.0,1.0
1463935265448051582,464,1463935265409642996,,12.7765197754,-38.596824646,-108.681297302,0.001408000011,1.0,0.0,0.0,0.0,1.0,0.0,0.0,0.0,1.0,58.1097564697,3.17073178291,-69.8780517578,1.0,0.0,0.0,0.0,1.0,0.0,0.0,0.0,1.0,3.35188232422,11.1330377197,-48.2335866455,1.0,0.0,0.0,0.0,1.0,0.0,0.0,0.0,1.0
1463935265448115175,465,1463935265431374205,,11.974822998,-43.6838264465,-111.409111023,0.00126599997748,1.0,0.0,0.0,0.0,1.0,0.0,0.0,0.0,1.0,134.695114136,-103.292686462,-47.6219520569,1.0,0.0,0.0,0.0,1.0,0.0,0.0,0.0,1.0,-1.40779057617,-25.2923463379,-17.2574067355,1.0,0.0,0.0,0.0,1.0,0.0,0.0,0.0,1.0
1463935265500690107,466,1463935265452306876,,9.14803886414,-38.3607940674,-112.972747803,0.00158899999224,1.0,0.0,0.0,0.0,1.0,0.0,0.0,0.0,1.0,-106.341461182,-69.9390258789,-92.1951293945,1.0,0.0,0.0,0.0,1.0,0.0,0.0,0.0,1.0,-1.32638771973,19.4983783203,35.3623585205,1.0,0.0,0.0,0.0,1.0,0.0,0.0,0.0,1.0
1463935265504943891,467,1463935265473237776,,6.77881097794,-37.4077110291,-114.534538269,0.00156899995636,1.0,0.0,0.0,0.0,1.0,0.0,0.0,0.0,1.0,210.548797607,-157.256103516,-105.0,1.0,0.0,0.0,0.0,1.0,0.0,0.0,0.0,1.0,-22.1511537598,17.8751084257,-1.31681091309,1.0,0.0,0.0,0.0,1.0,0.0,0.0,0.0,1.0
1463935265504998005,468,1463935265496918196,,3.77923846245,-36.1259384155,-116.000839233,0.00398699985817,1.0,0.0,0.0,0.0,1.0,0.0,0.0,0.0,1.0,189.756103516,-108.658538818,-67.5609741211,1.0,0.0,0.0,0.0,1.0,0.0,0.0,0.0,1.0,-25.3976912109,41.0318280518,51.3268951904,1.0,0.0,0.0,0.0,1.0,0.0,0.0,0.0,1.0
1463935265524046882,469,1463935265517036287,,0.98316860199,-37.122467041,-116.910522461,0.00178399996366,1.0,0.0,0.0,0.0,1.0,0.0,0.0,0.0,1.0,13.2317075729,-127.195129395,-42.5,1.0,0.0,0.0,0.0,1.0,0.0,0.0,0.0,1.0,-10.2950671387,-18.0953773165,-8.48505126812,1.0,0.0,0.0,0.0,1.0,0.0,0.0,0.0,1.0
1463935265542328210,470,1463935265538442914,,-2.20894885063,-36.7309570312,-117.628318787,0.00131800002418,1.0,0.0,0.0,0.0,1.0,0.0,0.0,0.0,1.0,-66.4024353027,8.96341514587,-14.3902444839,1.0,0.0,0.0,0.0,1.0,0.0,0.0,0.0,1.0,-2.90656081543,-13.5511813965,22.0362320801,1.0,0.0,0.0,0.0,1.0,0.0,0.0,0.0,1.0
1463935265561035109,471,1463935265559329335,,-4.51976490021,-36.0273933411,-117.752662659,0.00185899995267,1.0,0.0,0.0,0.0,1.0,0.0,0.0,0.0,1.0,71.7682952881,-127.134147644,-10.2439022064,1.0,0.0,0.0,0.0,1.0,0.0,0.0,0.0,1.0,2.18830031738,-11.6884925049,12.2247936768,1.0,0.0,0.0,0.0,1.0,0.0,0.0,0.0,1.0
1463935265585403911,472,1463935265579782216,,-6.96752977371,-35.4163894653,-118.145423889,0.0014609999489,1.0,0.0,0.0,0.0,1.0,0.0,0.0,0.0,1.0,-137.134155273,-70.5487823486,-22.8658542633,1.0,0.0,0.0,0.0,1.0,0.0,0.0,0.0,1.0,2.68150585937,-7.49385119629,-7.87213505859,1.0,0.0,0.0,0.0,1.0,0.0,0.0,0.0,1.0
1463935265614394516,473,1463935265600829835,,-9.50866317749,-30.7161846161,-118.343521118,0.00272300001234,1.0,0.0,0.0,0.0,1.0,0.0,0.0,0.0,1.0,163.353668213,-138.231704712,-37.682926178,1.0,0.0,0.0,0.0,1.0,0.0,0.0,0.0,1.0,-1.5083470459,8.82981572266,20.8008240234,1.0,0.0,0.0,0.0,1.0,0.0,0.0,0.0,1.0
1463935265632143138,474,1463935265621456778,,-10.4607257843,-34.6149559021,-120.040489197,0.00164899998344,1.0,0.0,0.0,0.0,1.0,0.0,0.0,0.0,1.0,-160.0,36.2195129395,-10.0,1.0,0.0,0.0,0.0,1.0,0.0,0.0,0.0,1.0,-12.6509615723,-46.5767990967,-7.80988581543,1.0,0.0,0.0,0.0,1.0,0.0,0.0,0.0,1.0
1463935265648911452,475,1463935265643655745,,-12.0966014862,-29.6218662262,-120.49786377,0.00191099999938,1.0,0.0,0.0,0.0,1.0,0.0,0.0,0.0,1.0,60.4268302917,-46.7073173523,-64.9390258789,1.0,0.0,0.0,0.0,1.0,0.0,0.0,0.0,1.0,-0.205901342773,-21.6148525879,-5.99029255371,1.0,0.0,0.0,0.0,1.0,0.0,0.0,0.0,1.0
1463935265671507918,476,1463935265664975238,,-12.4383192062,-30.4202518463,-122.16192627,0.00308799999766,1.0,0.0,0.0,0.0,1.0,0.0,0.0,0.0,1.0,104.817070007,-41.7682952881,-13.4756097794,1.0,0.0,0.0,0.0,1.0,0.0,0.0,0.0,1.0,9.61032604839,15.7203281006,13.3883756836,1.0,0.0,0.0,0.0,1.0,0.0,0.0,0.0,1.0
1463935265693018503,477,1463935265686871186,,-11.9303798676,-29.3852386475,-123.708885193,0.00102500000503,1.0,0.0,0.0,0.0,1.0,0.0,0.0,0.0,1.0,117.500007629,-47.8658561707,-11.4024391174,1.0,0.0,0.0,0.0,1.0,0.0,0.0,0.0,1.0,10.0412817627,44.8960695312,18.013973291,1.0,0.0,0.0,0.0,1.0,0.0,0.0,0.0,1.0
1463935265710062805,478,1463935265706988704,,-11.4124107361,-31.1463623047,-125.271278381,0.00148500001524,1.0,0.0,0.0,0.0,1.0,0.0,0.0,0.0,1.0,109.878051758,11.7073173523,14.6951217651,1.0,0.0,0.0,0.0,1.0,0.0,0.0,0.0,1.0,9.94072529297,-27.8445653076,-1.17315874041,1.0,0.0,0.0,0.0,1.0,0.0,0.0,0.0,1.0
1463935265738707370,479,1463935265728311217,,-10.6874227524,-30.8710536957,-127.400665283,0.00127600005362,1.0,0.0,0.0,0.0,1.0,0.0,0.0,0.0,1.0,-136.89024353,96.5853729248,-7.25609779358,1.0,0.0,0.0,0.0,1.0,0.0,0.0,0.0,1.0,1.41257897949,-3.63918652344,33.5427675969,1.0,0.0,0.0,0.0,1.0,0.0,0.0,0.0,1.0
1463935265761897688,480,1463935265749906177,,-9.77875423431,-29.2428569794,-129.374298096,0.00148400000762,1.0,0.0,0.0,0.0,1.0,0.0,0.0,0.0,1.0,-107.56098175,71.5243911743,3.71951246262,1.0,0.0,0.0,0.0,1.0,0.0,0.0,0.0,1.0,15.8208845703,-10.7595422607,-21.8782147705,1.0,0.0,0.0,0.0,1.0,0.0,0.0,0.0,1.0
1463935265782663901,481,1463935265771782125,,-9.27988624573,-25.3835735321,-132.184875488,0.00155499996617,1.0,0.0,0.0,0.0,1.0,0.0,0.0,0.0,1.0,-5.36585378647,73.8414611816,-24.817073822,1.0,0.0,0.0,0.0,1.0,0.0,0.0,0.0,1.0,1.23061965332,-6.23928952637,-8.76756647949,1.0,0.0,0.0,0.0,1.0,0.0,0.0,0.0,1.0
1463935265834598887,482,1463935265793401512,,-9.13072776794,-24.919467926,-135.134262085,0.00196100003086,1.0,0.0,0.0,0.0,1.0,0.0,0.0,0.0,1.0,-166.890258789,129.024383545,-77.5609741211,1.0,0.0,0.0,0.0,1.0,0.0,0.0,0.0,1.0,6.41646044922,-26.2596038086,45.2168925537,1.0,0.0,0.0,0.0,1.0,0.0,0.0,0.0,1.0
1463935265837202887,483,1463935265815240533,,-8.08565616608,-23.6768417358,-138.064865112,0.00277099991217,1.0,0.0,0.0,0.0,1.0,0.0,0.0,0.0,1.0,-21.8292694092,150.182922363,-22.682926178,1.0,0.0,0.0,0.0,1.0,0.0,0.0,0.0,1.0,-17.4106344727,2.56179577637,14.4753432373,1.0,0.0,0.0,0.0,1.0,0.0,0.0,0.0,1.0
1463935265860491641,484,1463935265836410598,,-9.47585487366,-23.8499164581,-140.146469116,0.00157900003251,1.0,0.0,0.0,0.0,1.0,0.0,0.0,0.0,1.0,-295.731689453,78.9634170532,-50.0,1.0,0.0,0.0,0.0,1.0,0.0,0.0,0.0,1.0,13.7331407227,-14.8632039062,25.0529261719,1.0,0.0,0.0,0.0,1.0,0.0,0.0,0.0,1.0
1463935265860551329,485,1463935265856859157,,-9.66478347778,-22.4883499146,-142.106567383,0.00294000003487,1.0,0.0,0.0,0.0,1.0,0.0,0.0,0.0,1.0,96.7682952881,-16.6463413239,-70.8536605835,1.0,0.0,0.0,0.0,1.0,0.0,0.0,0.0,1.0,-7.87213505859,26.475081958,12.1098719971,1.0,0.0,0.0,0.0,1.0,0.0,0.0,0.0,1.0
1463935265882876962,486,1463935265878331148,,-10.4318351746,-20.2710437775,-144.604629517,0.00197499990463,1.0,0.0,0.0,0.0,1.0,0.0,0.0,0.0,1.0,507.012207031,-58.1097564697,-138.475616455,1.0,0.0,0.0,0.0,1.0,0.0,0.0,0.0,1.0,9.77791958008,2.4516625,-13.3117612305,1.0,0.0,0.0,0.0,1.0,0.0,0.0,0.0,1.0
1463935265912677147,487,1463935265898866425,,-13.358757019,-19.7983417511,-146.863143921,0.00175199995283,1.0,0.0,0.0,0.0,1.0,0.0,0.0,0.0,1.0,-480.975616455,24.3292694092,-15.7926826477,1.0,0.0,0.0,0.0,1.0,0.0,0.0,0.0,1.0,-16.9748897705,12.0332575439,-40.8881759521,1.0,0.0,0.0,0.0,1.0,0.0,0.0,0.0,1.0
1463935265924393504,488,1463935265919564097,,-13.3825435638,-19.5211200714,-148.364044189,0.00196300004609,1.0,0.0,0.0,0.0,1.0,0.0,0.0,0.0,1.0,441.341461182,-77.1951217651,-54.5731735229,1.0,0.0,0.0,0.0,1.0,0.0,0.0,0.0,1.0,17.7218795194,71.1604617432,105.024050024,1.0,0.0,0.0,0.0,1.0,0.0,0.0,0.0,1.0
1463935265957677840,489,1463935265939921458,,-14.4450092316,-21.5698261261,-149.844955444,0.00158599996939,1.0,0.0,0.0,0.0,1.0,0.0,0.0,0.0,1.0,-60.9756088257,-180.121948242,-2.74390244484,1.0,0.0,0.0,0.0,1.0,0.0,0.0,0.0,1.0,-0.517147558594,-24.1287643311,-26.728867334,1.0,0.0,0.0,0.0,1.0,0.0,0.0,0.0,1.0
1463935265977236871,490,1463935265961771417,,-15.5667552948,-18.8789558411,-151.341384888,0.00167699996382,1.0,0.0,0.0,0.0,1.0,0.0,0.0,0.0,1.0,-186.890258789,32.0731697083,-42.2560958862,1.0,0.0,0.0,0.0,1.0,0.0,0.0,0.0,1.0,1.46525141602,-3.0166940918,-11.3341506592,1.0,0.0,0.0,0.0,1.0,0.0,0.0,0.0,1.0
1463935266003102907,491,1463935265983134034,,-15.6591901779,-18.318353653,-152.569992065,0.00153799995314,1.0,0.0,0.0,0.0,1.0,0.0,0.0,0.0,1.0,188.414642334,12.7439022064,7.62195110321,1.0,0.0,0.0,0.0,1.0,0.0,0.0,0.0,1.0,7.97747993164,31.5220590576,-3.41413156738,1.0,0.0,0.0,0.0,1.0,0.0,0.0,0.0,1.0
1463935266019543305,492,1463935266004485088,,-14.352063179,-17.7636814117,-154.256912231,0.0029349999968,1.0,0.0,0.0,0.0,1.0,0.0,0.0,0.0,1.0,25.1219520569,65.7926864624,50.6707344055,1.0,0.0,0.0,0.0,1.0,0.0,0.0,0.0,1.0,3.01190568848,-21.0163021729,30.6266276367,1.0,0.0,0.0,0.0,1.0,0.0,0.0,0.0,1.0
1463935266035455633,493,1463935266025005053,,-13.6347122192,-16.2117595673,-156.050750732,0.0011490000179,1.0,0.0,0.0,0.0,1.0,0.0,0.0,0.0,1.0,-256.341491699,88.0487823486,-34.9390258789,1.0,0.0,0.0,0.0,1.0,0.0,0.0,0.0,1.0,-1.24498486328,8.05888278809,-29.1948950439,1.0,0.0,0.0,0.0,1.0,0.0,0.0,0.0,1.0
1463935266053985762,494,1463935266046165535,,-12.2686252594,-16.0731906891,-157.937850952,0.00159899995197,1.0,0.0,0.0,0.0,1.0,0.0,0.0,0.0,1.0,445.0,97.8048782349,-39.2682914734,1.0,0.0,0.0,0.0,1.0,0.0,0.0,0.0,1.0,-33.8827395564,103.946659277,156.901611597,1.0,0.0,0.0,0.0,1.0,0.0,0.0,0.0,1.0
1463935266075894158,495,1463935266067151695,,-11.2463321686,-16.1221961975,-160.773498535,0.00106699997559,1.0,0.0,0.0,0.0,1.0,0.0,0.0,0.0,1.0,77.5609741211,-18.3536586761,-88.5975646973,1.0,0.0,0.0,0.0,1.0,0.0,0.0,0.0,1.0,4.9512090332,-15.4186586914,16.6109711182,1.0,0.0,0.0,0.0,1.0,0.0,0.0,0.0,1.0
1463935266095098763,496,1463935266088514521,,-10.8543491364,-13.9567975998,-163.01399231,0.00147699995432,1.0,0.0,0.0,0.0,1.0,0.0,0.0,0.0,1.0,228.902435303,21.341463089,-51.6463432312,1.0,0.0,0.0,0.0,1.0,0.0,0.0,0.0,1.0,-12.5791355225,70.427831359,88.2215427734,1.0,0.0,0.0,0.0,1.0,0.0,0.0,0.0,1.0
1463935266115895601,497,1463935266109773857,,-10.3967514038,-12.5829696655,-165.808929443,0.00126000004821,1.0,0.0,0.0,0.0,1.0,0.0,0.0,0.0,1.0,7.74390268326,-9.20731735229,-75.3048782349,1.0,0.0,0.0,0.0,1.0,0.0,0.0,0.0,1.0,3.26569106445,-6.4834980957,-3.87381828613,1.0,0.0,0.0,0.0,1.0,0.0,0.0,0.0,1.0
1463935266145339903,498,1463935266138414516,,-10.3483409882,-11.7043733597,-169.083343506,0.00804600026459,1.0,0.0,0.0,0.0,1.0,0.0,0.0,0.0,1.0,-100.426826477,6.0365858078,-72.134147644,1.0,0.0,0.0,0.0,1.0,0.0,0.0,0.0,1.0,1.36469494629,-2.93529123535,37.8523282471,1.0,0.0,0.0,0.0,1.0,0.0,0.0,0.0,1.0
1463935266164445290,499,1463935266158718908,,-11.1437492371,-9.05423736572,-171.600311279,0.00130600004923,1.0,0.0,0.0,0.0,1.0,0.0,0.0,0.0,1.0,101.768295288,-81.2195129395,-42.1951255798,1.0,0.0,0.0,0.0,1.0,0.0,0.0,0.0,1.0,11.1809217529,24.2724164307,17.0658706026,1.0,0.0,0.0,0.0,1.0,0.0,0.0,0.0,1.0
1463935266185935302,500,1463935266178404865,,-12.0190629959,-9.26136779785,-174.314422607,0.001719999942,1.0,0.0,0.0,0.0,1.0,0.0,0.0,0.0,1.0,27.9878063202,-47.6219520569,-51.5853691101,1.0,0.0,0.0,0.0,1.0,0.0,0.0,0.0,1.0,-9.24640681152,-21.2700875488,16.1081887695,1.0,0.0,0.0,0.0,1.0,0.0,0.0,0.0,1.0
1463935266209661294,501,1463935266199761545,,-14.0088815689,-8.77976608276,-177.004989624,0.00243999995291,1.0,0.0,0.0,0.0,1.0,0.0,0.0,0.0,1.0,-155.914642334,31.7073192596,-74.0243911743,1.0,0.0,0.0,0.0,1.0,0.0,0.0,0.0,1.0,5.25287844238,-6.59363137207,109.065462427,1.0,0.0,0.0,0.0,1.0,0.0,0.0,0.0,1.0
1463935266238076902,502,1463935266223774203,,-16.1000976562,-6.56272125244,-179.023452759,0.0081839999184,1.0,0.0,0.0,0.0,1.0,0.0,0.0,0.0,1.0,15.4268302917,-95.2439041138,-63.1707305908,1.0,0.0,0.0,0.0,1.0,0.0,0.0,0.0,1.0,-11.3149970459,46.8784685059,-15.7873657471,1.0,0.0,0.0,0.0,1.0,0.0,0.0,0.0,1.0
1463935266261887581,503,1463935266252682725,,-19.0050258636,-7.72515201569,178.510116577,0.0116069996729,1.0,0.0,0.0,0.0,1.0,0.0,0.0,0.0,1.0,-19.0243911743,-106.097564697,-20.4878044128,1.0,0.0,0.0,0.0,1.0,0.0,0.0,0.0,1.0,7.67102211914,-25.383326001,-16.0219975098,1.0,0.0,0.0,0.0,1.0,0.0,0.0,0.0,1.0
1463935266277934127,504,1463935266273909249,,-20.9173164368,-6.62893009186,176.687164307,0.00148300000001,1.0,0.0,0.0,0.0,1.0,0.0,0.0,0.0,1.0,-181.707321167,-77.6219558716,-24.0853652954,1.0,0.0,0.0,0.0,1.0,0.0,0.0,0.0,1.0,3.51468803711,-6.14352145996,-1.92493813477,1.0,0.0,0.0,0.0,1.0,0.0,0.0,0.0,1.0
1463935266312248824,505,1463935266295499834,,-22.328458786,-7.26847648621,175.571380615,0.00177700002678,1.0,0.0,0.0,0.0,1.0,0.0,0.0,0.0,1.0,14.8170728683,-54.2682914734,-22.9268302917,1.0,0.0,0.0,0.0,1.0,0.0,0.0,0.0,1.0,12.5935007324,-23.3578313965,9.38526992329,1.0,0.0,0.0,0.0,1.0,0.0,0.0,0.0,1.0
1463935266334646854,506,1463935266316331099,,-23.5705089569,-6.21033716202,173.999969482,0.00137399998493,1.0,0.0,0.0,0.0,1.0,0.0,0.0,0.0,1.0,-257.926849365,-47.5609779358,-18.475610733,1.0,0.0,0.0,0.0,1.0,0.0,0.0,0.0,1.0,7.17302817383,-25.6131693604,-5.35822331543,1.0,0.0,0.0,0.0,1.0,0.0,0.0,0.0,1.0
1463935266376033239,507,1463935266337594758,,-24.3849468231,-5.050593853,172.659042358,0.00124899996445,1.0,0.0,0.0,0.0,1.0,0.0,0.0,0.0,1.0,20.0609760284,-2.86585378647,-10.6097564697,1.0,0.0,0.0,0.0,1.0,0.0,0.0,0.0,1.0,14.470554834,-0.258573779297,8.41801245259,1.0,0.0,0.0,0.0,1.0,0.0,0.0,0.0,1.0
1463935266376397717,508,1463935266358858469,,-24.5782775879,-5.14979076385,171.067504883,0.00123199995141,1.0,0.0,0.0,0.0,1.0,0.0,0.0,0.0,1.0,158.109771729,-93.0487823486,-4.2682929039,1.0,0.0,0.0,0.0,1.0,0.0,0.0,0.0,1.0,10.9031943604,17.1185418701,59.8406762939,1.0,0.0,0.0,0.0,1.0,0.0,0.0,0.0,1.0
1463935266420010655,509,1463935266380291919,,-24.9947605133,-3.76356816292,169.211105347,0.00154500000644,1.0,0.0,0.0,0.0,1.0,0.0,0.0,0.0,1.0,-23.475610733,-8.47560977936,-25.4878044128,1.0,0.0,0.0,0.0,1.0,0.0,0.0,0.0,1.0,9.22725319824,-6.72291826172,-3.31357509766,1.0,0.0,0.0,0.0,1.0,0.0,0.0,0.0,1.0
1463935266420277998,510,1463935266401890004,,-24.9119758606,-1.91645789146,167.493774414,0.00136800005566,1.0,0.0,0.0,0.0,1.0,0.0,0.0,0.0,1.0,-49.207321167,2.62195134163,-26.3414649963,1.0,0.0,0.0,0.0,1.0,0.0,0.0,0.0,1.0,3.38540114746,10.3285859619,18.0618573242,1.0,0.0,0.0,0.0,1.0,0.0,0.0,0.0,1.0
1463935266432382530,511,1463935266422649134,,-24.5054855347,-1.94326007366,165.915466309,0.002015999984,1.0,0.0,0.0,0.0,1.0,0.0,0.0,0.0,1.0,-117.012191772,41.4024391174,-33.5975608826,1.0,0.0,0.0,0.0,1.0,0.0,0.0,0.0,1.0,10.1370498291,-7.29273825684,14.6620909668,1.0,0.0,0.0,0.0,1.0,0.0,0.0,0.0,1.0
1463935266471959288,512,1463935266444172844,,-23.7738342285,-0.926371634007,164.118591309,0.0017719999887,1.0,0.0,0.0,0.0,1.0,0.0,0.0,0.0,1.0,-160.304885864,54.207321167,-14.6951217651,1.0,0.0,0.0,0.0,1.0,0.0,0.0,0.0,1.0,-0.344765039063,-3.75889660645,22.9077214844,1.0,0.0,0.0,0.0,1.0,0.0,0.0,0.0,1.0
1463935266472119547,513,1463935266465766710,,-22.8693218231,-0.378348052502,162.862197876,0.00222599995323,1.0,0.0,0.0,0.0,1.0,0.0,0.0,0.0,1.0,-48.3536567688,35.7317085266,-6.28048801422,1.0,0.0,0.0,0.0,1.0,0.0,0.0,0.0,1.0,-1.08217922346,1.73819040527,-4.46758029785,1.0,0.0,0.0,0.0,1.0,0.0,0.0,0.0,1.0
1463935266500528853,514,1463935266486663079,,-21.6392459869,-0.417124152184,161.422073364,0.00122099998407,1.0,0.0,0.0,0.0,1.0,0.0,0.0,0.0,1.0,-12.9878053665,37.7439041138,-12.8048782349,1.0,0.0,0.0,0.0,1.0,0.0,0.0,0.0,1.0,-7.96311472168,-1.72861359863,-3.44765039062,1.0,0.0,0.0,0.0,1.0,0.0,0.0,0.0,1.0
1463935266541748312,515,1463935266507206845,,-20.3169364929,0.209175124764,159.702468872,0.00128700002097,1.0,0.0,0.0,0.0,1.0,0.0,0.0,0.0,1.0,-27.1951236725,68.7804870605,-19.7560977936,1.0,0.0,0.0,0.0,1.0,0.0,0.0,0.0,1.0,-4.77403840261,-14.6716677734,17.4106344727,1.0,0.0,0.0,0.0,1.0,0.0,0.0,0.0,1.0
1463935266543718095,516,1463935266529027221,,-19.5736846924,0.929507791996,157.658554077,0.00137600000016,1.0,0.0,0.0,0.0,1.0,0.0,0.0,0.0,1.0,-81.2195129395,10.1829271317,-26.8292694092,1.0,0.0,0.0,0.0,1.0,0.0,0.0,0.0,1.0,4.40533105469,-8.08282480469,20.5278850342,1.0,0.0,0.0,0.0,1.0,0.0,0.0,0.0,1.0
1463935266557920482,517,1463935266551527801,,-18.6748390198,1.26719152927,156.03503418,0.00141100003384,1.0,0.0,0.0,0.0,1.0,0.0,0.0,0.0,1.0,98.2317047119,42.9268302917,-27.0121955872,1.0,0.0,0.0,0.0,1.0,0.0,0.0,0.0,1.0,-0.814028564453,-11.525686792,19.5175319336,1.0,0.0,0.0,0.0,1.0,0.0,0.0,0.0,1.0
1463935266577532899,518,1463935266572166359,,-17.9098453522,1.54686796665,153.761230469,0.00166700000409,1.0,0.0,0.0,0.0,1.0,0.0,0.0,0.0,1.0,-138.84147644,66.7682952881,-15.548781395,1.0,0.0,0.0,0.0,1.0,0.0,0.0,0.0,1.0,-8.94952580566,-22.7880114014,16.8743321317,1.0,0.0,0.0,0.0,1.0,0.0,0.0,0.0,1.0
1463935266612771342,519,1463935266592978718,,-17.9618625641,3.52660036087,151.896453857,0.00189499999397,1.0,0.0,0.0,0.0,1.0,0.0,0.0,0.0,1.0,-25.9146347046,37.9878044128,-29.9390258789,1.0,0.0,0.0,0.0,1.0,0.0,0.0,0.0,1.0,11.511321582,3.78762702637,25.1199638184,1.0,0.0,0.0,0.0,1.0,0.0,0.0,0.0,1.0
1463935266626356857,520,1463935266614791593,,-17.8619232178,4.45933198929,149.889450073,0.00187499995809,1.0,0.0,0.0,0.0,1.0,0.0,0.0,0.0,1.0,58.9024391174,-35.3658561707,-28.5365848541,1.0,0.0,0.0,0.0,1.0,0.0,0.0,0.0,1.0,0.105344873047,-9.4954043687,6.07648381348,1.0,0.0,0.0,0.0,1.0,0.0,0.0,0.0,1.0
1463935266663670968,521,1463935266640418203,,-17.9316425323,6.04248476028,147.792495728,0.00364400004037,1.0,0.0,0.0,0.0,1.0,0.0,0.0,0.0,1.0,125.60975647,-45.6097564697,-29.3292694092,1.0,0.0,0.0,0.0,1.0,0.0,0.0,0.0,1.0,-7.53694682617,1.28808049316,-4.98951625977,1.0,0.0,0.0,0.0,1.0,0.0,0.0,0.0,1.0
1463935266664060497,522,1463935266656382926,,-17.5755119324,4.76545810699,145.839996338,0.00140199996531,1.0,0.0,0.0,0.0,1.0,0.0,0.0,0.0,1.0,-0.487804889679,-14.6341466904,-28.1707324982,1.0,0.0,0.0,0.0,1.0,0.0,0.0,0.0,1.0,-11.6070896484,-23.0705271973,-4.51546433105,1.0,0.0,0.0,0.0,1.0,0.0,0.0,0.0,1.0
1463935266683653643,523,1463935266677711168,,-18.067483902,6.16652870178,143.887542725,0.00143399997614,1.0,0.0,0.0,0.0,1.0,0.0,0.0,0.0,1.0,-173.414627075,-21.7682933807,-30.4268321991,1.0,0.0,0.0,0.0,1.0,0.0,0.0,0.0,1.0,-4.35265861816,31.8093632568,19.3164201632,1.0,0.0,0.0,0.0,1.0,0.0,0.0,0.0,1.0
1463935266705216519,524,1463935266699099983,,-18.1637096405,5.29184627533,142.171463013,0.00129199994262,1.0,0.0,0.0,0.0,1.0,0.0,0.0,0.0,1.0,93.841468811,-50.4878082275,-7.37804937363,1.0,0.0,0.0,0.0,1.0,0.0,0.0,0.0,1.0,-0.392649072266,-13.6230074463,6.47870969238,1.0,0.0,0.0,0.0,1.0,0.0,0.0,0.0,1.0
1463935266726137263,525,1463935266719869217,,-18.3837547302,6.67109632492,140.497711182,0.00138999999035,1.0,0.0,0.0,0.0,1.0,0.0,0.0,0.0,1.0,161.829269409,-81.2804870605,-2.13414645195,1.0,0.0,0.0,0.0,1.0,0.0,0.0,0.0,1.0,-1.24019645996,-16.6588551514,-5.60722028809,1.0,0.0,0.0,0.0,1.0,0.0,0.0,0.0,1.0
1463935266760533835,526,1463935266743229951,,-18.376455307,5.81186103821,138.832138062,0.00140399998054,1.0,0.0,0.0,0.0,1.0,0.0,0.0,0.0,1.0,-63.5365829468,24.7560977936,3.17073178291,1.0,0.0,0.0,0.0,1.0,0.0,0.0,0.0,1.0,-13.0771294678,-15.9932670898,-17.1376954834,1.0,0.0,0.0,0.0,1.0,0.0,0.0,0.0,1.0
1463935266834642424,527,1463935266763197053,,-18.3289966583,9.48274993896,137.164718628,0.00162999995518,1.0,0.0,0.0,0.0,1.0,0.0,0.0,0.0,1.0,250.853668213,-31.8292694092,-51.3414649963,1.0,0.0,0.0,0.0,1.0,0.0,0.0,0.0,1.0,-2.82036955566,27.207707666,2.45645090332,1.0,0.0,0.0,0.0,1.0,0.0,0.0,0.0,1.0
1463935266839537039,528,1463935266785184511,,-18.3297481537,9.27244281769,135.453918457,0.00228299992159,1.0,0.0,0.0,0.0,1.0,0.0,0.0,0.0,1.0,190.182922363,-59.1463394165,0.792682945728,1.0,0.0,0.0,0.0,1.0,0.0,0.0,0.0,1.0,10.7116582275,7.21133540039,7.80509741211,1.0,0.0,0.0,0.0,1.0,0.0,0.0,0.0,1.0
1463935266839887975,529,1463935266806089057,,-18.0865688324,8.75466823578,133.839523315,0.00375699996948,1.0,0.0,0.0,0.0,1.0,0.0,0.0,0.0,1.0,114.817077637,-88.4146347046,-31.0365867615,1.0,0.0,0.0,0.0,1.0,0.0,0.0,0.0,1.0,-11.7555301514,-13.9869260986,-0.694318481445,1.0,0.0,0.0,0.0,1.0,0.0,0.0,0.0,1.0
1463935266842549213,530,1463935266826981832,,-17.9054012299,10.6853275299,132.046188354,0.00132000003941,1.0,0.0,0.0,0.0,1.0,0.0,0.0,0.0,1.0,-41.4634170532,5.0,-12.6829271317,1.0,0.0,0.0,0.0,1.0,0.0,0.0,0.0,1.0,-4.75488478933,-6.95276162109,20.7816704102,1.0,0.0,0.0,0.0,1.0,0.0,0.0,0.0,1.0
1463935267012369998,531,1463935266848716323,,-18.0237312317,12.5158061981,130.544845581,0.00140700000338,1.0,0.0,0.0,0.0,1.0,0.0,0.0,0.0,1.0,2.31707310677,-25.0,-2.98780488968,1.0,0.0,0.0,0.0,1.0,0.0,0.0,0.0,1.0,6.98149204102,9.39484672993,-15.1840269287,1.0,0.0,0.0,0.0,1.0,0.0,0.0,0.0,1.0
1463935267012407862,532,1463935266871808151,,-18.1448612213,10.0711278915,128.655761719,0.00372899998911,1.0,0.0,0.0,0.0,1.0,0.0,0.0,0.0,1.0,-55.9146347046,-48.8414649963,4.87804889679,1.0,0.0,0.0,0.0,1.0,0.0,0.0,0.0,1.0,-1.25456166992,16.548721875,-6.09563742676,1.0,0.0,0.0,0.0,1.0,0.0,0.0,0.0,1.0
1463935267012441664,533,1463935266894141962,,-18.5638828278,11.8574609756,127.302383423,0.00168200000189,1.0,0.0,0.0,0.0,1.0,0.0,0.0,0.0,1.0,301.219512939,-26.8902454376,-25.7317085266,1.0,0.0,0.0,0.0,1.0,0.0,0.0,0.0,1.0,-5.96635053711,58.0067178223,142.047984497,1.0,0.0,0.0,0.0,1.0,0.0,0.0,0.0,1.0
1463935267012644268,534,1463935266913182141,,-17.9354743958,12.1591091156,125.795333862,0.00137399998493,1.0,0.0,0.0,0.0,1.0,0.0,0.0,0.0,1.0,52.9268302917,-21.2195129395,-12.5609760284,1.0,0.0,0.0,0.0,1.0,0.0,0.0,0.0,1.0,-1.70467158203,-16.2805712891,14.2838071045,1.0,0.0,0.0,0.0,1.0,0.0,0.0,0.0,1.0
1463935267012687132,535,1463935266933160441,,-17.9148101807,15.0469923019,124.37512207,0.00197999994271,1.0,0.0,0.0,0.0,1.0,0.0,0.0,0.0,1.0,73.1097564697,-50.7926826477,-22.5609760284,1.0,0.0,0.0,0.0,1.0,0.0,0.0,0.0,1.0,11.2910550293,47.673343457,-19.9245462158,1.0,0.0,0.0,0.0,1.0,0.0,0.0,0.0,1.0
1463935267016146909,536,1463935266954813525,,-17.6092338562,12.8884725571,122.503204346,0.00126499996986,1.0,0.0,0.0,0.0,1.0,0.0,0.0,0.0,1.0,3.04878044128,-131.219512939,7.68292665482,1.0,0.0,0.0,0.0,1.0,0.0,0.0,0.0,1.0,5.59764348145,-2.4277204834,-16.9317929716,1.0,0.0,0.0,0.0,1.0,0.0,0.0,0.0,1.0
1463935267016209669,537,1463935266975568697,,-17.6940860748,11.6878395081,121.075973511,0.00126699998509,1.0,0.0,0.0,0.0,1.0,0.0,0.0,0.0,1.0,-45.8536605835,48.9024391174,0.914634168148,1.0,0.0,0.0,0.0,1.0,0.0,0.0,0.0,1.0,-8.14028564453,-26.6809833008,33.2363097844,1.0,0.0,0.0,0.0,1.0,0.0,0.0,0.0,1.0
1463935267054192736,538,1463935266996144390,,-17.8377418518,14.1604242325,119.714538574,0.00123900000472,1.0,0.0,0.0,0.0,1.0,0.0,0.0,0.0,1.0,25.975610733,-0.12195122242,7.43902492523,1.0,0.0,0.0,0.0,1.0,0.0,0.0,0.0,1.0,8.59039614116,7.34062229004,-13.9438304687,1.0,0.0,0.0,0.0,1.0,0.0,0.0,0.0,1.0
1463935267061095362,539,1463935267017377893,,-17.3730564117,12.5783586502,117.990852356,0.00141200004146,1.0,0.0,0.0,0.0,1.0,0.0,0.0,0.0,1.0,-118.414642334,-2.62195134163,-14.7560987473,1.0,0.0,0.0,0.0,1.0,0.0,0.0,0.0,1.0,1.40779057617,-29.3912195801,25.1774246582,1.0,0.0,0.0,0.0,1.0,0.0,0.0,0.0,1.0
1463935267104881061,540,1463935267038859051,,-17.0777816772,15.5496873856,116.546699524,0.00141000002623,1.0,0.0,0.0,0.0,1.0,0.0,0.0,0.0,1.0,-9.87804889679,-24.9390239716,-15.8536596298,1.0,0.0,0.0,0.0,1.0,0.0,0.0,0.0,1.0,-6.3637880127,18.8232134521,-41.5106683838,1.0,0.0,0.0,0.0,1.0,0.0,0.0,0.0,1.0
1463935267104929550,541,1463935267059632400,,-16.3325176239,12.8667383194,115.243743896,0.00141899997834,1.0,0.0,0.0,0.0,1.0,0.0,0.0,0.0,1.0,145.792678833,-56.3414649963,37.9268302917,1.0,0.0,0.0,0.0,1.0,0.0,0.0,0.0,1.0,-10.9031943604,-32.2929919922,23.6834428223,1.0,0.0,0.0,0.0,1.0,0.0,0.0,0.0,1.0
1463935267172359731,542,1463935267080201895,,-17.3997764587,18.0826396942,112.877624512,0.00159899995197,1.0,0.0,0.0,0.0,1.0,0.0,0.0,0.0,1.0,-93.1707382202,-25.3048782349,-18.2926826477,1.0,0.0,0.0,0.0,1.0,0.0,0.0,0.0,1.0,-13.0579758545,28.8597068115,-7.50821640625,1.0,0.0,0.0,0.0,1.0,0.0,0.0,0.0,1.0
1463935267172416762,543,1463935267102009198,,-17.1387634277,14.7443780899,111.770385742,0.0014530000044,1.0,0.0,0.0,0.0,1.0,0.0,0.0,0.0,1.0,227.012191772,-105.121955872,8.10975551605,1.0,0.0,0.0,0.0,1.0,0.0,0.0,0.0,1.0,0.885854614258,-7.11556733398,18.3970455566,1.0,0.0,0.0,0.0,1.0,0.0,0.0,0.0,1.0
1463935267172853687,544,1463935267122758953,,-17.577583313,16.6551914215,109.911506653,0.0017269999953,1.0,0.0,0.0,0.0,1.0,0.0,0.0,0.0,1.0,-200.243911743,40.8536605835,-23.658536911,1.0,0.0,0.0,0.0,1.0,0.0,0.0,0.0,1.0,1.48919343262,-16.893485745,61.7560376221,1.0,0.0,0.0,0.0,1.0,0.0,0.0,0.0,1.0
1463935267172904364,545,1463935267145796042,,-16.6031856537,15.855006218,108.80216217,0.0104090003297,1.0,0.0,0.0,0.0,1.0,0.0,0.0,0.0,1.0,-103.536590576,38.2317085266,11.5853662491,1.0,0.0,0.0,0.0,1.0,0.0,0.0,0.0,1.0,-7.05331809082,-4.37660063477,10.405200415,1.0,0.0,0.0,0.0,1.0,0.0,0.0,0.0,1.0
1463935267229026624,546,1463935267166992149,,-16.6783847809,17.8191165924,107.233177185,0.00158599996939,1.0,0.0,0.0,0.0,1.0,0.0,0.0,0.0,1.0,-14.0853662491,-43.5975608826,3.59756112099,1.0,0.0,0.0,0.0,1.0,0.0,0.0,0.0,1.0,0.656011254883,20.7146327637,-0.478840332031,1.0,0.0,0.0,0.0,1.0,0.0,0.0,0.0,1.0
1463935267229393289,547,1463935267187838831,,-16.4333000183,16.9346599579,105.783348083,0.00129399995785,1.0,0.0,0.0,0.0,1.0,0.0,0.0,0.0,1.0,184.390258789,-98.414642334,6.58536624908,1.0,0.0,0.0,0.0,1.0,0.0,0.0,0.0,1.0,-7.01979926758,9.82101520996,22.5677448486,1.0,0.0,0.0,0.0,1.0,0.0,0.0,0.0,1.0
1463935267259534722,548,1463935267208611034,,-16.4361305237,17.3910694122,104.249092102,0.00157099997159,1.0,0.0,0.0,0.0,1.0,0.0,0.0,0.0,1.0,-11.1585359573,-19.6341457367,-9.08536529541,1.0,0.0,0.0,0.0,1.0,0.0,0.0,0.0,1.0,2.32237546422,-30.9713926758,5.08528432617,1.0,0.0,0.0,0.0,1.0,0.0,0.0,0.0,1.0
1463935267259904512,549,1463935267230499951,,-16.5145492554,21.0062026978,102.324333191,0.00158599996939,1.0,0.0,0.0,0.0,1.0,0.0,0.0,0.0,1.0,20.1829280853,-101.768295288,-27.6219520569,1.0,0.0,0.0,0.0,1.0,0.0,0.0,0.0,1.0,1.81959326172,-7.04374128418,-46.0788051514,1.0,0.0,0.0,0.0,1.0,0.0,0.0,0.0,1.0
1463935267260632999,550,1463935267251073456,,-16.2508106232,18.6508522034,100.978790283,0.00145500001963,1.0,0.0,0.0,0.0,1.0,0.0,0.0,0.0,1.0,164.207321167,-119.207321167,30.3658542633,1.0,0.0,0.0,0.0,1.0,0.0,0.0,0.0,1.0,15.1074124756,-23.9899006348,24.1096107178,1.0,0.0,0.0,0.0,1.0,0.0,0.0,0.0,1.0
1463935267300888087,551,1463935267272795291,,-16.8330802917,19.2665176392,99.2760772705,0.01177299954,1.0,0.0,0.0,0.0,1.0,0.0,0.0,0.0,1.0,-178.719528198,-77.0731658936,-1.76829278469,1.0,0.0,0.0,0.0,1.0,0.0,0.0,0.0,1.0,-1.87226569824,23.7409036621,-21.3850092285,1.0,0.0,0.0,0.0,1.0,0.0,0.0,0.0,1.0
1463935267301382929,552,1463935267295000925,,-17.1171035767,16.3711071014,97.6877746582,0.00198299996555,1.0,0.0,0.0,0.0,1.0,0.0,0.0,0.0,1.0,204.45123291,-116.524398804,-0.853658556938,1.0,0.0,0.0,0.0,1.0,0.0,0.0,0.0,1.0,17.9996092501,-27.6769711914,13.5751234131,1.0,0.0,0.0,0.0,1.0,0.0,0.0,0.0,1.0
1463935267318488533,553,1463935267315412869,,-17.2381401062,18.3413562775,95.9952011108,0.0015040000435,1.0,0.0,0.0,0.0,1.0,0.0,0.0,0.0,1.0,-224.878051758,-14.5121955872,-6.09756088257,1.0,0.0,0.0,0.0,1.0,0.0,0.0,0.0,1.0,-3.47159240723,-2.19787712402,11.286266626,1.0,0.0,0.0,0.0,1.0,0.0,0.0,0.0,1.0
1463935267341606767,554,1463935267336410435,,-17.518201828,18.4655399323,94.8119125366,0.00141799997073,1.0,0.0,0.0,0.0,1.0,0.0,0.0,0.0,1.0,60.1829299927,-51.4024391174,-4.08536577225,1.0,0.0,0.0,0.0,1.0,0.0,0.0,0.0,1.0,0.574608398438,9.76834277344,-7.16823977051,1.0,0.0,0.0,0.0,1.0,0.0,0.0,0.0,1.0
1463935267360820123,555,1463935267358113311,,-17.6996479034,17.9319553375,93.2270202637,0.00144899997395,1.0,0.0,0.0,0.0,1.0,0.0,0.0,0.0,1.0,-39.2682914734,-45.7317085266,10.3048782349,1.0,0.0,0.0,0.0,1.0,0.0,0.0,0.0,1.0,4.24252563406,-15.2893718018,2.12126281703,1.0,0.0,0.0,0.0,1.0,0.0,0.0,0.0,1.0
1463935267381869199,556,1463935267379874885,,-17.875793457,19.0672359467,92.0541000366,0.00166900001932,1.0,0.0,0.0,0.0,1.0,0.0,0.0,0.0,1.0,-46.5853691101,-52.2560997009,8.23170757294,1.0,0.0,0.0,0.0,1.0,0.0,0.0,0.0,1.0,0.507570751953,5.46356818848,-18.4209875732,1.0,0.0,0.0,0.0,1.0,0.0,0.0,0.0,1.0
1463935267405031132,557,1463935267401491199,,-17.8684692383,19.5177116394,90.6090087891,0.00188600004185,1.0,0.0,0.0,0.0,1.0,0.0,0.0,0.0,1.0,-33.2926826477,-34.0853691101,14.1463422775,1.0,0.0,0.0,0.0,1.0,0.0,0.0,0.0,1.0,-4.09408483887,13.350068457,-2.18830031738,1.0,0.0,0.0,0.0,1.0,0.0,0.0,0.0,1.0
1463935267427741034,558,1463935267422255850,,-18.1995563507,19.0949230194,89.3022918701,0.00179300003219,1.0,0.0,0.0,0.0,1.0,0.0,0.0,0.0,1.0,122.378051758,-96.0365829468,7.98780536652,1.0,0.0,0.0,0.0,1.0,0.0,0.0,0.0,1.0,21.092916626,40.691851416,3.0406361084,1.0,0.0,0.0,0.0,1.0,0.0,0.0,0.0,1.0
1463935267446829755,559,1463935267443566696,,-18.1475429535,18.8173370361,88.1248245239,0.00229600002058,1.0,0.0,0.0,0.0,1.0,0.0,0.0,0.0,1.0,156.768295288,-83.1097564697,24.0853652954,1.0,0.0,0.0,0.0,1.0,0.0,0.0,0.0,1.0,0.483628735352,17.5878042265,35.3815121338,1.0,0.0,0.0,0.0,1.0,0.0,0.0,0.0,1.0
1463935267474300315,560,1463935267465334363,,-18.4342784882,19.2564430237,86.5402526855,0.00132000003941,1.0,0.0,0.0,0.0,1.0,0.0,0.0,0.0,1.0,-188.353668213,-32.3780517578,-0.365853667259,1.0,0.0,0.0,0.0,1.0,0.0,0.0,0.0,1.0,9.90241806641,13.3404916504,19.4648594971,1.0,0.0,0.0,0.0,1.0,0.0,0.0,0.0,1.0
1463935267492388206,561,1463935267486165264,,-18.4088363647,20.0369052887,85.6385955811,0.0014380000066,1.0,0.0,0.0,0.0,1.0,0.0,0.0,0.0,1.0,357.5,-20.6097564697,-4.93902444839,1.0,0.0,0.0,0.0,1.0,0.0,0.0,0.0,1.0,-2.45645090332,65.4909875357,99.7376527588,1.0,0.0,0.0,0.0,1.0,0.0,0.0,0.0,1.0
1463935267524469423,562,1463935267507378194,,-18.0594806671,20.132101059,84.5634460449,0.00128299999051,1.0,0.0,0.0,0.0,1.0,0.0,0.0,0.0,1.0,-24.5731716156,42.6219520569,48.7195129395,1.0,0.0,0.0,0.0,1.0,0.0,0.0,0.0,1.0,5.47314499512,-39.6144606689,42.0900651855,1.0,0.0,0.0,0.0,1.0,0.0,0.0,0.0,1.0
1463935267533803758,563,1463935267528410240,,-18.6303863525,22.8545532227,82.7757644653,0.00153699994553,1.0,0.0,0.0,0.0,1.0,0.0,0.0,0.0,1.0,-156.95123291,-22.1951236725,10.9756097794,1.0,0.0,0.0,0.0,1.0,0.0,0.0,0.0,1.0,13.4937205566,-4.28083286062,13.9486188721,1.0,0.0,0.0,0.0,1.0,0.0,0.0,0.0,1.0
1463935267560798278,564,1463935267549788065,,-18.6545562744,22.3231620789,81.9470367432,0.0014380000066,1.0,0.0,0.0,0.0,1.0,0.0,0.0,0.0,1.0,-107.865852356,1.52439022064,9.08536529541,1.0,0.0,0.0,0.0,1.0,0.0,0.0,0.0,1.0,0.780509741211,3.95522114258,-1.13485158691,1.0,0.0,0.0,0.0,1.0,0.0,0.0,0.0,1.0
1463935267605941679,565,1463935267570517612,,-18.52942276,22.5292167664,80.7850952148,0.00158399995416,1.0,0.0,0.0,0.0,1.0,0.0,0.0,0.0,1.0,-105.06098175,-9.63414573669,2.98780488968,1.0,0.0,0.0,0.0,1.0,0.0,0.0,0.0,1.0,-4.60165559082,3.3710359375,8.00621035156,1.0,0.0,0.0,0.0,1.0,0.0,0.0,0.0,1.0
1463935267606521416,566,1463935267592139602,,-18.2747898102,21.7360343933,79.8433532715,0.00179600005504,1.0,0.0,0.0,0.0,1.0,0.0,0.0,0.0,1.0,37.0731697083,-87.4390258789,31.2804889679,1.0,0.0,0.0,0.0,1.0,0.0,0.0,0.0,1.0,0.703895288086,10.5823713379,0.976834277344,1.0,0.0,0.0,0.0,1.0,0.0,0.0,0.0,1.0
1463935267667973862,567,1463935267613266127,,-18.4742107391,22.928396225,78.7051086426,0.00195399997756,1.0,0.0,0.0,0.0,1.0,0.0,0.0,0.0,1.0,143.353668213,-149.085372925,25.8536586761,1.0,0.0,0.0,0.0,1.0,0.0,0.0,0.0,1.0,8.39885883931,48.0181084961,20.6859023437,1.0,0.0,0.0,0.0,1.0,0.0,0.0,0.0,1.0
1463935267672195823,568,1463935267634874680,,-18.4055767059,23.1866359711,77.6370162964,0.00208500004373,1.0,0.0,0.0,0.0,1.0,0.0,0.0,0.0,1.0,3.04878044128,-83.8414611816,42.6219520569,1.0,0.0,0.0,0.0,1.0,0.0,0.0,0.0,1.0,9.32302068013,6.42124885254,-12.8041904785,1.0,0.0,0.0,0.0,1.0,0.0,0.0,0.0,1.0
1463935267672277072,569,1463935267656247818,,-18.294008255,23.8461036682,76.5576019287,0.0014459999511,1.0,0.0,0.0,0.0,1.0,0.0,0.0,0.0,1.0,-52.6219520569,-0.609756112099,28.7804889679,1.0,0.0,0.0,0.0,1.0,0.0,0.0,0.0,1.0,6.72291826172,13.3548568604,-8.30787917622,1.0,0.0,0.0,0.0,1.0,0.0,0.0,0.0,1.0
1463935267778186151,570,1463935267677232416,,-17.9905281067,23.1575622559,75.7436904907,0.0015569999814,1.0,0.0,0.0,0.0,1.0,0.0,0.0,0.0,1.0,74.3902511597,-116.951225281,15.3658533096,1.0,0.0,0.0,0.0,1.0,0.0,0.0,0.0,1.0,12.512097876,4.59207878418,3.71101257324,1.0,0.0,0.0,0.0,1.0,0.0,0.0,0.0,1.0
1463935267778551930,571,1463935267698470919,,-18.0017337799,22.8479728699,74.4026184082,0.00147999997716,1.0,0.0,0.0,0.0,1.0,0.0,0.0,0.0,1.0,-161.463424683,1.8292683363,20.3658542633,1.0,0.0,0.0,0.0,1.0,0.0,0.0,0.0,1.0,-1.8626888916,3.16992299805,10.5440641113,1.0,0.0,0.0,0.0,1.0,0.0,0.0,0.0,1.0
1463935267780859889,572,1463935267719475204,,-17.8752574921,22.7491474152,73.7523651123,0.00147899996955,1.0,0.0,0.0,0.0,1.0,0.0,0.0,0.0,1.0,43.7195129395,22.8658542633,31.8292694092,1.0,0.0,0.0,0.0,1.0,0.0,0.0,0.0,1.0,2.56658417969,4.41969626465,27.9020261475,1.0,0.0,0.0,0.0,1.0,0.0,0.0,0.0,1.0
1463935267784960705,573,1463935267740014387,,-17.5930728912,24.6593513489,72.6475143433,0.00139200000558,1.0,0.0,0.0,0.0,1.0,0.0,0.0,0.0,1.0,-65.9756088257,11.0365858078,3.96341490746,1.0,0.0,0.0,0.0,1.0,0.0,0.0,0.0,1.0,-3.35667072754,16.759410452,43.0812646729,1.0,0.0,0.0,0.0,1.0,0.0,0.0,0.0,1.0
1463935267862583342,574,1463935267763889806,,-16.8097648621,23.7312850952,71.9876251221,0.00352600007318,1.0,0.0,0.0,0.0,1.0,0.0,0.0,0.0,1.0,13.658536911,21.5853652954,6.28048801422,1.0,0.0,0.0,0.0,1.0,0.0,0.0,0.0,1.0,-11.0564232666,-6.11957944336,-18.2102989962,1.0,0.0,0.0,0.0,1.0,0.0,0.0,0.0,1.0
1463935267863905524,575,1463935267785395651,,-16.7852859497,24.9297466278,70.9600601196,0.00138499995228,1.0,0.0,0.0,0.0,1.0,0.0,0.0,0.0,1.0,13.9634151459,24.3902435303,25.6707324982,1.0,0.0,0.0,0.0,1.0,0.0,0.0,0.0,1.0,7.73805976562,-15.0307980225,18.3347974825,1.0,0.0,0.0,0.0,1.0,0.0,0.0,0.0,1.0
1463935267864232397,576,1463935267806132438,,-16.7432174683,25.6556396484,70.0790557861,0.00141200004146,1.0,0.0,0.0,0.0,1.0,0.0,0.0,0.0,1.0,-61.890247345,-44.6341438293,6.15853643417,1.0,0.0,0.0,0.0,1.0,0.0,0.0,0.0,1.0,-1.0534486574,-2.21224233398,-4.89374819336,1.0,0.0,0.0,0.0,1.0,0.0,0.0,0.0,1.0
1463935267865877599,577,1463935267826593913,,-16.5645771027,24.3019504547,69.2594451904,0.00135899998713,1.0,0.0,0.0,0.0,1.0,0.0,0.0,0.0,1.0,11.4024391174,-4.75609779358,18.5975627899,1.0,0.0,0.0,0.0,1.0,0.0,0.0,0.0,1.0,1.32159931641,-10.1562034424,5.1379567627,1.0,0.0,0.0,0.0,1.0,0.0,0.0,0.0,1.0
1463935267920959863,578,1463935267855768215,,-17.0326805115,26.7058010101,68.1720352173,0.00774700008333,1.0,0.0,0.0,0.0,1.0,0.0,0.0,0.0,1.0,-36.4634170532,-57.6829299927,39.8780479431,1.0,0.0,0.0,0.0,1.0,0.0,0.0,0.0,1.0,17.3388084229,14.1736738281,-14.2071926514,1.0,0.0,0.0,0.0,1.0,0.0,0.0,0.0,1.0
1463935267921272102,579,1463935267876850937,,-16.652097702,22.7956562042,67.6824645996,0.00219599995762,1.0,0.0,0.0,0.0,1.0,0.0,0.0,0.0,1.0,188.10975647,-54.3292694092,84.5121917725,1.0,0.0,0.0,0.0,1.0,0.0,0.0,0.0,1.0,3.36624753418,-1.39821376953,-6.07169541016,1.0,0.0,0.0,0.0,1.0,0.0,0.0,0.0,1.0
1463935267921594913,580,1463935267898637302,,-16.1134872437,24.1874389648,67.0386657715,0.002223999938,1.0,0.0,0.0,0.0,1.0,0.0,0.0,0.0,1.0,231.341461182,-43.6585388184,-12.9268293381,1.0,0.0,0.0,0.0,1.0,0.0,0.0,0.0,1.0,-22.9747591309,-22.9603939209,13.350068457,1.0,0.0,0.0,0.0,1.0,0.0,0.0,0.0,1.0
1463935267966373159,581,1463935267920529084,,-15.6049413681,26.8134670258,66.1214675903,0.00354399997741,1.0,0.0,0.0,0.0,1.0,0.0,0.0,0.0,1.0,-7.07317113876,-79.0243911743,43.5975608826,1.0,0.0,0.0,0.0,1.0,0.0,0.0,0.0,1.0,-5.37737692871,13.9246768555,-2.07337849156,1.0,0.0,0.0,0.0,1.0,0.0,0.0,0.0,1.0
1463935267966685449,582,1463935267941741389,,-15.5460662842,26.4752044678,65.1601104736,0.00228799995966,1.0,0.0,0.0,0.0,1.0,0.0,0.0,0.0,1.0,5.42682933807,-42.3780517578,16.158536911,1.0,0.0,0.0,0.0,1.0,0.0,0.0,0.0,1.0,16.6349119657,2.70544787598,-34.2658164982,1.0,0.0,0.0,0.0,1.0,0.0,0.0,0.0,1.0
1463935268010553334,583,1463935267964940977,,-15.3857555389,26.2376594543,64.7249526978,0.00218799989671,1.0,0.0,0.0,0.0,1.0,0.0,0.0,0.0,1.0,65.2439041138,-61.2195167542,21.6463432312,1.0,0.0,0.0,0.0,1.0,0.0,0.0,0.0,1.0,9.50976957866,5.99508095703,22.811953418,1.0,0.0,0.0,0.0,1.0,0.0,0.0,0.0,1.0
1463935268010854375,584,1463935267984916465,,-15.522644043,25.524597168,63.8874511719,0.00413300003856,1.0,0.0,0.0,0.0,1.0,0.0,0.0,0.0,1.0,92.8048782349,-9.93902492523,10.1829271317,1.0,0.0,0.0,0.0,1.0,0.0,0.0,0.0,1.0,3.55299526367,-22.9843359375,20.0634099121,1.0,0.0,0.0,0.0,1.0,0.0,0.0,0.0,1.0
1463935268036095152,585,1463935268005506325,,-15.4237957001,25.7682418823,63.295249939,0.00317799998447,1.0,0.0,0.0,0.0,1.0,0.0,0.0,0.0,1.0,17.317073822,-16.6463413239,21.5243911743,1.0,0.0,0.0,0.0,1.0,0.0,0.0,0.0,1.0,3.64876333008,-7.37414111328,13.4123177002,1.0,0.0,0.0,0.0,1.0,0.0,0.0,0.0,1.0
1463935268037729833,586,1463935268027600553,,-15.2691736221,29.7488174438,62.0726318359,0.0033879999537,1.0,0.0,0.0,0.0,1.0,0.0,0.0,0.0,1.0,-101.402442932,5.36585378647,29.7560997009,1.0,0.0,0.0,0.0,1.0,0.0,0.0,0.0,1.0,-12.7467296387,16.8168712919,-24.7656219727,1.0,0.0,0.0,0.0,1.0,0.0,0.0,0.0,1.0
1463935268077225445,587,1463935268048779004,,-14.7554569244,26.2010383606,61.8297538757,0.0019490000559,1.0,0.0,0.0,0.0,1.0,0.0,0.0,0.0,1.0,96.1585388184,-69.0243911743,73.2926864624,1.0,0.0,0.0,0.0,1.0,0.0,0.0,0.0,1.0,-16.4912610352,21.0354557861,24.756045166,1.0,0.0,0.0,0.0,1.0,0.0,0.0,0.0,1.0
1463935268077729349,588,1463935268071982343,,-14.3557443619,27.6936798096,61.4816856384,0.00147300004028,1.0,0.0,0.0,0.0,1.0,0.0,0.0,0.0,1.0,106.89025116,-159.634155273,29.3902435303,1.0,0.0,0.0,0.0,1.0,0.0,0.0,0.0,1.0,-5.49708701172,5.73171877441,5.35343491211,1.0,0.0,0.0,0.0,1.0,0.0,0.0,0.0,1.0
1463935268103832154,589,1463935268091758196,,-14.3201026917,28.2434806824,60.5968132019,0.00250099995174,1.0,0.0,0.0,0.0,1.0,0.0,0.0,0.0,1.0,-149.573165894,-23.3536586761,18.0487823486,1.0,0.0,0.0,0.0,1.0,0.0,0.0,0.0,1.0,5.10443793945,30.1142684814,-9.47624958638,1.0,0.0,0.0,0.0,1.0,0.0,0.0,0.0,1.0
1463935268118614122,590,1463935268115824186,,-14.5049476624,28.4551486969,59.7610397339,0.0031500000041,1.0,0.0,0.0,0.0,1.0,0.0,0.0,0.0,1.0,107.5,-27.5609760284,21.5853652954,1.0,0.0,0.0,0.0,1.0,0.0,0.0,0.0,1.0,3.42849677734,10.3190091553,-22.3714203125,1.0,0.0,0.0,0.0,1.0,0.0,0.0,0.0,1.0
1463935268142445218,591,1463935268137844821,,-14.3091030121,29.0591239929,58.7202148438,0.00584500003606,1.0,0.0,0.0,0.0,1.0,0.0,0.0,0.0,1.0,288.414642334,-24.9390239716,-18.475610733,1.0,0.0,0.0,0.0,1.0,0.0,0.0,0.0,1.0,-4.50109912109,-1.53707746582,-14.1832506348,1.0,0.0,0.0,0.0,1.0,0.0,0.0,0.0,1.0
1463935268167291675,592,1463935268159304313,,-15.0993385315,28.7606716156,57.0241737366,0.00120499997865,1.0,0.0,0.0,0.0,1.0,0.0,0.0,0.0,1.0,-397.682922363,47.1951255798,45.1219520569,1.0,0.0,0.0,0.0,1.0,0.0,0.0,0.0,1.0,2.44687409668,1.52750065918,1.36469494629,1.0,0.0,0.0,0.0,1.0,0.0,0.0,0.0,1.0
1463935268183674625,593,1463935268179729538,,-15.4859876633,29.726348877,56.6536636353,0.00122600002214,1.0,0.0,0.0,0.0,1.0,0.0,0.0,0.0,1.0,260.426849365,38.2926864624,39.5731735229,1.0,0.0,0.0,0.0,1.0,0.0,0.0,0.0,1.0,7.4028715332,8.3270327895,26.0920096924,1.0,0.0,0.0,0.0,1.0,0.0,0.0,0.0,1.0
1463935268205534740,594,1463935268202716159,,-15.3572444916,31.6627864838,55.5682487488,0.00270200008526,1.0,0.0,0.0,0.0,1.0,0.0,0.0,0.0,1.0,-87.2561035156,-51.1585388184,41.7682952881,1.0,0.0,0.0,0.0,1.0,0.0,0.0,0.0,1.0,-3.14598098145,7.84819304199,-13.737929126,1.0,0.0,0.0,0.0,1.0,0.0,0.0,0.0,1.0
1463935268243372079,595,1463935268223407581,,-15.7126674652,32.1956672668,54.7252807617,0.00161699997261,1.0,0.0,0.0,0.0,1.0,0.0,0.0,0.0,1.0,18.0487823486,-25.8536586761,26.9512195587,1.0,0.0,0.0,0.0,1.0,0.0,0.0,0.0,1.0,10.4913916748,19.6994912598,-38.240188916,1.0,0.0,0.0,0.0,1.0,0.0,0.0,0.0,1.0
1463935268248976586,596,1463935268243609734,,-15.4269628525,32.489364624,54.5557899475,0.00183299998753,1.0,0.0,0.0,0.0,1.0,0.0,0.0,0.0,1.0,104.695129395,3.23170733452,22.0731716156,1.0,0.0,0.0,0.0,1.0,0.0,0.0,0.0,1.0,-0.191536132812,-7.47948598633,28.0169478271,1.0,0.0,0.0,0.0,1.0,0.0,0.0,0.0,1.0
1463935268272356590,597,1463935268265229381,,-15.8934011459,32.1515846252,52.9971809387,0.00186299998313,1.0,0.0,0.0,0.0,1.0,0.0,0.0,0.0,1.0,-317.073181152,-22.7439041138,31.2804889679,1.0,0.0,0.0,0.0,1.0,0.0,0.0,0.0,1.0,-1.17794714373,-5.43004936523,3.89776030273,1.0,0.0,0.0,0.0,1.0,0.0,0.0,0.0,1.0
1463935268293388479,598,1463935268285632679,,-16.1186332703,33.1516609192,52.7465705872,0.0018230000278,1.0,0.0,0.0,0.0,1.0,0.0,0.0,0.0,1.0,152.621948242,3.35365867615,47.8048782349,1.0,0.0,0.0,0.0,1.0,0.0,0.0,0.0,1.0,-6.21055910645,-3.05021291504,-10.8122146973,1.0,0.0,0.0,0.0,1.0,0.0,0.0,0.0,1.0
1463935268313703809,599,1463935268307744928,,-16.1914730072,32.9961471558,52.347568512,0.00181799998973,1.0,0.0,0.0,0.0,1.0,0.0,0.0,0.0,1.0,163.353668213,-114.512199402,-7.92682981491,1.0,0.0,0.0,0.0,1.0,0.0,0.0,0.0,1.0,-6.84262834473,-19.5318971436,-5.57848986816,1.0,0.0,0.0,0.0,1.0,0.0,0.0,0.0,1.0
1463935268339539376,600,1463935268329036244,,-15.9543809891,33.3522377014,52.1680107117,0.00215400010347,1.0,0.0,0.0,0.0,1.0,0.0,0.0,0.0,1.0,143.719512939,41.7073173523,80.3658599854,1.0,0.0,0.0,0.0,1.0,0.0,0.0,0.0,1.0,-14.829685083,-18.521544043,-14.3843635742,1.0,0.0,0.0,0.0,1.0,0.0,0.0,0.0,1.0
