%time,field.header.seq,field.header.stamp,field.header.frame_id,field.orientation.x,field.orientation.y,field.orientation.z,field.orientation.w,field.orientation_covariance0,field.orientation_covariance1,field.orientation_covariance2,field.orientation_covariance3,field.orientation_covariance4,field.orientation_covariance5,field.orientation_covariance6,field.orientation_covariance7,field.orientation_covariance8,field.angular_velocity.x,field.angular_velocity.y,field.angular_velocity.z,field.angular_velocity_covariance0,field.angular_velocity_covariance1,field.angular_velocity_covariance2,field.angular_velocity_covariance3,field.angular_velocity_covariance4,field.angular_velocity_covariance5,field.angular_velocity_covariance6,field.angular_velocity_covariance7,field.angular_velocity_covariance8,field.linear_acceleration.x,field.linear_acceleration.y,field.linear_acceleration.z,field.linear_acceleration_covariance0,field.linear_acceleration_covariance1,field.linear_acceleration_covariance2,field.linear_acceleration_covariance3,field.linear_acceleration_covariance4,field.linear_acceleration_covariance5,field.linear_acceleration_covariance6,field.linear_acceleration_covariance7,field.linear_acceleration_covariance8
1463923066767859954,223,1463923066763868408,,14.3439102173,-1.17537033558,136.65423584,0.02016299963,1.0,0.0,0.0,0.0,1.0,0.0,0.0,0.0,1.0,-0.670731723309,1.8292683363,-2.19512200356,1.0,0.0,0.0,0.0,1.0,0.0,0.0,0.0,1.0,-0.215478149414,-0.397437475586,10.2615483154,1.0,0.0,0.0,0.0,1.0,0.0,0.0,0.0,1.0
1463923066783547283,224,1463923066779794226,,14.166472435,-1.25391387939,136.583190918,0.0189929995686,1.0,0.0,0.0,0.0,1.0,0.0,0.0,0.0,1.0,-1.03658533096,2.07317066193,-3.59756112099,1.0,0.0,0.0,0.0,1.0,0.0,0.0,0.0,1.0,-0.167594116211,-0.632069238281,10.2280294922,1.0,0.0,0.0,0.0,1.0,0.0,0.0,0.0,1.0
1463923066803034439,225,1463923066801000802,,13.989531517,-1.34214150906,136.51864624,0.0204189997166,1.0,0.0,0.0,0.0,1.0,0.0,0.0,0.0,1.0,-1.15853655338,2.07317066193,-2.98780488968,1.0,0.0,0.0,0.0,1.0,0.0,0.0,0.0,1.0,-0.258573779297,-0.684741674805,10.2040874756,1.0,0.0,0.0,0.0,1.0,0.0,0.0,0.0,1.0
1463923066823293363,226,1463923066821474933,,13.7752628326,-1.41268992424,136.475860596,0.0203930009156,1.0,0.0,0.0,0.0,1.0,0.0,0.0,0.0,1.0,-1.15853655338,1.34146344662,-2.13414645195,1.0,0.0,0.0,0.0,1.0,0.0,0.0,0.0,1.0,-0.0191536132812,-0.593762048251,10.2902787354,1.0,0.0,0.0,0.0,1.0,0.0,0.0,0.0,1.0
1463923066843447339,227,1463923066841753961,,13.6054954529,-1.48255038261,136.443267822,0.020748000592,1.0,0.0,0.0,0.0,1.0,0.0,0.0,0.0,1.0,-0.609756112099,2.07317066193,-1.46341466904,1.0,0.0,0.0,0.0,1.0,0.0,0.0,0.0,1.0,-0.272938989258,-0.713472094727,10.2423947021,1.0,0.0,0.0,0.0,1.0,0.0,0.0,0.0,1.0
1463923066865644796,228,1463923066862767204,,13.4191465378,-1.50842940807,136.427124023,0.0202740002424,1.0,0.0,0.0,0.0,1.0,0.0,0.0,0.0,1.0,-0.426829278469,1.2195122242,-1.15853655338,1.0,0.0,0.0,0.0,1.0,0.0,0.0,0.0,1.0,-0.215478149414,-0.407014282227,10.314220752,1.0,0.0,0.0,0.0,1.0,0.0,0.0,0.0,1.0
1463923066888897978,229,1463923066882185090,,13.2466745377,-1.56341207027,136.410934448,0.0203070007265,1.0,0.0,0.0,0.0,1.0,0.0,0.0,0.0,1.0,-1.09756100178,1.34146344662,-0.975609779358,1.0,0.0,0.0,0.0,1.0,0.0,0.0,0.0,1.0,-0.282515795898,-0.545877978516,10.1466266357,1.0,0.0,0.0,0.0,1.0,0.0,0.0,0.0,1.0
1463923066909120392,230,1463923066902810106,,13.0734996796,-1.60741198063,136.415939331,0.0203169994056,1.0,0.0,0.0,0.0,1.0,0.0,0.0,0.0,1.0,-0.975609779358,1.64634156227,0.0,1.0,0.0,0.0,0.0,1.0,0.0,0.0,0.0,1.0,-0.191536132812,-0.536301208408,10.4243540283,1.0,0.0,0.0,0.0,1.0,0.0,0.0,0.0,1.0
1463923066924360274,231,1463923066923126425,,12.9050731659,-1.63505613804,136.433807373,0.0204520002007,1.0,0.0,0.0,0.0,1.0,0.0,0.0,0.0,1.0,-0.304878056049,1.70731711388,0.609756112099,1.0,0.0,0.0,0.0,1.0,0.0,0.0,0.0,1.0,-0.196324536133,-0.536301208408,10.285490332,1.0,0.0,0.0,0.0,1.0,0.0,0.0,0.0,1.0
1463923066945948828,232,1463923066943010663,,12.7512779236,-1.6763355732,136.445144653,0.0203280001879,1.0,0.0,0.0,0.0,1.0,0.0,0.0,0.0,1.0,-0.670731723309,2.07317066193,0.365853667259,1.0,0.0,0.0,0.0,1.0,0.0,0.0,0.0,1.0,-0.220266552734,-0.579396801758,10.165780249,1.0,0.0,0.0,0.0,1.0,0.0,0.0,0.0,1.0
1463923066966344782,233,1463923066963581148,,12.5543670654,-1.72179496288,136.489212036,0.020524000749,1.0,0.0,0.0,0.0,1.0,0.0,0.0,0.0,1.0,-2.01219511032,1.58536589146,1.70731711388,1.0,0.0,0.0,0.0,1.0,0.0,0.0,0.0,1.0,0.100556469727,-0.45489831543,10.5823713379,1.0,0.0,0.0,0.0,1.0,0.0,0.0,0.0,1.0
1463923066991574258,234,1463923066985111213,,12.4325237274,-1.74667191505,136.545440674,0.0203639995307,1.0,0.0,0.0,0.0,1.0,0.0,0.0,0.0,1.0,-0.670731723309,2.37804889679,2.43902444839,1.0,0.0,0.0,0.0,1.0,0.0,0.0,0.0,1.0,-0.383072265625,-0.536301208408,10.2376062988,1.0,0.0,0.0,0.0,1.0,0.0,0.0,0.0,1.0
1463923067014657024,235,1463923067004264308,,12.2791595459,-1.77377569675,136.601501465,0.0203690007329,1.0,0.0,0.0,0.0,1.0,0.0,0.0,0.0,1.0,-0.426829278469,2.13414645195,2.5,1.0,0.0,0.0,0.0,1.0,0.0,0.0,0.0,1.0,-0.119710083008,-0.603338854892,10.2184526855,1.0,0.0,0.0,0.0,1.0,0.0,0.0,0.0,1.0
1463923067029652637,236,1463923067024845886,,12.113653183,-1.80267000198,136.650878906,0.0204639993608,1.0,0.0,0.0,0.0,1.0,0.0,0.0,0.0,1.0,-0.487804889679,1.46341466904,2.13414645195,1.0,0.0,0.0,0.0,1.0,0.0,0.0,0.0,1.0,-0.114921679688,-0.598550451572,10.2423947021,1.0,0.0,0.0,0.0,1.0,0.0,0.0,0.0,1.0
1463923067071832977,237,1463923067045595016,,11.9750061035,-1.82562243938,136.703964233,0.0205649994314,1.0,0.0,0.0,0.0,1.0,0.0,0.0,0.0,1.0,-0.731707334518,1.70731711388,2.19512200356,1.0,0.0,0.0,0.0,1.0,0.0,0.0,0.0,1.0,-0.287304199219,-0.507570751953,10.2136642822,1.0,0.0,0.0,0.0,1.0,0.0,0.0,0.0,1.0
1463923067071990945,238,1463923067065659826,,11.8153514862,-1.84809243679,136.76574707,0.0201619993895,1.0,0.0,0.0,0.0,1.0,0.0,0.0,0.0,1.0,-1.34146344662,1.8902438879,2.56097555161,1.0,0.0,0.0,0.0,1.0,0.0,0.0,0.0,1.0,-0.00957680664062,-0.411802685547,10.1131078125,1.0,0.0,0.0,0.0,1.0,0.0,0.0,0.0,1.0
1463923067088854571,239,1463923067086709632,,11.6955566406,-1.88227534294,136.847946167,0.0204360000789,1.0,0.0,0.0,0.0,1.0,0.0,0.0,0.0,1.0,-1.15853655338,2.74390244484,3.71951246262,1.0,0.0,0.0,0.0,1.0,0.0,0.0,0.0,1.0,-0.196324536133,-0.593762048251,10.2567599121,1.0,0.0,0.0,0.0,1.0,0.0,0.0,0.0,1.0
1463923067108706153,240,1463923067106571787,,11.5745286942,-1.89279806614,136.908599854,0.0203900001943,1.0,0.0,0.0,0.0,1.0,0.0,0.0,0.0,1.0,-0.426829278469,2.56097555161,2.56097555161,1.0,0.0,0.0,0.0,1.0,0.0,0.0,0.0,1.0,-0.201112939453,-0.478840332031,10.2232410889,1.0,0.0,0.0,0.0,1.0,0.0,0.0,0.0,1.0
1463923067145677401,241,1463923067126808628,,11.4341011047,-1.93247950077,136.939224243,0.0205230005085,1.0,0.0,0.0,0.0,1.0,0.0,0.0,0.0,1.0,-1.15853655338,1.52439022064,1.15853655338,1.0,0.0,0.0,0.0,1.0,0.0,0.0,0.0,1.0,-0.210689746094,-0.550666381836,10.2040874756,1.0,0.0,0.0,0.0,1.0,0.0,0.0,0.0,1.0
1463923067155514963,242,1463923067147514164,,11.2831106186,-1.97922229767,136.967407227,0.0203579999506,1.0,0.0,0.0,0.0,1.0,0.0,0.0,0.0,1.0,-1.52439022064,1.2195122242,1.03658533096,1.0,0.0,0.0,0.0,1.0,0.0,0.0,0.0,1.0,-0.138863696289,-0.560243188477,10.3477395752,1.0,0.0,0.0,0.0,1.0,0.0,0.0,0.0,1.0
1463923067234681291,243,1463923067167926473,,11.1541585922,-2.01224398613,137.006240845,0.0205899998546,1.0,0.0,0.0,0.0,1.0,0.0,0.0,0.0,1.0,-0.731707334518,1.76829278469,1.58536589146,1.0,0.0,0.0,0.0,1.0,0.0,0.0,0.0,1.0,-0.215478149414,-0.593762048251,10.1562034424,1.0,0.0,0.0,0.0,1.0,0.0,0.0,0.0,1.0
1463923067235004623,244,1463923067188430031,,11.0348482132,-2.04110455513,137.041046143,0.0201730001718,1.0,0.0,0.0,0.0,1.0,0.0,0.0,0.0,1.0,-1.34146344662,2.13414645195,1.2804877758,1.0,0.0,0.0,0.0,1.0,0.0,0.0,0.0,1.0,-0.191536132812,-0.450109912109,10.1609918457,1.0,0.0,0.0,0.0,1.0,0.0,0.0,0.0,1.0
1463923067237594768,245,1463923067209433847,,10.8908233643,-2.08788990974,137.056549072,0.0203830003738,1.0,0.0,0.0,0.0,1.0,0.0,0.0,0.0,1.0,-1.70731711388,1.2195122242,0.365853667259,1.0,0.0,0.0,0.0,1.0,0.0,0.0,0.0,1.0,-0.134075302102,-0.517147558594,10.2567599121,1.0,0.0,0.0,0.0,1.0,0.0,0.0,0.0,1.0
1463923067238005444,246,1463923067230555892,,10.751074791,-2.15438604355,137.072067261,0.0205579996109,1.0,0.0,0.0,0.0,1.0,0.0,0.0,0.0,1.0,-1.40243899822,1.46341466904,0.609756112099,1.0,0.0,0.0,0.0,1.0,0.0,0.0,0.0,1.0,-0.110133276367,-0.756567724609,10.2759135254,1.0,0.0,0.0,0.0,1.0,0.0,0.0,0.0,1.0
1463923067271335458,247,1463923067249763831,,10.6154108047,-2.19058799744,137.079162598,0.0202639997005,1.0,0.0,0.0,0.0,1.0,0.0,0.0,0.0,1.0,-0.670731723309,1.40243899822,0.0609756112099,1.0,0.0,0.0,0.0,1.0,0.0,0.0,0.0,1.0,-0.119710083008,-0.622492431641,10.2950671387,1.0,0.0,0.0,0.0,1.0,0.0,0.0,0.0,1.0
1463923067292827084,248,1463923067270570096,,10.4746494293,-2.22020244598,137.08354187,0.0205760002136,1.0,0.0,0.0,0.0,1.0,0.0,0.0,0.0,1.0,-0.487804889679,1.09756100178,-0.12195122242,1.0,0.0,0.0,0.0,1.0,0.0,0.0,0.0,1.0,-0.124498486328,-0.588973571866,10.2136642822,1.0,0.0,0.0,0.0,1.0,0.0,0.0,0.0,1.0
1463923067293099635,249,1463923067290772666,,10.3479652405,-2.24951505661,137.094055176,0.0204399991781,1.0,0.0,0.0,0.0,1.0,0.0,0.0,0.0,1.0,-0.548780500889,1.40243899822,0.18292683363,1.0,0.0,0.0,0.0,1.0,0.0,0.0,0.0,1.0,-0.15801730957,-0.588973571866,10.1609918457,1.0,0.0,0.0,0.0,1.0,0.0,0.0,0.0,1.0
1463923067342057759,250,1463923067311384974,,10.2363319397,-2.26531744003,137.125305176,0.0202389992774,1.0,0.0,0.0,0.0,1.0,0.0,0.0,0.0,1.0,-0.426829278469,2.19512200356,1.15853655338,1.0,0.0,0.0,0.0,1.0,0.0,0.0,0.0,1.0,-0.110133276367,-0.536301208408,10.2759135254,1.0,0.0,0.0,0.0,1.0,0.0,0.0,0.0,1.0
1463923067342436664,251,1463923067331261295,,10.1323871613,-2.28865861893,137.161849976,0.0204000007361,1.0,0.0,0.0,0.0,1.0,0.0,0.0,0.0,1.0,-0.609756112099,2.74390244484,1.46341466904,1.0,0.0,0.0,0.0,1.0,0.0,0.0,0.0,1.0,-0.0622492431641,-0.569819995117,10.0939541992,1.0,0.0,0.0,0.0,1.0,0.0,0.0,0.0,1.0
1463923067416718898,252,1463923067351873238,,10.049077034,-2.33411574364,137.194244385,0.0204590000212,1.0,0.0,0.0,0.0,1.0,0.0,0.0,0.0,1.0,-1.2195122242,2.86585378647,1.34146344662,1.0,0.0,0.0,0.0,1.0,0.0,0.0,0.0,1.0,-0.210689746094,-0.660799658203,10.2328178955,1.0,0.0,0.0,0.0,1.0,0.0,0.0,0.0,1.0
1463923067417069105,253,1463923067372655493,,9.94502353668,-2.36885905266,137.223526001,0.0206070002168,1.0,0.0,0.0,0.0,1.0,0.0,0.0,0.0,1.0,-0.975609779358,2.13414645195,1.09756100178,1.0,0.0,0.0,0.0,1.0,0.0,0.0,0.0,1.0,-0.15322890625,-0.612915625,10.2902787354,1.0,0.0,0.0,0.0,1.0,0.0,0.0,0.0,1.0
1463923067418996962,254,1463923067393182645,,9.84973430634,-2.39362573624,137.259094238,0.0208470001817,1.0,0.0,0.0,0.0,1.0,0.0,0.0,0.0,1.0,-0.792682945728,2.37804889679,1.34146344662,1.0,0.0,0.0,0.0,1.0,0.0,0.0,0.0,1.0,-0.172382519531,-0.560243188477,10.1226846191,1.0,0.0,0.0,0.0,1.0,0.0,0.0,0.0,1.0
1463923067419301283,255,1463923067412675999,,9.74712657928,-2.41883158684,137.279586792,0.0197110008448,1.0,0.0,0.0,0.0,1.0,0.0,0.0,0.0,1.0,-0.792682945728,2.07317066193,0.670731723309,1.0,0.0,0.0,0.0,1.0,0.0,0.0,0.0,1.0,-0.100556469727,-0.560243188477,10.1274730225,1.0,0.0,0.0,0.0,1.0,0.0,0.0,0.0,1.0
1463923067481304664,256,1463923067433296692,,9.65929317474,-2.45584893227,137.296127319,0.0204070005566,1.0,0.0,0.0,0.0,1.0,0.0,0.0,0.0,1.0,-1.09756100178,2.25609779358,0.487804889679,1.0,0.0,0.0,0.0,1.0,0.0,0.0,0.0,1.0,-0.215478149414,-0.603338854892,10.1945106689,1.0,0.0,0.0,0.0,1.0,0.0,0.0,0.0,1.0
1463923067481576850,257,1463923067453691813,,9.5555305481,-2.48644185066,137.319198608,0.0204310007393,1.0,0.0,0.0,0.0,1.0,0.0,0.0,0.0,1.0,-1.2195122242,2.19512200356,0.731707334518,1.0,0.0,0.0,0.0,1.0,0.0,0.0,0.0,1.0,-0.067037651051,-0.536301208408,10.1418382324,1.0,0.0,0.0,0.0,1.0,0.0,0.0,0.0,1.0
1463923067481875495,258,1463923067474273184,,9.45005607605,-2.52030897141,137.331420898,0.0204000007361,1.0,0.0,0.0,0.0,1.0,0.0,0.0,0.0,1.0,-1.03658533096,1.8902438879,0.243902444839,1.0,0.0,0.0,0.0,1.0,0.0,0.0,0.0,1.0,-0.0909796630859,-0.588973571866,10.1514150391,1.0,0.0,0.0,0.0,1.0,0.0,0.0,0.0,1.0
1463923067497963082,259,1463923067494620753,,9.34623718262,-2.54876542091,137.345428467,0.0207940004766,1.0,0.0,0.0,0.0,1.0,0.0,0.0,0.0,1.0,-0.548780500889,2.19512200356,0.365853667259,1.0,0.0,0.0,0.0,1.0,0.0,0.0,0.0,1.0,-0.0478840332031,-0.632069238281,10.1418382324,1.0,0.0,0.0,0.0,1.0,0.0,0.0,0.0,1.0
1463923067525882130,260,1463923067514430460,,9.24335956573,-2.57703375816,137.351150513,0.0199950002134,1.0,0.0,0.0,0.0,1.0,0.0,0.0,0.0,1.0,-1.03658533096,1.64634156227,-0.12195122242,1.0,0.0,0.0,0.0,1.0,0.0,0.0,0.0,1.0,-0.105344873047,-0.545877978516,10.1562034424,1.0,0.0,0.0,0.0,1.0,0.0,0.0,0.0,1.0
1463923067536857604,261,1463923067534988653,,9.12538051605,-2.61817359924,137.352294922,0.0204099994153,1.0,0.0,0.0,0.0,1.0,0.0,0.0,0.0,1.0,-1.40243899822,1.8902438879,-0.304878056049,1.0,0.0,0.0,0.0,1.0,0.0,0.0,0.0,1.0,0.0718260498047,-0.593762048251,10.2711251221,1.0,0.0,0.0,0.0,1.0,0.0,0.0,0.0,1.0
1463923067583773653,262,1463923067555350962,,9.02750587463,-2.67285752296,137.36076355,0.0204189997166,1.0,0.0,0.0,0.0,1.0,0.0,0.0,0.0,1.0,-1.03658533096,2.31707310677,0.243902444839,1.0,0.0,0.0,0.0,1.0,0.0,0.0,0.0,1.0,-0.00478840332031,-0.804451757813,10.314220752,1.0,0.0,0.0,0.0,1.0,0.0,0.0,0.0,1.0
1463923067584029589,263,1463923067576245091,,8.94540214539,-2.71087169647,137.366851807,0.0204119998962,1.0,0.0,0.0,0.0,1.0,0.0,0.0,0.0,1.0,-0.609756112099,2.19512200356,0.0609756112099,1.0,0.0,0.0,0.0,1.0,0.0,0.0,0.0,1.0,-0.15322890625,-0.737414111328,10.2950671387,1.0,0.0,0.0,0.0,1.0,0.0,0.0,0.0,1.0
1463923067598867234,264,1463923067596608859,,8.85752773285,-2.72533965111,137.381271362,0.0204230006784,1.0,0.0,0.0,0.0,1.0,0.0,0.0,0.0,1.0,-0.426829278469,1.8902438879,0.304878056049,1.0,0.0,0.0,0.0,1.0,0.0,0.0,0.0,1.0,-0.138863696289,-0.569819995117,10.1753570557,1.0,0.0,0.0,0.0,1.0,0.0,0.0,0.0,1.0
1463923067618909128,265,1463923067616878564,,8.77305698395,-2.74094080925,137.409500122,0.0204099994153,1.0,0.0,0.0,0.0,1.0,0.0,0.0,0.0,1.0,-0.670731723309,2.25609779358,0.975609779358,1.0,0.0,0.0,0.0,1.0,0.0,0.0,0.0,1.0,-0.0814028564453,-0.560243188477,10.2376062988,1.0,0.0,0.0,0.0,1.0,0.0,0.0,0.0,1.0
1463923067638257222,266,1463923067636861968,,8.7209186554,-2.7576649189,137.439300537,0.0203709993511,1.0,0.0,0.0,0.0,1.0,0.0,0.0,0.0,1.0,-0.731707334518,3.10975623131,1.09756100178,1.0,0.0,0.0,0.0,1.0,0.0,0.0,0.0,1.0,-0.196324536133,-0.560243188477,10.165780249,1.0,0.0,0.0,0.0,1.0,0.0,0.0,0.0,1.0
1463923067662277692,267,1463923067657384328,,8.67069625854,-2.75647926331,137.481140137,0.0204099994153,1.0,0.0,0.0,0.0,1.0,0.0,0.0,0.0,1.0,-0.609756112099,3.35365867615,1.58536589146,1.0,0.0,0.0,0.0,1.0,0.0,0.0,0.0,1.0,-0.15801730957,-0.445321508789,10.2567599121,1.0,0.0,0.0,0.0,1.0,0.0,0.0,0.0,1.0
1463923067725400183,268,1463923067678015854,,8.64115810394,-2.78570699692,137.530288696,0.0204310007393,1.0,0.0,0.0,0.0,1.0,0.0,0.0,0.0,1.0,-1.8292683363,3.90243911743,2.01219511032,1.0,0.0,0.0,0.0,1.0,0.0,0.0,0.0,1.0,-0.229843359375,-0.502782348633,10.2280294922,1.0,0.0,0.0,0.0,1.0,0.0,0.0,0.0,1.0
1463923067751577936,269,1463923067698572902,,8.6198682785,-2.80066823959,137.582794189,0.0204520002007,1.0,0.0,0.0,0.0,1.0,0.0,0.0,0.0,1.0,-1.09756100178,4.14634132385,2.19512200356,1.0,0.0,0.0,0.0,1.0,0.0,0.0,0.0,1.0,-0.248996972656,-0.512359155273,10.1131078125,1.0,0.0,0.0,0.0,1.0,0.0,0.0,0.0,1.0
1463923067751954809,270,1463923067718869117,,8.58302497864,-2.81466150284,137.618850708,0.0203450005502,1.0,0.0,0.0,0.0,1.0,0.0,0.0,0.0,1.0,-0.548780500889,3.96341490746,1.46341466904,1.0,0.0,0.0,0.0,1.0,0.0,0.0,0.0,1.0,-0.148440512063,-0.593762048251,10.2711251221,1.0,0.0,0.0,0.0,1.0,0.0,0.0,0.0,1.0
1463923067766645007,271,1463923067741873602,,8.55039978027,-2.86170053482,137.646316528,0.0204269997776,1.0,0.0,0.0,0.0,1.0,0.0,0.0,0.0,1.0,-1.46341466904,3.10975623131,1.09756100178,1.0,0.0,0.0,0.0,1.0,0.0,0.0,0.0,1.0,-0.339976635742,-0.713472094727,10.2711251221,1.0,0.0,0.0,0.0,1.0,0.0,0.0,0.0,1.0
1463923067766923912,272,1463923067760235607,,8.48169708252,-2.89340472221,137.660430908,0.0204230006784,1.0,0.0,0.0,0.0,1.0,0.0,0.0,0.0,1.0,-1.34146344662,2.25609779358,0.304878056049,1.0,0.0,0.0,0.0,1.0,0.0,0.0,0.0,1.0,-0.172382519531,-0.584185168546,10.1992990723,1.0,0.0,0.0,0.0,1.0,0.0,0.0,0.0,1.0
1463923067967427690,273,1463923067780215209,,8.4046087265,-2.92768979073,137.671279907,0.0203889999539,1.0,0.0,0.0,0.0,1.0,0.0,0.0,0.0,1.0,-1.2195122242,2.25609779358,0.18292683363,1.0,0.0,0.0,0.0,1.0,0.0,0.0,0.0,1.0,-0.0861912597656,-0.636857641602,10.2902787354,1.0,0.0,0.0,0.0,1.0,0.0,0.0,0.0,1.0
1463923067967782480,274,1463923067800437154,,8.34525966644,-2.95334196091,137.693191528,0.020428000018,1.0,0.0,0.0,0.0,1.0,0.0,0.0,0.0,1.0,-0.975609779358,2.80487799644,0.731707334518,1.0,0.0,0.0,0.0,1.0,0.0,0.0,0.0,1.0,-0.124498486328,-0.612915625,10.1083194092,1.0,0.0,0.0,0.0,1.0,0.0,0.0,0.0,1.0
1463923067968038625,275,1463923067820576599,,8.2673406601,-2.98257184029,137.714157104,0.0203949995339,1.0,0.0,0.0,0.0,1.0,0.0,0.0,0.0,1.0,-1.15853655338,2.5,0.670731723309,1.0,0.0,0.0,0.0,1.0,0.0,0.0,0.0,1.0,-0.00478840332031,-0.627280834961,10.3094323486,1.0,0.0,0.0,0.0,1.0,0.0,0.0,0.0,1.0
1463923067968318832,276,1463923067840880783,,8.19868087769,-3.00185108185,137.738967896,0.0204169992357,1.0,0.0,0.0,0.0,1.0,0.0,0.0,0.0,1.0,-1.15853655338,2.56097555161,0.792682945728,1.0,0.0,0.0,0.0,1.0,0.0,0.0,0.0,1.0,-0.0622492431641,-0.545877978516,10.285490332,1.0,0.0,0.0,0.0,1.0,0.0,0.0,0.0,1.0
1463923067968575810,277,1463923067861438143,,8.13349914551,-3.0186009407,137.767654419,0.0204300004989,1.0,0.0,0.0,0.0,1.0,0.0,0.0,0.0,1.0,-0.853658556938,1.8902438879,0.975609779358,1.0,0.0,0.0,0.0,1.0,0.0,0.0,0.0,1.0,-0.201112939453,-0.584185168546,10.2328178955,1.0,0.0,0.0,0.0,1.0,0.0,0.0,0.0,1.0
1463923067968840861,278,1463923067881890347,,8.05812931061,-3.04201602936,137.796676636,0.0203760005534,1.0,0.0,0.0,0.0,1.0,0.0,0.0,0.0,1.0,-0.792682945728,1.58536589146,1.03658533096,1.0,0.0,0.0,0.0,1.0,0.0,0.0,0.0,1.0,-0.15322890625,-0.665588061523,10.3381627686,1.0,0.0,0.0,0.0,1.0,0.0,0.0,0.0,1.0
1463923067969106120,279,1463923067902680675,,7.98195552826,-3.05209708214,137.828445435,0.0203970000148,1.0,0.0,0.0,0.0,1.0,0.0,0.0,0.0,1.0,-0.487804889679,1.15853655338,1.09756100178,1.0,0.0,0.0,0.0,1.0,0.0,0.0,0.0,1.0,-0.210689746094,-0.60812722168,10.3381627686,1.0,0.0,0.0,0.0,1.0,0.0,0.0,0.0,1.0
1463923067969378098,280,1463923067923043661,,7.92550563812,-3.06155395508,137.847564697,0.0204089991748,1.0,0.0,0.0,0.0,1.0,0.0,0.0,0.0,1.0,-0.304878056049,2.13414645195,0.548780500889,1.0,0.0,0.0,0.0,1.0,0.0,0.0,0.0,1.0,-0.196324536133,-0.60812722168,10.1083194092,1.0,0.0,0.0,0.0,1.0,0.0,0.0,0.0,1.0
1463923067969719555,281,1463923067943367324,,7.88243150711,-3.08381390572,137.847183228,0.0204440001398,1.0,0.0,0.0,0.0,1.0,0.0,0.0,0.0,1.0,-0.670731723309,2.31707310677,-0.365853667259,1.0,0.0,0.0,0.0,1.0,0.0,0.0,0.0,1.0,-0.287304199219,-0.646434448242,10.3237975586,1.0,0.0,0.0,0.0,1.0,0.0,0.0,0.0,1.0
1463923067969779659,282,1463923067963719060,,7.81923151016,-3.11602711678,137.846740723,0.0204019993544,1.0,0.0,0.0,0.0,1.0,0.0,0.0,0.0,1.0,-1.2804877758,2.68292689323,-0.365853667259,1.0,0.0,0.0,0.0,1.0,0.0,0.0,0.0,1.0,-0.0287304199219,-0.612915625,10.0700121826,1.0,0.0,0.0,0.0,1.0,0.0,0.0,0.0,1.0
1463923067995452049,283,1463923067983889026,,7.7769742012,-3.16263437271,137.8540802,0.0204189997166,1.0,0.0,0.0,0.0,1.0,0.0,0.0,0.0,1.0,-1.64634156227,2.56097555161,0.0609756112099,1.0,0.0,0.0,0.0,1.0,0.0,0.0,0.0,1.0,-0.225054956055,-0.703895288086,10.2902787354,1.0,0.0,0.0,0.0,1.0,0.0,0.0,0.0,1.0
1463923068007021427,284,1463923068004816801,,7.71872377396,-3.20312380791,137.867477417,0.0203719995916,1.0,0.0,0.0,0.0,1.0,0.0,0.0,0.0,1.0,-1.2804877758,2.43902444839,0.365853667259,1.0,0.0,0.0,0.0,1.0,0.0,0.0,0.0,1.0,-0.0909796630859,-0.727837304687,10.2232410889,1.0,0.0,0.0,0.0,1.0,0.0,0.0,0.0,1.0
1463923068036056407,285,1463923068025219943,,7.68307065964,-3.23987293243,137.873718262,0.0205390006304,1.0,0.0,0.0,0.0,1.0,0.0,0.0,0.0,1.0,-1.2804877758,2.68292689323,0.0,1.0,0.0,0.0,0.0,1.0,0.0,0.0,0.0,1.0,-0.244208569336,-0.689530078125,10.2136642822,1.0,0.0,0.0,0.0,1.0,0.0,0.0,0.0,1.0
1463923068047438494,286,1463923068045513450,,7.6397061348,-3.2633368969,137.879119873,0.0202820003033,1.0,0.0,0.0,0.0,1.0,0.0,0.0,0.0,1.0,-0.975609779358,1.95121955872,-0.12195122242,1.0,0.0,0.0,0.0,1.0,0.0,0.0,0.0,1.0,-0.296881024126,-0.632069238281,10.1609918457,1.0,0.0,0.0,0.0,1.0,0.0,0.0,0.0,1.0
1463923068088398266,287,1463923068065742113,,7.56466913223,-3.30110263824,137.87828064,0.0205799993128,1.0,0.0,0.0,0.0,1.0,0.0,0.0,0.0,1.0,-1.40243899822,1.40243899822,-0.426829278469,1.0,0.0,0.0,0.0,1.0,0.0,0.0,0.0,1.0,-0.119710083008,-0.679953271484,10.2423947021,1.0,0.0,0.0,0.0,1.0,0.0,0.0,0.0,1.0
1463923068088702328,288,1463923068085842288,,7.50012111664,-3.30466246605,137.883331299,0.0202190000564,1.0,0.0,0.0,0.0,1.0,0.0,0.0,0.0,1.0,-0.0609756112099,1.2804877758,-0.18292683363,1.0,0.0,0.0,0.0,1.0,0.0,0.0,0.0,1.0,-0.210689746094,-0.641646044922,10.3429511719,1.0,0.0,0.0,0.0,1.0,0.0,0.0,0.0,1.0
1463923068108716565,289,1463923068106710792,,7.4380068779,-3.30180954933,137.880355835,0.0204240009189,1.0,0.0,0.0,0.0,1.0,0.0,0.0,0.0,1.0,0.0,1.34146344662,-0.609756112099,1.0,0.0,0.0,0.0,1.0,0.0,0.0,0.0,1.0,-0.215478149414,-0.574608398438,10.1466266357,1.0,0.0,0.0,0.0,1.0,0.0,0.0,0.0,1.0
1463923068131715529,290,1463923068126763623,,7.37462425232,-3.33476424217,137.877441406,0.0203930009156,1.0,0.0,0.0,0.0,1.0,0.0,0.0,0.0,1.0,-0.975609779358,1.64634156227,-0.487804889679,1.0,0.0,0.0,0.0,1.0,0.0,0.0,0.0,1.0,-0.138863696289,-0.727837304687,10.3190091553,1.0,0.0,0.0,0.0,1.0,0.0,0.0,0.0,1.0
1463923068149152069,291,1463923068147337285,,7.31577157974,-3.35061359406,137.890914917,0.0204039998353,1.0,0.0,0.0,0.0,1.0,0.0,0.0,0.0,1.0,-0.365853667259,1.8902438879,0.304878056049,1.0,0.0,0.0,0.0,1.0,0.0,0.0,0.0,1.0,-0.114921679688,-0.708683691406,10.2950671387,1.0,0.0,0.0,0.0,1.0,0.0,0.0,0.0,1.0
1463923068187325343,292,1463923068168384018,,7.25978803635,-3.35957765579,137.921951294,0.0204329993576,1.0,0.0,0.0,0.0,1.0,0.0,0.0,0.0,1.0,-0.304878056049,1.2804877758,1.09756100178,1.0,0.0,0.0,0.0,1.0,0.0,0.0,0.0,1.0,-0.229843359375,-0.670376464844,10.1418382324,1.0,0.0,0.0,0.0,1.0,0.0,0.0,0.0,1.0
1463923068190495486,293,1463923068188814712,,7.21311426163,-3.35894560814,137.943359375,0.0204089991748,1.0,0.0,0.0,0.0,1.0,0.0,0.0,0.0,1.0,-0.0609756112099,1.52439022064,0.609756112099,1.0,0.0,0.0,0.0,1.0,0.0,0.0,0.0,1.0,-0.268150604204,-0.632069238281,10.3381627686,1.0,0.0,0.0,0.0,1.0,0.0,0.0,0.0,1.0
1463923068222143684,294,1463923068209167073,,7.14630889893,-3.36416125298,137.954849243,0.0204130001366,1.0,0.0,0.0,0.0,1.0,0.0,0.0,0.0,1.0,-0.18292683363,1.15853655338,0.12195122242,1.0,0.0,0.0,0.0,1.0,0.0,0.0,0.0,1.0,-0.148440512063,-0.641646044922,10.1897222656,1.0,0.0,0.0,0.0,1.0,0.0,0.0,0.0,1.0
1463923068231070052,295,1463923068229274539,,7.1017370224,-3.38471913338,137.952285767,0.0203959997743,1.0,0.0,0.0,0.0,1.0,0.0,0.0,0.0,1.0,-0.426829278469,2.5,-0.426829278469,1.0,0.0,0.0,0.0,1.0,0.0,0.0,0.0,1.0,-0.0957680664062,-0.713472094727,10.1035310059,1.0,0.0,0.0,0.0,1.0,0.0,0.0,0.0,1.0
1463923068269362649,296,1463923068249828357,,7.08147478104,-3.40237259865,137.958297729,0.0204210001975,1.0,0.0,0.0,0.0,1.0,0.0,0.0,0.0,1.0,-0.426829278469,2.86585378647,0.0,1.0,0.0,0.0,0.0,1.0,0.0,0.0,0.0,1.0,-0.229843359375,-0.694318481445,10.0125513428,1.0,0.0,0.0,0.0,1.0,0.0,0.0,0.0,1.0
1463923068272613104,297,1463923068270141239,,7.06184768677,-3.41584348679,137.972961426,0.0204019993544,1.0,0.0,0.0,0.0,1.0,0.0,0.0,0.0,1.0,-1.15853655338,3.7804877758,0.365853667259,1.0,0.0,0.0,0.0,1.0,0.0,0.0,0.0,1.0,-0.067037651051,-0.550666381836,10.2184526855,1.0,0.0,0.0,0.0,1.0,0.0,0.0,0.0,1.0
1463923068302744850,298,1463923068290473288,,7.020652771,-3.45172047615,137.969146729,0.0204060003161,1.0,0.0,0.0,0.0,1.0,0.0,0.0,0.0,1.0,-1.2804877758,2.68292689323,-0.487804889679,1.0,0.0,0.0,0.0,1.0,0.0,0.0,0.0,1.0,-0.0814028564453,-0.723048901367,10.3956236084,1.0,0.0,0.0,0.0,1.0,0.0,0.0,0.0,1.0
1463923068314298603,299,1463923068312510277,,6.98521518707,-3.47174477577,137.941848755,0.0206289999187,1.0,0.0,0.0,0.0,1.0,0.0,0.0,0.0,1.0,-0.914634168148,2.19512200356,-1.70731711388,1.0,0.0,0.0,0.0,1.0,0.0,0.0,0.0,1.0,-0.229843359375,-0.61770402832,10.2615483154,1.0,0.0,0.0,0.0,1.0,0.0,0.0,0.0,1.0
1463923068333242220,300,1463923068331136187,,6.93750429153,-3.49471592903,137.918777466,0.0201810002327,1.0,0.0,0.0,0.0,1.0,0.0,0.0,0.0,1.0,-0.548780500889,2.13414645195,-1.46341466904,1.0,0.0,0.0,0.0,1.0,0.0,0.0,0.0,1.0,-0.114921679688,-0.727837304687,10.3285859619,1.0,0.0,0.0,0.0,1.0,0.0,0.0,0.0,1.0
1463923068367603635,301,1463923068351447767,,6.88644599915,-3.50018072128,137.88458252,0.0204140003771,1.0,0.0,0.0,0.0,1.0,0.0,0.0,0.0,1.0,-0.12195122242,1.76829278469,-2.07317066193,1.0,0.0,0.0,0.0,1.0,0.0,0.0,0.0,1.0,-0.15322890625,-0.632069238281,10.2232410889,1.0,0.0,0.0,0.0,1.0,0.0,0.0,0.0,1.0
1463923068407592266,302,1463923068371645180,,6.84201812744,-3.51017737389,137.838806152,0.0203879997134,1.0,0.0,0.0,0.0,1.0,0.0,0.0,0.0,1.0,-0.18292683363,1.8292683363,-2.62195134163,1.0,0.0,0.0,0.0,1.0,0.0,0.0,0.0,1.0,-0.196324536133,-0.646434448242,10.1609918457,1.0,0.0,0.0,0.0,1.0,0.0,0.0,0.0,1.0
1463923068407811380,303,1463923068392102801,,6.79907941818,-3.52472615242,137.812469482,0.0204620007426,1.0,0.0,0.0,0.0,1.0,0.0,0.0,0.0,1.0,-0.426829278469,2.07317066193,-1.64634156227,1.0,0.0,0.0,0.0,1.0,0.0,0.0,0.0,1.0,-0.148440512063,-0.665588061523,10.1705686523,1.0,0.0,0.0,0.0,1.0,0.0,0.0,0.0,1.0
1463923068441014311,304,1463923068412810056,,6.77764511108,-3.53981018066,137.795654297,0.0203859992325,1.0,0.0,0.0,0.0,1.0,0.0,0.0,0.0,1.0,0.0,2.56097555161,-1.09756100178,1.0,0.0,0.0,0.0,1.0,0.0,0.0,0.0,1.0,-0.239420166016,-0.77093293457,10.3046439453,1.0,0.0,0.0,0.0,1.0,0.0,0.0,0.0,1.0
1463923068441392747,305,1463923068433348146,,6.75368833542,-3.536662817,137.791290283,0.0204019993544,1.0,0.0,0.0,0.0,1.0,0.0,0.0,0.0,1.0,0.304878056049,2.62195134163,-0.548780500889,1.0,0.0,0.0,0.0,1.0,0.0,0.0,0.0,1.0,-0.191536132812,-0.665588061523,10.1083194092,1.0,0.0,0.0,0.0,1.0,0.0,0.0,0.0,1.0
1463923068466449879,306,1463923068453812902,,6.72209024429,-3.54711318016,137.777206421,0.0204050000757,1.0,0.0,0.0,0.0,1.0,0.0,0.0,0.0,1.0,-0.304878056049,1.40243899822,-1.09756100178,1.0,0.0,0.0,0.0,1.0,0.0,0.0,0.0,1.0,-0.344765039063,-0.665588061523,10.1131078125,1.0,0.0,0.0,0.0,1.0,0.0,0.0,0.0,1.0
1463923068474872187,307,1463923068473626203,,6.67449092865,-3.55786371231,137.759368896,0.0203840006143,1.0,0.0,0.0,0.0,1.0,0.0,0.0,0.0,1.0,0.18292683363,1.46341466904,-1.2195122242,1.0,0.0,0.0,0.0,1.0,0.0,0.0,0.0,1.0,-0.191536132812,-0.76614453125,10.2711251221,1.0,0.0,0.0,0.0,1.0,0.0,0.0,0.0,1.0
1463923068503538731,308,1463923068494012522,,6.63439321518,-3.54238295555,137.749847412,0.0204150006175,1.0,0.0,0.0,0.0,1.0,0.0,0.0,0.0,1.0,0.792682945728,2.01219511032,-0.853658556938,1.0,0.0,0.0,0.0,1.0,0.0,0.0,0.0,1.0,-0.143652099609,-0.641646044922,10.0939541992,1.0,0.0,0.0,0.0,1.0,0.0,0.0,0.0,1.0
1463923068516323312,309,1463923068514479622,,6.61775445938,-3.53911995888,137.752578735,0.0204050000757,1.0,0.0,0.0,0.0,1.0,0.0,0.0,0.0,1.0,0.0,2.5,-0.243902444839,1.0,0.0,0.0,0.0,1.0,0.0,0.0,0.0,1.0,-0.248996972656,-0.61770402832,10.1131078125,1.0,0.0,0.0,0.0,1.0,0.0,0.0,0.0,1.0
1463923068607865577,310,1463923068535498074,,6.58267641068,-3.54930090904,137.754714966,0.0207150001079,1.0,0.0,0.0,0.0,1.0,0.0,0.0,0.0,1.0,-0.243902444839,2.25609779358,-0.243902444839,1.0,0.0,0.0,0.0,1.0,0.0,0.0,0.0,1.0,-0.134075302102,-0.699106884766,10.2471831055,1.0,0.0,0.0,0.0,1.0,0.0,0.0,0.0,1.0
1463923068607903597,311,1463923068555143979,,6.56486749649,-3.55353975296,137.750671387,0.0200849995017,1.0,0.0,0.0,0.0,1.0,0.0,0.0,0.0,1.0,-0.0609756112099,2.43902444839,-0.548780500889,1.0,0.0,0.0,0.0,1.0,0.0,0.0,0.0,1.0,-0.244208569336,-0.675164868164,10.2232410889,1.0,0.0,0.0,0.0,1.0,0.0,0.0,0.0,1.0
1463923068607940837,312,1463923068575664100,,6.51784849167,-3.54104447365,137.744491577,0.0204310007393,1.0,0.0,0.0,0.0,1.0,0.0,0.0,0.0,1.0,-0.18292683363,1.8902438879,-0.792682945728,1.0,0.0,0.0,0.0,1.0,0.0,0.0,0.0,1.0,-0.0861912597656,-0.502782348633,10.2423947021,1.0,0.0,0.0,0.0,1.0,0.0,0.0,0.0,1.0
1463923068607977087,313,1463923068596022086,,6.48362445831,-3.52878546715,137.731414795,0.0204009991139,1.0,0.0,0.0,0.0,1.0,0.0,0.0,0.0,1.0,0.12195122242,1.8902438879,-1.09756100178,1.0,0.0,0.0,0.0,1.0,0.0,0.0,0.0,1.0,-0.196324536133,-0.555454785156,10.3237975586,1.0,0.0,0.0,0.0,1.0,0.0,0.0,0.0,1.0
1463923068632587190,314,1463923068617071527,,6.44387149811,-3.52966022491,137.728927612,0.0204099994153,1.0,0.0,0.0,0.0,1.0,0.0,0.0,0.0,1.0,-0.243902444839,2.80487799644,-0.487804889679,1.0,0.0,0.0,0.0,1.0,0.0,0.0,0.0,1.0,0.0335188255255,-0.612915625,10.285490332,1.0,0.0,0.0,0.0,1.0,0.0,0.0,0.0,1.0
1463923068665706423,315,1463923068636953682,,6.43462085724,-3.5238301754,137.727050781,0.0204610005021,1.0,0.0,0.0,0.0,1.0,0.0,0.0,0.0,1.0,-0.18292683363,2.80487799644,-0.487804889679,1.0,0.0,0.0,0.0,1.0,0.0,0.0,0.0,1.0,-0.234631762695,-0.569819995117,10.3764699951,1.0,0.0,0.0,0.0,1.0,0.0,0.0,0.0,1.0
1463923068667427405,316,1463923068658476610,,6.41317367554,-3.50650453568,137.70664978,0.0203859992325,1.0,0.0,0.0,0.0,1.0,0.0,0.0,0.0,1.0,0.0609756112099,2.37804889679,-1.46341466904,1.0,0.0,0.0,0.0,1.0,0.0,0.0,0.0,1.0,-0.210689746094,-0.488417138672,10.3285859619,1.0,0.0,0.0,0.0,1.0,0.0,0.0,0.0,1.0
1463923068804253070,317,1463923068678747513,,6.39392900467,-3.51418423653,137.674377441,0.0204860009253,1.0,0.0,0.0,0.0,1.0,0.0,0.0,0.0,1.0,-0.243902444839,2.13414645195,-1.95121955872,1.0,0.0,0.0,0.0,1.0,0.0,0.0,0.0,1.0,-0.272938989258,-0.632069238281,10.1562034424,1.0,0.0,0.0,0.0,1.0,0.0,0.0,0.0,1.0
1463923068804575361,318,1463923068698628470,,6.35963201523,-3.52351212502,137.636291504,0.0203479994088,1.0,0.0,0.0,0.0,1.0,0.0,0.0,0.0,1.0,-0.426829278469,2.19512200356,-2.25609779358,1.0,0.0,0.0,0.0,1.0,0.0,0.0,0.0,1.0,-0.129286889648,-0.61770402832,10.2902787354,1.0,0.0,0.0,0.0,1.0,0.0,0.0,0.0,1.0
1463923068805794470,319,1463923068719816504,,6.35124588013,-3.53636264801,137.610687256,0.0204009991139,1.0,0.0,0.0,0.0,1.0,0.0,0.0,0.0,1.0,-0.18292683363,2.25609779358,-1.58536589146,1.0,0.0,0.0,0.0,1.0,0.0,0.0,0.0,1.0,-0.339976635742,-0.713472094727,10.3668931885,1.0,0.0,0.0,0.0,1.0,0.0,0.0,0.0,1.0
1463923068806227333,320,1463923068739758398,,6.31319618225,-3.53928565979,137.592803955,0.0203990004957,1.0,0.0,0.0,0.0,1.0,0.0,0.0,0.0,1.0,-0.12195122242,1.8292683363,-1.2804877758,1.0,0.0,0.0,0.0,1.0,0.0,0.0,0.0,1.0,-0.143652099609,-0.636857641602,10.2376062988,1.0,0.0,0.0,0.0,1.0,0.0,0.0,0.0,1.0
1463923068806284468,321,1463923068760662528,,6.29799842834,-3.53909707069,137.582611084,0.0204089991748,1.0,0.0,0.0,0.0,1.0,0.0,0.0,0.0,1.0,-0.0609756112099,2.74390244484,-0.853658556938,1.0,0.0,0.0,0.0,1.0,0.0,0.0,0.0,1.0,-0.172382519531,-0.636857641602,10.3764699951,1.0,0.0,0.0,0.0,1.0,0.0,0.0,0.0,1.0
1463923068807562275,322,1463923068780736088,,6.28373003006,-3.54767465591,137.576477051,0.0205070003867,1.0,0.0,0.0,0.0,1.0,0.0,0.0,0.0,1.0,-0.670731723309,1.8292683363,-0.731707334518,1.0,0.0,0.0,0.0,1.0,0.0,0.0,0.0,1.0,-0.339976635742,-0.598550451572,10.2280294922,1.0,0.0,0.0,0.0,1.0,0.0,0.0,0.0,1.0
1463923068906063104,323,1463923068800724908,,6.2392411232,-3.55745863914,137.568313599,0.0202939994633,1.0,0.0,0.0,0.0,1.0,0.0,0.0,0.0,1.0,-0.12195122242,1.40243899822,-0.792682945728,1.0,0.0,0.0,0.0,1.0,0.0,0.0,0.0,1.0,-0.143652099609,-0.708683691406,10.2136642822,1.0,0.0,0.0,0.0,1.0,0.0,0.0,0.0,1.0
1463923068906939090,324,1463923068821051436,,6.19548082352,-3.56276321411,137.54826355,0.020386999473,1.0,0.0,0.0,0.0,1.0,0.0,0.0,0.0,1.0,-0.670731723309,1.34146344662,-1.46341466904,1.0,0.0,0.0,0.0,1.0,0.0,0.0,0.0,1.0,-0.162805712891,-0.560243188477,10.2376062988,1.0,0.0,0.0,0.0,1.0,0.0,0.0,0.0,1.0
1463923068907367161,325,1463923068841915514,,6.1598982811,-3.56464290619,137.537384033,0.0204590000212,1.0,0.0,0.0,0.0,1.0,0.0,0.0,0.0,1.0,0.304878056049,1.46341466904,-0.914634168148,1.0,0.0,0.0,0.0,1.0,0.0,0.0,0.0,1.0,-0.201112939453,-0.718260498047,10.2519715088,1.0,0.0,0.0,0.0,1.0,0.0,0.0,0.0,1.0
1463923068908307469,326,1463923068861693450,,6.12514877319,-3.56204557419,137.530105591,0.0203840006143,1.0,0.0,0.0,0.0,1.0,0.0,0.0,0.0,1.0,-0.243902444839,0.975609779358,-0.853658556938,1.0,0.0,0.0,0.0,1.0,0.0,0.0,0.0,1.0,-0.287304199219,-0.579396801758,10.2088758789,1.0,0.0,0.0,0.0,1.0,0.0,0.0,0.0,1.0
1463923068984156468,327,1463923068882291487,,6.0936050415,-3.56040096283,137.521347046,0.0204169992357,1.0,0.0,0.0,0.0,1.0,0.0,0.0,0.0,1.0,-0.365853667259,1.2804877758,-0.914634168148,1.0,0.0,0.0,0.0,1.0,0.0,0.0,0.0,1.0,-0.253785375977,-0.560243188477,10.1418382324,1.0,0.0,0.0,0.0,1.0,0.0,0.0,0.0,1.0
1463923068984442560,328,1463923068902409057,,6.07590675354,-3.58330726624,137.508621216,0.0203820001334,1.0,0.0,0.0,0.0,1.0,0.0,0.0,0.0,1.0,-0.609756112099,1.76829278469,-0.975609779358,1.0,0.0,0.0,0.0,1.0,0.0,0.0,0.0,1.0,-0.282515795898,-0.727837304687,10.1131078125,1.0,0.0,0.0,0.0,1.0,0.0,0.0,0.0,1.0
1463923068984718497,329,1463923068923255582,,6.03597593307,-3.57497787476,137.511367798,0.0204450003803,1.0,0.0,0.0,0.0,1.0,0.0,0.0,0.0,1.0,-0.0609756112099,1.03658533096,-0.365853667259,1.0,0.0,0.0,0.0,1.0,0.0,0.0,0.0,1.0,-0.210689746094,-0.574608398438,10.2088758789,1.0,0.0,0.0,0.0,1.0,0.0,0.0,0.0,1.0
1463923068985023235,330,1463923068943796536,,6.00443267822,-3.58897089958,137.510253906,0.0203850008547,1.0,0.0,0.0,0.0,1.0,0.0,0.0,0.0,1.0,-0.731707334518,1.40243899822,-0.487804889679,1.0,0.0,0.0,0.0,1.0,0.0,0.0,0.0,1.0,-0.210689746094,-0.641646044922,10.1322614258,1.0,0.0,0.0,0.0,1.0,0.0,0.0,0.0,1.0
1463923069013514363,331,1463923068964824415,,5.96634578705,-3.59074926376,137.531311035,0.0204039998353,1.0,0.0,0.0,0.0,1.0,0.0,0.0,0.0,1.0,-0.609756112099,1.34146344662,0.548780500889,1.0,0.0,0.0,0.0,1.0,0.0,0.0,0.0,1.0,-0.148440512063,-0.584185168546,10.2328178955,1.0,0.0,0.0,0.0,1.0,0.0,0.0,0.0,1.0
1463923069013694102,332,1463923068984095479,,5.94560861588,-3.60979914665,137.554489136,0.0203949995339,1.0,0.0,0.0,0.0,1.0,0.0,0.0,0.0,1.0,-0.853658556938,1.58536589146,0.731707334518,1.0,0.0,0.0,0.0,1.0,0.0,0.0,0.0,1.0,-0.248996972656,-0.694318481445,10.2040874756,1.0,0.0,0.0,0.0,1.0,0.0,0.0,0.0,1.0
1463923069040203103,333,1463923069004239090,,5.91352081299,-3.62401390076,137.587036133,0.0203970000148,1.0,0.0,0.0,0.0,1.0,0.0,0.0,0.0,1.0,-0.365853667259,1.58536589146,1.2195122242,1.0,0.0,0.0,0.0,1.0,0.0,0.0,0.0,1.0,-0.138863696289,-0.751779321289,10.2040874756,1.0,0.0,0.0,0.0,1.0,0.0,0.0,0.0,1.0
1463923069040463102,334,1463923069024777180,,5.89278316498,-3.64012527466,137.629760742,0.0204249992967,1.0,0.0,0.0,0.0,1.0,0.0,0.0,0.0,1.0,-0.670731723309,1.76829278469,1.70731711388,1.0,0.0,0.0,0.0,1.0,0.0,0.0,0.0,1.0,-0.196324536133,-0.727837304687,10.2471831055,1.0,0.0,0.0,0.0,1.0,0.0,0.0,0.0,1.0
1463923069078530856,335,1463923069045089332,,5.86754369736,-3.64537549019,137.665298462,0.0204019993544,1.0,0.0,0.0,0.0,1.0,0.0,0.0,0.0,1.0,-0.18292683363,1.58536589146,1.34146344662,1.0,0.0,0.0,0.0,1.0,0.0,0.0,0.0,1.0,-0.191536132812,-0.723048901367,10.3477395752,1.0,0.0,0.0,0.0,1.0,0.0,0.0,0.0,1.0
1463923069078827886,336,1463923069066056587,,5.84673786163,-3.65195775032,137.703018188,0.0204230006784,1.0,0.0,0.0,0.0,1.0,0.0,0.0,0.0,1.0,-0.670731723309,1.58536589146,1.40243899822,1.0,0.0,0.0,0.0,1.0,0.0,0.0,0.0,1.0,-0.220266552734,-0.632069238281,10.0939541992,1.0,0.0,0.0,0.0,1.0,0.0,0.0,0.0,1.0
1463923069119815888,337,1463923069086459781,,5.80738973618,-3.65941214561,137.735244751,0.0204550009221,1.0,0.0,0.0,0.0,1.0,0.0,0.0,0.0,1.0,-0.487804889679,1.64634156227,1.15853655338,1.0,0.0,0.0,0.0,1.0,0.0,0.0,0.0,1.0,-0.0478840332031,-0.684741674805,10.3381627686,1.0,0.0,0.0,0.0,1.0,0.0,0.0,0.0,1.0
1463923069120087137,338,1463923069106470997,,5.78829956055,-3.65325307846,137.757553101,0.020361000672,1.0,0.0,0.0,0.0,1.0,0.0,0.0,0.0,1.0,0.0,1.8292683363,0.670731723309,1.0,0.0,0.0,0.0,1.0,0.0,0.0,0.0,1.0,-0.191536132812,-0.636857641602,10.2232410889,1.0,0.0,0.0,0.0,1.0,0.0,0.0,0.0,1.0
1463923069157945985,339,1463923069126770233,,5.7392373085,-3.65245437622,137.776062012,0.0204450003803,1.0,0.0,0.0,0.0,1.0,0.0,0.0,0.0,1.0,-0.365853667259,1.15853655338,0.426829278469,1.0,0.0,0.0,0.0,1.0,0.0,0.0,0.0,1.0,-0.0478840332031,-0.622492431641,10.3716815918,1.0,0.0,0.0,0.0,1.0,0.0,0.0,0.0,1.0
1463923069158225099,340,1463923069147053428,,5.716755867,-3.6503264904,137.783416748,0.0203750003129,1.0,0.0,0.0,0.0,1.0,0.0,0.0,0.0,1.0,-0.12195122242,1.76829278469,-0.0609756112099,1.0,0.0,0.0,0.0,1.0,0.0,0.0,0.0,1.0,-0.167594116211,-0.632069238281,10.1609918457,1.0,0.0,0.0,0.0,1.0,0.0,0.0,0.0,1.0
1463923069199823931,341,1463923069167859068,,5.69325351715,-3.64978003502,137.798171997,0.0204029995948,1.0,0.0,0.0,0.0,1.0,0.0,0.0,0.0,1.0,-0.365853667259,2.07317066193,0.304878056049,1.0,0.0,0.0,0.0,1.0,0.0,0.0,0.0,1.0,-0.0957680664062,-0.60812722168,10.1609918457,1.0,0.0,0.0,0.0,1.0,0.0,0.0,0.0,1.0
1463923069199964764,342,1463923069188831478,,5.69711780548,-3.64806866646,137.812774658,0.0204109996557,1.0,0.0,0.0,0.0,1.0,0.0,0.0,0.0,1.0,-0.609756112099,2.68292689323,0.304878056049,1.0,0.0,0.0,0.0,1.0,0.0,0.0,0.0,1.0,-0.220266552734,-0.545877978516,10.0221281494,1.0,0.0,0.0,0.0,1.0,0.0,0.0,0.0,1.0
1463923069304402495,343,1463923069209229308,,5.66806697845,-3.67247676849,137.800262451,0.0204099994153,1.0,0.0,0.0,0.0,1.0,0.0,0.0,0.0,1.0,-1.64634156227,2.13414645195,-1.03658533096,1.0,0.0,0.0,0.0,1.0,0.0,0.0,0.0,1.0,-0.0478840332031,-0.574608398438,10.180145459,1.0,0.0,0.0,0.0,1.0,0.0,0.0,0.0,1.0
1463923069304760566,344,1463923069228978807,,5.64682626724,-3.70209145546,137.804794312,0.0204900000244,1.0,0.0,0.0,0.0,1.0,0.0,0.0,0.0,1.0,-1.76829278469,2.19512200356,-0.18292683363,1.0,0.0,0.0,0.0,1.0,0.0,0.0,0.0,1.0,-0.0909796630859,-0.612915625,10.1131078125,1.0,0.0,0.0,0.0,1.0,0.0,0.0,0.0,1.0
1463923069305032336,345,1463923069249202522,,5.63586044312,-3.72136378288,137.79750061,0.0203269999474,1.0,0.0,0.0,0.0,1.0,0.0,0.0,0.0,1.0,-1.09756100178,2.37804889679,-0.731707334518,1.0,0.0,0.0,0.0,1.0,0.0,0.0,0.0,1.0,-0.15322890625,-0.651222851562,10.3046439453,1.0,0.0,0.0,0.0,1.0,0.0,0.0,0.0,1.0
1463923069305325147,346,1463923069269688893,,5.62155580521,-3.7492313385,137.772369385,0.0203850008547,1.0,0.0,0.0,0.0,1.0,0.0,0.0,0.0,1.0,-1.52439022064,1.76829278469,-1.64634156227,1.0,0.0,0.0,0.0,1.0,0.0,0.0,0.0,1.0,-0.239420166016,-0.627280834961,10.1370498291,1.0,0.0,0.0,0.0,1.0,0.0,0.0,0.0,1.0
1463923069336906887,347,1463923069290220211,,5.59285306931,-3.76552891731,137.748275757,0.0204160008579,1.0,0.0,0.0,0.0,1.0,0.0,0.0,0.0,1.0,-1.46341466904,1.70731711388,-1.64634156227,1.0,0.0,0.0,0.0,1.0,0.0,0.0,0.0,1.0,-0.119710083008,-0.536301208408,10.0364933594,1.0,0.0,0.0,0.0,1.0,0.0,0.0,0.0,1.0
1463923069336969022,348,1463923069310383719,,5.57623434067,-3.80015087128,137.732894897,0.0204109996557,1.0,0.0,0.0,0.0,1.0,0.0,0.0,0.0,1.0,-2.01219511032,2.07317066193,-1.15853655338,1.0,0.0,0.0,0.0,1.0,0.0,0.0,0.0,1.0,-0.15322890625,-0.622492431641,10.2567599121,1.0,0.0,0.0,0.0,1.0,0.0,0.0,0.0,1.0
1463923069360422203,349,1463923069330889829,,5.54706716537,-3.82645392418,137.707778931,0.0204150006175,1.0,0.0,0.0,0.0,1.0,0.0,0.0,0.0,1.0,-0.975609779358,1.8902438879,-1.58536589146,1.0,0.0,0.0,0.0,1.0,0.0,0.0,0.0,1.0,-0.076614453125,-0.732625708008,10.2232410889,1.0,0.0,0.0,0.0,1.0,0.0,0.0,0.0,1.0
1463923069360461057,350,1463923069351239169,,5.52245569229,-3.87066841125,137.681045532,0.0203889999539,1.0,0.0,0.0,0.0,1.0,0.0,0.0,0.0,1.0,-2.62195134163,1.46341466904,-1.76829278469,1.0,0.0,0.0,0.0,1.0,0.0,0.0,0.0,1.0,-0.191536132812,-0.598550451572,10.2519715088,1.0,0.0,0.0,0.0,1.0,0.0,0.0,0.0,1.0
1463923069400218022,351,1463923069371735540,,5.48233175278,-3.91053771973,137.645523071,0.0204300004989,1.0,0.0,0.0,0.0,1.0,0.0,0.0,0.0,1.0,-1.58536589146,1.15853655338,-2.13414645195,1.0,0.0,0.0,0.0,1.0,0.0,0.0,0.0,1.0,-0.110133276367,-0.751779321289,10.2950671387,1.0,0.0,0.0,0.0,1.0,0.0,0.0,0.0,1.0
1463923069402573012,352,1463923069392328681,,5.43486452103,-3.93670535088,137.605056763,0.0204550009221,1.0,0.0,0.0,0.0,1.0,0.0,0.0,0.0,1.0,-1.34146344662,0.792682945728,-2.43902444839,1.0,0.0,0.0,0.0,1.0,0.0,0.0,0.0,1.0,-0.105344873047,-0.660799658203,10.0556469727,1.0,0.0,0.0,0.0,1.0,0.0,0.0,0.0,1.0
1463923069441192587,353,1463923069412452814,,5.40195226669,-3.96698284149,137.572128296,0.0203540008515,1.0,0.0,0.0,0.0,1.0,0.0,0.0,0.0,1.0,-1.46341466904,0.731707334518,-2.07317066193,1.0,0.0,0.0,0.0,1.0,0.0,0.0,0.0,1.0,-0.229843359375,-0.689530078125,10.0891657959,1.0,0.0,0.0,0.0,1.0,0.0,0.0,0.0,1.0
1463923069441258420,354,1463923069432969080,,5.3761100769,-3.99393081665,137.545120239,0.0204060003161,1.0,0.0,0.0,0.0,1.0,0.0,0.0,0.0,1.0,-1.52439022064,1.15853655338,-1.76829278469,1.0,0.0,0.0,0.0,1.0,0.0,0.0,0.0,1.0,-0.210689746094,-0.670376464844,10.2615483154,1.0,0.0,0.0,0.0,1.0,0.0,0.0,0.0,1.0
1463923069478371803,355,1463923069453382014,,5.35449647903,-4.01701116562,137.544509888,0.0204739999026,1.0,0.0,0.0,0.0,1.0,0.0,0.0,0.0,1.0,-1.8292683363,1.58536589146,-0.487804889679,1.0,0.0,0.0,0.0,1.0,0.0,0.0,0.0,1.0,-0.148440512063,-0.598550451572,10.1274730225,1.0,0.0,0.0,0.0,1.0,0.0,0.0,0.0,1.0
1463923069478527115,356,1463923069474282289,,5.32797622681,-4.06255435944,137.563278198,0.0203549992293,1.0,0.0,0.0,0.0,1.0,0.0,0.0,0.0,1.0,-2.43902444839,2.07317066193,0.548780500889,1.0,0.0,0.0,0.0,1.0,0.0,0.0,0.0,1.0,0.0,-0.718260498047,10.2615483154,1.0,0.0,0.0,0.0,1.0,0.0,0.0,0.0,1.0
1463923069519672408,357,1463923069494431890,,5.31735467911,-4.09233999252,137.582977295,0.0204419996589,1.0,0.0,0.0,0.0,1.0,0.0,0.0,0.0,1.0,-1.76829278469,2.43902444839,0.609756112099,1.0,0.0,0.0,0.0,1.0,0.0,0.0,0.0,1.0,-0.0718260498047,-0.718260498047,10.4243540283,1.0,0.0,0.0,0.0,1.0,0.0,0.0,0.0,1.0
1463923069519717980,358,1463923069514489565,,5.30106878281,-4.11863517761,137.604660034,0.0203579999506,1.0,0.0,0.0,0.0,1.0,0.0,0.0,0.0,1.0,-1.03658533096,1.95121955872,0.731707334518,1.0,0.0,0.0,0.0,1.0,0.0,0.0,0.0,1.0,-0.105344873047,-0.823605371094,10.3381627686,1.0,0.0,0.0,0.0,1.0,0.0,0.0,0.0,1.0
1463923069565172682,359,1463923069534905207,,5.29174661636,-4.14511156082,137.617996216,0.0203990004957,1.0,0.0,0.0,0.0,1.0,0.0,0.0,0.0,1.0,-0.426829278469,1.76829278469,0.365853667259,1.0,0.0,0.0,0.0,1.0,0.0,0.0,0.0,1.0,-0.201112939453,-0.92416184082,10.2184526855,1.0,0.0,0.0,0.0,1.0,0.0,0.0,0.0,1.0
1463923069565245129,360,1463923069555393921,,5.2584438324,-4.15933895111,137.633026123,0.0204199999571,1.0,0.0,0.0,0.0,1.0,0.0,0.0,0.0,1.0,-0.243902444839,1.15853655338,0.365853667259,1.0,0.0,0.0,0.0,1.0,0.0,0.0,0.0,1.0,-0.0957680664062,-0.847547387695,10.1418382324,1.0,0.0,0.0,0.0,1.0,0.0,0.0,0.0,1.0
1463923069600573728,361,1463923069576293311,,5.22926807404,-4.16218423843,137.653900146,0.0204259995371,1.0,0.0,0.0,0.0,1.0,0.0,0.0,0.0,1.0,-0.0609756112099,1.03658533096,0.609756112099,1.0,0.0,0.0,0.0,1.0,0.0,0.0,0.0,1.0,-0.148440512063,-0.804451757813,10.3668931885,1.0,0.0,0.0,0.0,1.0,0.0,0.0,0.0,1.0
1463923069601073153,362,1463923069596701297,,5.21796607971,-4.1442937851,137.686325073,0.0205010008067,1.0,0.0,0.0,0.0,1.0,0.0,0.0,0.0,1.0,0.487804889679,1.46341466904,1.15853655338,1.0,0.0,0.0,0.0,1.0,0.0,0.0,0.0,1.0,-0.215478149414,-0.718260498047,10.2184526855,1.0,0.0,0.0,0.0,1.0,0.0,0.0,0.0,1.0
1463923069626663929,363,1463923069616950325,,5.19760084152,-4.12050533295,137.712219238,0.0203450005502,1.0,0.0,0.0,0.0,1.0,0.0,0.0,0.0,1.0,0.792682945728,1.52439022064,0.853658556938,1.0,0.0,0.0,0.0,1.0,0.0,0.0,0.0,1.0,-0.124498486328,-0.708683691406,10.180145459,1.0,0.0,0.0,0.0,1.0,0.0,0.0,0.0,1.0
1463923069643731565,364,1463923069640302517,,5.18325948715,-4.1014342308,137.746749878,0.0213980004191,1.0,0.0,0.0,0.0,1.0,0.0,0.0,0.0,1.0,0.609756112099,1.76829278469,1.2195122242,1.0,0.0,0.0,0.0,1.0,0.0,0.0,0.0,1.0,-0.134075302102,-0.737414111328,10.3237975586,1.0,0.0,0.0,0.0,1.0,0.0,0.0,0.0,1.0
1463923069672655868,365,1463923069658319836,,5.17224740982,-4.08399248123,137.790512085,0.01939499937,1.0,0.0,0.0,0.0,1.0,0.0,0.0,0.0,1.0,0.731707334518,2.01219511032,1.8902438879,1.0,0.0,0.0,0.0,1.0,0.0,0.0,0.0,1.0,-0.0957680664062,-0.756567724609,10.2040874756,1.0,0.0,0.0,0.0,1.0,0.0,0.0,0.0,1.0
1463923069690810165,366,1463923069678979695,,5.16130924225,-4.06242036819,137.829559326,0.0203920006752,1.0,0.0,0.0,0.0,1.0,0.0,0.0,0.0,1.0,0.548780500889,2.13414645195,1.52439022064,1.0,0.0,0.0,0.0,1.0,0.0,0.0,0.0,1.0,-0.0814028564453,-0.679953271484,10.1178962158,1.0,0.0,0.0,0.0,1.0,0.0,0.0,0.0,1.0
1463923069714096785,367,1463923069699094922,,5.16555929184,-4.04604625702,137.880508423,0.0204060003161,1.0,0.0,0.0,0.0,1.0,0.0,0.0,0.0,1.0,0.548780500889,2.19512200356,2.13414645195,1.0,0.0,0.0,0.0,1.0,0.0,0.0,0.0,1.0,-0.196324536133,-0.737414111328,10.1992990723,1.0,0.0,0.0,0.0,1.0,0.0,0.0,0.0,1.0
1463923069761423509,368,1463923069719765771,,5.1518073082,-4.02909612656,137.92906189,0.0204109996557,1.0,0.0,0.0,0.0,1.0,0.0,0.0,0.0,1.0,0.365853667259,2.43902444839,2.01219511032,1.0,0.0,0.0,0.0,1.0,0.0,0.0,0.0,1.0,0.00478840332031,-0.699106884766,10.2711251221,1.0,0.0,0.0,0.0,1.0,0.0,0.0,0.0,1.0
1463923069761796633,369,1463923069739893758,,5.13995599747,-4.02140712738,137.972930908,0.0203949995339,1.0,0.0,0.0,0.0,1.0,0.0,0.0,0.0,1.0,0.18292683363,1.8902438879,1.76829278469,1.0,0.0,0.0,0.0,1.0,0.0,0.0,0.0,1.0,-0.110133276367,-0.727837304687,10.0795889893,1.0,0.0,0.0,0.0,1.0,0.0,0.0,0.0,1.0
1463923069770077639,370,1463923069766270728,,5.12345409393,-4.0072593689,138.026290894,0.0265379995108,1.0,0.0,0.0,0.0,1.0,0.0,0.0,0.0,1.0,0.12195122242,2.43902444839,1.64634156227,1.0,0.0,0.0,0.0,1.0,0.0,0.0,0.0,1.0,-0.00478840332031,-0.694318481445,10.2136642822,1.0,0.0,0.0,0.0,1.0,0.0,0.0,0.0,1.0
1463923069783884559,371,1463923069779799212,,5.12016487122,-4.00332832336,138.055648804,0.0142759997398,1.0,0.0,0.0,0.0,1.0,0.0,0.0,0.0,1.0,0.18292683363,2.25609779358,1.70731711388,1.0,0.0,0.0,0.0,1.0,0.0,0.0,0.0,1.0,-0.105344873047,-0.751779321289,10.2328178955,1.0,0.0,0.0,0.0,1.0,0.0,0.0,0.0,1.0
1463923069803626923,372,1463923069800233812,,5.10390853882,-3.99704575539,138.093612671,0.020408000797,1.0,0.0,0.0,0.0,1.0,0.0,0.0,0.0,1.0,-0.304878056049,2.25609779358,1.46341466904,1.0,0.0,0.0,0.0,1.0,0.0,0.0,0.0,1.0,-0.00478840332031,-0.646434448242,10.1274730225,1.0,0.0,0.0,0.0,1.0,0.0,0.0,0.0,1.0
1463923069848224909,373,1463923069820472684,,5.09427595139,-3.98808097839,138.128707886,0.020422000438,1.0,0.0,0.0,0.0,1.0,0.0,0.0,0.0,1.0,-0.487804889679,2.07317066193,1.2804877758,1.0,0.0,0.0,0.0,1.0,0.0,0.0,0.0,1.0,-0.0957680664062,-0.588973571866,10.1705686523,1.0,0.0,0.0,0.0,1.0,0.0,0.0,0.0,1.0
1463923069848857927,374,1463923069841115981,,5.08311319351,-3.99868869781,138.157958984,0.0204089991748,1.0,0.0,0.0,0.0,1.0,0.0,0.0,0.0,1.0,-0.670731723309,2.56097555161,1.09756100178,1.0,0.0,0.0,0.0,1.0,0.0,0.0,0.0,1.0,0.00478840332031,-0.727837304687,10.2376062988,1.0,0.0,0.0,0.0,1.0,0.0,0.0,0.0,1.0
1463923069868272167,375,1463923069861380374,,5.07383584976,-3.99557423592,138.185241699,0.0203840006143,1.0,0.0,0.0,0.0,1.0,0.0,0.0,0.0,1.0,-0.609756112099,2.07317066193,0.914634168148,1.0,0.0,0.0,0.0,1.0,0.0,0.0,0.0,1.0,-0.100556469727,-0.61770402832,10.2519715088,1.0,0.0,0.0,0.0,1.0,0.0,0.0,0.0,1.0
1463923069884083558,376,1463923069881826224,,5.05931377411,-4.00556898117,138.190567017,0.0204210001975,1.0,0.0,0.0,0.0,1.0,0.0,0.0,0.0,1.0,-0.731707334518,2.01219511032,-0.12195122242,1.0,0.0,0.0,0.0,1.0,0.0,0.0,0.0,1.0,-0.076614453125,-0.694318481445,10.2471831055,1.0,0.0,0.0,0.0,1.0,0.0,0.0,0.0,1.0
1463923069905424873,377,1463923069902215720,,5.04433107376,-4.0077829361,138.193328857,0.0204130001366,1.0,0.0,0.0,0.0,1.0,0.0,0.0,0.0,1.0,-0.853658556938,1.8292683363,-0.304878056049,1.0,0.0,0.0,0.0,1.0,0.0,0.0,0.0,1.0,-0.105344873047,-0.603338854892,10.2615483154,1.0,0.0,0.0,0.0,1.0,0.0,0.0,0.0,1.0
1463923069926106243,378,1463923069922714955,,5.04274749756,-4.00355100632,138.184738159,0.0203990004957,1.0,0.0,0.0,0.0,1.0,0.0,0.0,0.0,1.0,-0.731707334518,2.19512200356,-0.853658556938,1.0,0.0,0.0,0.0,1.0,0.0,0.0,0.0,1.0,-0.162805712891,-0.560243188477,10.2759135254,1.0,0.0,0.0,0.0,1.0,0.0,0.0,0.0,1.0
1463923069953004253,379,1463923069943135962,,5.02912044525,-4.02739906311,138.17376709,0.0204050000757,1.0,0.0,0.0,0.0,1.0,0.0,0.0,0.0,1.0,-1.09756100178,1.70731711388,-0.914634168148,1.0,0.0,0.0,0.0,1.0,0.0,0.0,0.0,1.0,-0.143652099609,-0.737414111328,10.2088758789,1.0,0.0,0.0,0.0,1.0,0.0,0.0,0.0,1.0
1463923069965261180,380,1463923069963383948,,5.01567077637,-4.04461431503,138.160324097,0.0204089991748,1.0,0.0,0.0,0.0,1.0,0.0,0.0,0.0,1.0,-0.792682945728,1.70731711388,-1.03658533096,1.0,0.0,0.0,0.0,1.0,0.0,0.0,0.0,1.0,-0.143652099609,-0.732625708008,10.1609918457,1.0,0.0,0.0,0.0,1.0,0.0,0.0,0.0,1.0
1463923070001941856,381,1463923069984100109,,4.99135112762,-4.06581544876,138.142349243,0.0204109996557,1.0,0.0,0.0,0.0,1.0,0.0,0.0,0.0,1.0,-1.09756100178,1.52439022064,-1.2804877758,1.0,0.0,0.0,0.0,1.0,0.0,0.0,0.0,1.0,-0.0814028564453,-0.713472094727,10.1753570557,1.0,0.0,0.0,0.0,1.0,0.0,0.0,0.0,1.0
1463923070007046470,382,1463923070004389710,,4.98493289948,-4.08958387375,138.139297485,0.020408000797,1.0,0.0,0.0,0.0,1.0,0.0,0.0,0.0,1.0,-1.09756100178,2.19512200356,-0.487804889679,1.0,0.0,0.0,0.0,1.0,0.0,0.0,0.0,1.0,-0.105344873047,-0.756567724609,10.2423947021,1.0,0.0,0.0,0.0,1.0,0.0,0.0,0.0,1.0
1463923070032862088,383,1463923070025136809,,4.98310518265,-4.10899209976,138.141693115,0.0204269997776,1.0,0.0,0.0,0.0,1.0,0.0,0.0,0.0,1.0,-0.731707334518,2.5,-0.18292683363,1.0,0.0,0.0,0.0,1.0,0.0,0.0,0.0,1.0,-0.0861912597656,-0.794874951172,10.2711251221,1.0,0.0,0.0,0.0,1.0,0.0,0.0,0.0,1.0
1463923070050508576,384,1463923070045543493,,4.99057865143,-4.11885738373,138.143051147,0.0204160008579,1.0,0.0,0.0,0.0,1.0,0.0,0.0,0.0,1.0,-0.487804889679,2.62195134163,-0.243902444839,1.0,0.0,0.0,0.0,1.0,0.0,0.0,0.0,1.0,-0.148440512063,-0.76135612793,10.3333743652,1.0,0.0,0.0,0.0,1.0,0.0,0.0,0.0,1.0
1463923070075353834,385,1463923070065954499,,4.9955368042,-4.11982870102,138.14465332,0.0205320008099,1.0,0.0,0.0,0.0,1.0,0.0,0.0,0.0,1.0,-0.548780500889,3.04878044128,-0.243902444839,1.0,0.0,0.0,0.0,1.0,0.0,0.0,0.0,1.0,-0.0478840332031,-0.660799658203,10.1609918457,1.0,0.0,0.0,0.0,1.0,0.0,0.0,0.0,1.0
1463923070087848260,386,1463923070085731342,,5.00731563568,-4.12493515015,138.158721924,0.0202500000596,1.0,0.0,0.0,0.0,1.0,0.0,0.0,0.0,1.0,-0.548780500889,3.53658556938,0.426829278469,1.0,0.0,0.0,0.0,1.0,0.0,0.0,0.0,1.0,-0.0143652099609,-0.723048901367,10.3812583984,1.0,0.0,0.0,0.0,1.0,0.0,0.0,0.0,1.0
1463923070116201680,387,1463923070106635211,,5.04710149765,-4.10799217224,138.166519165,0.020433999598,1.0,0.0,0.0,0.0,1.0,0.0,0.0,0.0,1.0,0.18292683363,4.08536577225,0.12195122242,1.0,0.0,0.0,0.0,1.0,0.0,0.0,0.0,1.0,-0.167594116211,-0.641646044922,10.180145459,1.0,0.0,0.0,0.0,1.0,0.0,0.0,0.0,1.0
1463923070131003596,388,1463923070126771114,,5.07738447189,-4.11164617538,138.162033081,0.0204130001366,1.0,0.0,0.0,0.0,1.0,0.0,0.0,0.0,1.0,0.18292683363,3.59756112099,-0.426829278469,1.0,0.0,0.0,0.0,1.0,0.0,0.0,0.0,1.0,-0.186747729492,-0.814028564453,10.2088758789,1.0,0.0,0.0,0.0,1.0,0.0,0.0,0.0,1.0
1463923070156601039,389,1463923070147635973,,5.10911560059,-4.08311128616,138.160919189,0.020408000797,1.0,0.0,0.0,0.0,1.0,0.0,0.0,0.0,1.0,0.792682945728,3.35365867615,-0.365853667259,1.0,0.0,0.0,0.0,1.0,0.0,0.0,0.0,1.0,-0.244208569336,-0.632069238281,10.060435376,1.0,0.0,0.0,0.0,1.0,0.0,0.0,0.0,1.0
1463923070176825275,390,1463923070167550627,,5.10665035248,-4.07166624069,138.145248413,0.0204140003771,1.0,0.0,0.0,0.0,1.0,0.0,0.0,0.0,1.0,0.18292683363,2.86585378647,-1.09756100178,1.0,0.0,0.0,0.0,1.0,0.0,0.0,0.0,1.0,-0.0478840332031,-0.665588061523,10.1992990723,1.0,0.0,0.0,0.0,1.0,0.0,0.0,0.0,1.0
1463923070193646193,391,1463923070188045383,,5.12223529816,-4.05842065811,138.150619507,0.0203799996525,1.0,0.0,0.0,0.0,1.0,0.0,0.0,0.0,1.0,0.365853667259,2.80487799644,-0.0609756112099,1.0,0.0,0.0,0.0,1.0,0.0,0.0,0.0,1.0,-0.205901342773,-0.699106884766,10.2280294922,1.0,0.0,0.0,0.0,1.0,0.0,0.0,0.0,1.0
1463923070217122655,392,1463923070210150862,,5.11120605469,-4.0065612793,138.18862915,0.0220299996436,1.0,0.0,0.0,0.0,1.0,0.0,0.0,0.0,1.0,1.64634156227,1.64634156227,1.2804877758,1.0,0.0,0.0,0.0,1.0,0.0,0.0,0.0,1.0,-0.172382519531,-0.646434448242,10.2807019287,1.0,0.0,0.0,0.0,1.0,0.0,0.0,0.0,1.0
1463923070235401848,393,1463923070228921198,,5.07124376297,-3.96266913414,138.237533569,0.0188079997897,1.0,0.0,0.0,0.0,1.0,0.0,0.0,0.0,1.0,1.34146344662,0.0,2.01219511032,1.0,0.0,0.0,0.0,1.0,0.0,0.0,0.0,1.0,-0.162805712891,-0.593762048251,10.1897222656,1.0,0.0,0.0,0.0,1.0,0.0,0.0,0.0,1.0
1463923070253907550,394,1463923070249233715,,5.00652980804,-3.93460464478,138.304382324,0.0203770007938,1.0,0.0,0.0,0.0,1.0,0.0,0.0,0.0,1.0,1.58536589146,-0.792682945728,2.74390244484,1.0,0.0,0.0,0.0,1.0,0.0,0.0,0.0,1.0,-0.100556469727,-0.818816967773,10.2519715088,1.0,0.0,0.0,0.0,1.0,0.0,0.0,0.0,1.0
1463923070273103145,395,1463923070269776961,,4.98433208466,-3.88734173775,138.402572632,0.0205099992454,1.0,0.0,0.0,0.0,1.0,0.0,0.0,0.0,1.0,0.914634168148,0.609756112099,4.20731735229,1.0,0.0,0.0,0.0,1.0,0.0,0.0,0.0,1.0,-0.191536132812,-0.531512805087,9.98382092285,1.0,0.0,0.0,0.0,1.0,0.0,0.0,0.0,1.0
1463923070295131123,396,1463923070290229009,,4.99207162857,-3.87549805641,138.506134033,0.0203130003065,1.0,0.0,0.0,0.0,1.0,0.0,0.0,0.0,1.0,-0.12195122242,1.46341466904,4.63414621353,1.0,0.0,0.0,0.0,1.0,0.0,0.0,0.0,1.0,-0.296881024126,-0.660799658203,10.1562034424,1.0,0.0,0.0,0.0,1.0,0.0,0.0,0.0,1.0
1463923070312989380,397,1463923070311289388,,4.98988008499,-3.85875487328,138.588623047,0.0204189997166,1.0,0.0,0.0,0.0,1.0,0.0,0.0,0.0,1.0,-0.18292683363,2.19512200356,3.59756112099,1.0,0.0,0.0,0.0,1.0,0.0,0.0,0.0,1.0,-0.0909796630859,-0.584185168546,10.0843773926,1.0,0.0,0.0,0.0,1.0,0.0,0.0,0.0,1.0
1463923070334348664,398,1463923070330821335,,5.00400400162,-3.86447167397,138.642532349,0.0204019993544,1.0,0.0,0.0,0.0,1.0,0.0,0.0,0.0,1.0,-1.03658533096,2.74390244484,2.25609779358,1.0,0.0,0.0,0.0,1.0,0.0,0.0,0.0,1.0,-0.15322890625,-0.60812722168,10.1562034424,1.0,0.0,0.0,0.0,1.0,0.0,0.0,0.0,1.0
1463923070362614533,399,1463923070351754371,,5.03393936157,-3.879799366,138.677444458,0.0205160006881,1.0,0.0,0.0,0.0,1.0,0.0,0.0,0.0,1.0,-0.853658556938,3.17073178291,1.40243899822,1.0,0.0,0.0,0.0,1.0,0.0,0.0,0.0,1.0,-0.229843359375,-0.718260498047,10.2471831055,1.0,0.0,0.0,0.0,1.0,0.0,0.0,0.0,1.0
1463923070377005617,400,1463923070371700171,,5.03871250153,-3.88508963585,138.713409424,0.020300000906,1.0,0.0,0.0,0.0,1.0,0.0,0.0,0.0,1.0,-0.792682945728,2.68292689323,1.40243899822,1.0,0.0,0.0,0.0,1.0,0.0,0.0,0.0,1.0,-0.100556469727,-0.641646044922,10.1992990723,1.0,0.0,0.0,0.0,1.0,0.0,0.0,0.0,1.0
1463923070398681462,401,1463923070392362322,,5.0368347168,-3.90282297134,138.734008789,0.0204109996557,1.0,0.0,0.0,0.0,1.0,0.0,0.0,0.0,1.0,-1.40243899822,2.25609779358,0.609756112099,1.0,0.0,0.0,0.0,1.0,0.0,0.0,0.0,1.0,-0.129286889648,-0.632069238281,10.2280294922,1.0,0.0,0.0,0.0,1.0,0.0,0.0,0.0,1.0
1463923070414965299,402,1463923070412734839,,5.02550840378,-3.923350811,138.754882812,0.0204300004989,1.0,0.0,0.0,0.0,1.0,0.0,0.0,0.0,1.0,-1.46341466904,1.95121955872,0.609756112099,1.0,0.0,0.0,0.0,1.0,0.0,0.0,0.0,1.0,-0.100556469727,-0.651222851562,10.2615483154,1.0,0.0,0.0,0.0,1.0,0.0,0.0,0.0,1.0
1463923070434821724,403,1463923070433203293,,5.01487493515,-3.94088959694,138.768585205,0.020372999832,1.0,0.0,0.0,0.0,1.0,0.0,0.0,0.0,1.0,-1.2804877758,1.64634156227,0.243902444839,1.0,0.0,0.0,0.0,1.0,0.0,0.0,0.0,1.0,-0.162805712891,-0.651222851562,10.180145459,1.0,0.0,0.0,0.0,1.0,0.0,0.0,0.0,1.0
1463923070454815180,404,1463923070453310708,,5.00660467148,-3.96648383141,138.781143188,0.0204559992999,1.0,0.0,0.0,0.0,1.0,0.0,0.0,0.0,1.0,-1.52439022064,1.40243899822,0.18292683363,1.0,0.0,0.0,0.0,1.0,0.0,0.0,0.0,1.0,-0.225054956055,-0.675164868164,10.1083194092,1.0,0.0,0.0,0.0,1.0,0.0,0.0,0.0,1.0
1463923070478448621,405,1463923070473613121,,4.98746156693,-3.99964475632,138.792022705,0.0204099994153,1.0,0.0,0.0,0.0,1.0,0.0,0.0,0.0,1.0,-1.8292683363,1.58536589146,0.12195122242,1.0,0.0,0.0,0.0,1.0,0.0,0.0,0.0,1.0,-0.0957680664062,-0.689530078125,10.0891657959,1.0,0.0,0.0,0.0,1.0,0.0,0.0,0.0,1.0
1463923070496212139,406,1463923070494443240,,4.96439599991,-4.01910543442,138.814804077,0.0204879995435,1.0,0.0,0.0,0.0,1.0,0.0,0.0,0.0,1.0,-1.52439022064,1.58536589146,0.670731723309,1.0,0.0,0.0,0.0,1.0,0.0,0.0,0.0,1.0,-0.0526724365234,-0.646434448242,10.2232410889,1.0,0.0,0.0,0.0,1.0,0.0,0.0,0.0,1.0
1463923070517601162,407,1463923070514372634,,4.95651388168,-4.04934644699,138.850341797,0.0202789995819,1.0,0.0,0.0,0.0,1.0,0.0,0.0,0.0,1.0,-1.8902438879,1.76829278469,1.34146344662,1.0,0.0,0.0,0.0,1.0,0.0,0.0,0.0,1.0,-0.138863696289,-0.684741674805,10.1178962158,1.0,0.0,0.0,0.0,1.0,0.0,0.0,0.0,1.0
1463923070537908679,408,1463923070535023535,,4.94840240479,-4.08359622955,138.889831543,0.0204189997166,1.0,0.0,0.0,0.0,1.0,0.0,0.0,0.0,1.0,-1.8902438879,2.37804889679,1.58536589146,1.0,0.0,0.0,0.0,1.0,0.0,0.0,0.0,1.0,-0.0239420166016,-0.732625708008,10.2040874756,1.0,0.0,0.0,0.0,1.0,0.0,0.0,0.0,1.0
1463923070559517806,409,1463923070555301626,,4.95182466507,-4.12027692795,138.939437866,0.0204109996557,1.0,0.0,0.0,0.0,1.0,0.0,0.0,0.0,1.0,-1.70731711388,2.68292689323,2.13414645195,1.0,0.0,0.0,0.0,1.0,0.0,0.0,0.0,1.0,-0.0622492431641,-0.799663354492,10.180145459,1.0,0.0,0.0,0.0,1.0,0.0,0.0,0.0,1.0
1463923070585758475,410,1463923070576125130,,4.9853181839,-4.11605644226,139.001586914,0.020428000018,1.0,0.0,0.0,0.0,1.0,0.0,0.0,0.0,1.0,-1.70731711388,3.35365867615,2.62195134163,1.0,0.0,0.0,0.0,1.0,0.0,0.0,0.0,1.0,-0.205901342773,-0.46447512207,10.4291424316,1.0,0.0,0.0,0.0,1.0,0.0,0.0,0.0,1.0
1463923070599458051,411,1463923070596366294,,5.00261926651,-4.1495141983,139.046859741,0.0204089991748,1.0,0.0,0.0,0.0,1.0,0.0,0.0,0.0,1.0,-1.64634156227,3.17073178291,1.95121955872,1.0,0.0,0.0,0.0,1.0,0.0,0.0,0.0,1.0,-0.105344873047,-0.780509741211,10.1226846191,1.0,0.0,0.0,0.0,1.0,0.0,0.0,0.0,1.0
1463923070619453903,412,1463923070616835529,,5.00262117386,-4.17680025101,139.076782227,0.0204319991171,1.0,0.0,0.0,0.0,1.0,0.0,0.0,0.0,1.0,-0.914634168148,2.92682933807,1.2195122242,1.0,0.0,0.0,0.0,1.0,0.0,0.0,0.0,1.0,-0.00957680664062,-0.866701000977,10.299855542,1.0,0.0,0.0,0.0,1.0,0.0,0.0,0.0,1.0
1463923070643286354,413,1463923070636776746,,5.00626420975,-4.19663095474,139.113891602,0.0203499998897,1.0,0.0,0.0,0.0,1.0,0.0,0.0,0.0,1.0,-0.792682945728,2.43902444839,1.52439022064,1.0,0.0,0.0,0.0,1.0,0.0,0.0,0.0,1.0,-0.124498486328,-0.818816967773,10.1178962158,1.0,0.0,0.0,0.0,1.0,0.0,0.0,0.0,1.0
1463923070664739283,414,1463923070657398481,,5.0212635994,-4.20352506638,139.127365112,0.0204799994826,1.0,0.0,0.0,0.0,1.0,0.0,0.0,0.0,1.0,-0.243902444839,3.47560977936,0.426829278469,1.0,0.0,0.0,0.0,1.0,0.0,0.0,0.0,1.0,-0.0526724365234,-0.780509741211,10.0221281494,1.0,0.0,0.0,0.0,1.0,0.0,0.0,0.0,1.0
1463923070680719631,415,1463923070677999955,,5.01330184937,-4.20472383499,139.130615234,0.0203959997743,1.0,0.0,0.0,0.0,1.0,0.0,0.0,0.0,1.0,-0.365853667259,2.43902444839,-0.18292683363,1.0,0.0,0.0,0.0,1.0,0.0,0.0,0.0,1.0,-0.0478840332031,-0.708683691406,10.1083194092,1.0,0.0,0.0,0.0,1.0,0.0,0.0,0.0,1.0
1463923070704338332,416,1463923070698731481,,5.01639890671,-4.21522712708,139.110534668,0.0203889999539,1.0,0.0,0.0,0.0,1.0,0.0,0.0,0.0,1.0,-0.365853667259,2.56097555161,-1.2804877758,1.0,0.0,0.0,0.0,1.0,0.0,0.0,0.0,1.0,-0.134075302102,-0.76135612793,9.95509050293,1.0,0.0,0.0,0.0,1.0,0.0,0.0,0.0,1.0
1463923070725288659,417,1463923070719411184,,5.00886487961,-4.21094369888,139.083908081,0.0203830003738,1.0,0.0,0.0,0.0,1.0,0.0,0.0,0.0,1.0,-0.18292683363,1.76829278469,-1.70731711388,1.0,0.0,0.0,0.0,1.0,0.0,0.0,0.0,1.0,-0.191536132812,-0.675164868164,10.1514150391,1.0,0.0,0.0,0.0,1.0,0.0,0.0,0.0,1.0
1463923070744627587,418,1463923070739591984,,5.00109148026,-4.21905136108,139.052352905,0.020408000797,1.0,0.0,0.0,0.0,1.0,0.0,0.0,0.0,1.0,-0.548780500889,2.25609779358,-1.8902438879,1.0,0.0,0.0,0.0,1.0,0.0,0.0,0.0,1.0,-0.105344873047,-0.727837304687,10.3429511719,1.0,0.0,0.0,0.0,1.0,0.0,0.0,0.0,1.0
1463923070767064783,419,1463923070760366999,,4.97215032578,-4.2115983963,139.018264771,0.0204169992357,1.0,0.0,0.0,0.0,1.0,0.0,0.0,0.0,1.0,0.487804889679,1.95121955872,-2.01219511032,1.0,0.0,0.0,0.0,1.0,0.0,0.0,0.0,1.0,0.0287304199219,-0.77093293457,10.2519715088,1.0,0.0,0.0,0.0,1.0,0.0,0.0,0.0,1.0
1463923070781658887,420,1463923070779935040,,4.96125602722,-4.22049999237,138.981704712,0.0203799996525,1.0,0.0,0.0,0.0,1.0,0.0,0.0,0.0,1.0,0.670731723309,1.64634156227,-2.07317066193,1.0,0.0,0.0,0.0,1.0,0.0,0.0,0.0,1.0,-0.181959326172,-0.943315454102,10.2040874756,1.0,0.0,0.0,0.0,1.0,0.0,0.0,0.0,1.0
1463923070804669205,421,1463923070800493702,,4.95117998123,-4.21500396729,138.935195923,0.020535999909,1.0,0.0,0.0,0.0,1.0,0.0,0.0,0.0,1.0,0.487804889679,1.64634156227,-2.62195134163,1.0,0.0,0.0,0.0,1.0,0.0,0.0,0.0,1.0,-0.196324536133,-0.780509741211,10.2615483154,1.0,0.0,0.0,0.0,1.0,0.0,0.0,0.0,1.0
1463923070822486785,422,1463923070820717991,,4.92964458466,-4.19774675369,138.901016235,0.0203499998897,1.0,0.0,0.0,0.0,1.0,0.0,0.0,0.0,1.0,0.853658556938,1.40243899822,-2.07317066193,1.0,0.0,0.0,0.0,1.0,0.0,0.0,0.0,1.0,-0.129286889648,-0.756567724609,10.3573163818,1.0,0.0,0.0,0.0,1.0,0.0,0.0,0.0,1.0
1463923070846620276,423,1463923070841071758,,4.91621828079,-4.17548036575,138.883346558,0.0203530006111,1.0,0.0,0.0,0.0,1.0,0.0,0.0,0.0,1.0,0.731707334518,1.58536589146,-1.2804877758,1.0,0.0,0.0,0.0,1.0,0.0,0.0,0.0,1.0,-0.15322890625,-0.694318481445,10.2950671387,1.0,0.0,0.0,0.0,1.0,0.0,0.0,0.0,1.0
1463923070874082867,424,1463923070861507139,,4.90804386139,-4.13661766052,138.869506836,0.0204109996557,1.0,0.0,0.0,0.0,1.0,0.0,0.0,0.0,1.0,1.09756100178,2.01219511032,-1.09756100178,1.0,0.0,0.0,0.0,1.0,0.0,0.0,0.0,1.0,-0.114921679688,-0.598550451572,10.0700121826,1.0,0.0,0.0,0.0,1.0,0.0,0.0,0.0,1.0
1463923070889006136,425,1463923070881970229,,4.90939283371,-4.1270198822,138.864105225,0.0204390008003,1.0,0.0,0.0,0.0,1.0,0.0,0.0,0.0,1.0,0.609756112099,1.95121955872,-0.609756112099,1.0,0.0,0.0,0.0,1.0,0.0,0.0,0.0,1.0,-0.201112939453,-0.76614453125,10.0508585693,1.0,0.0,0.0,0.0,1.0,0.0,0.0,0.0,1.0
1463923070909854954,426,1463923070902763421,,4.91431522369,-4.11385917664,138.876968384,0.0203910004348,1.0,0.0,0.0,0.0,1.0,0.0,0.0,0.0,1.0,0.18292683363,2.92682933807,0.304878056049,1.0,0.0,0.0,0.0,1.0,0.0,0.0,0.0,1.0,-0.0478840332031,-0.675164868164,10.1226846191,1.0,0.0,0.0,0.0,1.0,0.0,0.0,0.0,1.0
1463923070929576692,427,1463923070923069324,,4.93090724945,-4.10203695297,138.914382935,0.0204290002584,1.0,0.0,0.0,0.0,1.0,0.0,0.0,0.0,1.0,-0.12195122242,3.47560977936,1.52439022064,1.0,0.0,0.0,0.0,1.0,0.0,0.0,0.0,1.0,-0.0383072265625,-0.660799658203,10.314220752,1.0,0.0,0.0,0.0,1.0,0.0,0.0,0.0,1.0
1463923070950002178,428,1463923070943456685,,4.97965717316,-4.07387542725,138.966934204,0.0205129999667,1.0,0.0,0.0,0.0,1.0,0.0,0.0,0.0,1.0,0.12195122242,5.0,2.31707310677,1.0,0.0,0.0,0.0,1.0,0.0,0.0,0.0,1.0,-0.0383072265625,-0.560243188477,10.1466266357,1.0,0.0,0.0,0.0,1.0,0.0,0.0,0.0,1.0
1463923070966231848,429,1463923070963741598,,5.03726434708,-4.08729553223,139.007766724,0.020325999707,1.0,0.0,0.0,0.0,1.0,0.0,0.0,0.0,1.0,-0.365853667259,4.93902444839,1.8902438879,1.0,0.0,0.0,0.0,1.0,0.0,0.0,0.0,1.0,-0.148440512063,-0.837970581055,10.2950671387,1.0,0.0,0.0,0.0,1.0,0.0,0.0,0.0,1.0
1463923070986353897,430,1463923070984173959,,5.06582307816,-4.08382415771,139.026641846,0.0203389991075,1.0,0.0,0.0,0.0,1.0,0.0,0.0,0.0,1.0,-0.12195122242,3.71951246262,0.670731723309,1.0,0.0,0.0,0.0,1.0,0.0,0.0,0.0,1.0,-0.134075302102,-0.708683691406,10.1945106689,1.0,0.0,0.0,0.0,1.0,0.0,0.0,0.0,1.0
1463923071009650777,431,1463923071004252727,,5.05449199677,-4.07226896286,139.016708374,0.0204109996557,1.0,0.0,0.0,0.0,1.0,0.0,0.0,0.0,1.0,0.731707334518,2.5,-0.792682945728,1.0,0.0,0.0,0.0,1.0,0.0,0.0,0.0,1.0,-0.0239420166016,-0.775721337891,10.2902787354,1.0,0.0,0.0,0.0,1.0,0.0,0.0,0.0,1.0
1463923071026692214,432,1463923071024857639,,5.05415487289,-4.05492544174,138.988830566,0.0204130001366,1.0,0.0,0.0,0.0,1.0,0.0,0.0,0.0,1.0,0.792682945728,2.31707310677,-1.70731711388,1.0,0.0,0.0,0.0,1.0,0.0,0.0,0.0,1.0,-0.162805712891,-0.708683691406,10.1466266357,1.0,0.0,0.0,0.0,1.0,0.0,0.0,0.0,1.0
1463923071051635077,433,1463923071045550103,,5.03403425217,-4.04339027405,138.930877686,0.0204319991171,1.0,0.0,0.0,0.0,1.0,0.0,0.0,0.0,1.0,0.670731723309,1.40243899822,-3.23170733452,1.0,0.0,0.0,0.0,1.0,0.0,0.0,0.0,1.0,-0.172382519531,-0.713472094727,10.1705686523,1.0,0.0,0.0,0.0,1.0,0.0,0.0,0.0,1.0
1463923071069512708,434,1463923071065827880,,5.01406145096,-4.03200340271,138.869659424,0.0204039998353,1.0,0.0,0.0,0.0,1.0,0.0,0.0,0.0,1.0,0.853658556938,1.76829278469,-3.35365867615,1.0,0.0,0.0,0.0,1.0,0.0,0.0,0.0,1.0,-0.105344873047,-0.742202514648,10.1562034424,1.0,0.0,0.0,0.0,1.0,0.0,0.0,0.0,1.0
1463923071094854215,435,1463923071086155919,,4.99344062805,-4.01379156113,138.806335449,0.0204130001366,1.0,0.0,0.0,0.0,1.0,0.0,0.0,0.0,1.0,0.365853667259,1.64634156227,-3.53658556938,1.0,0.0,0.0,0.0,1.0,0.0,0.0,0.0,1.0,-0.119710083008,-0.588973571866,10.1322614258,1.0,0.0,0.0,0.0,1.0,0.0,0.0,0.0,1.0
1463923071113051689,436,1463923071106266145,,4.97403430939,-3.99795556068,138.744613647,0.0203770007938,1.0,0.0,0.0,0.0,1.0,0.0,0.0,0.0,1.0,0.487804889679,1.2195122242,-3.47560977936,1.0,0.0,0.0,0.0,1.0,0.0,0.0,0.0,1.0,-0.201112939453,-0.627280834961,10.0939541992,1.0,0.0,0.0,0.0,1.0,0.0,0.0,0.0,1.0
1463923071130321563,437,1463923071126804547,,4.94608926773,-3.98987817764,138.697219849,0.0204169992357,1.0,0.0,0.0,0.0,1.0,0.0,0.0,0.0,1.0,-0.487804889679,1.40243899822,-2.80487799644,1.0,0.0,0.0,0.0,1.0,0.0,0.0,0.0,1.0,-0.0814028564453,-0.526724328702,10.046070166,1.0,0.0,0.0,0.0,1.0,0.0,0.0,0.0,1.0
1463923071149209399,438,1463923071147201699,,4.9339799881,-4.00971269608,138.665435791,0.0204460006207,1.0,0.0,0.0,0.0,1.0,0.0,0.0,0.0,1.0,-1.64634156227,1.52439022064,-2.01219511032,1.0,0.0,0.0,0.0,1.0,0.0,0.0,0.0,1.0,-0.186747729492,-0.584185168546,10.2184526855,1.0,0.0,0.0,0.0,1.0,0.0,0.0,0.0,1.0
1463923071171396492,439,1463923071168444317,,4.93238735199,-4.03880023956,138.637939453,0.0203900001943,1.0,0.0,0.0,0.0,1.0,0.0,0.0,0.0,1.0,-1.8902438879,1.76829278469,-1.76829278469,1.0,0.0,0.0,0.0,1.0,0.0,0.0,0.0,1.0,-0.229843359375,-0.627280834961,10.180145459,1.0,0.0,0.0,0.0,1.0,0.0,0.0,0.0,1.0
1463923071193843844,440,1463923071188891208,,4.93057727814,-4.06884288788,138.611068726,0.0204089991748,1.0,0.0,0.0,0.0,1.0,0.0,0.0,0.0,1.0,-2.07317066193,1.46341466904,-1.76829278469,1.0,0.0,0.0,0.0,1.0,0.0,0.0,0.0,1.0,-0.282515795898,-0.60812722168,10.180145459,1.0,0.0,0.0,0.0,1.0,0.0,0.0,0.0,1.0
1463923071220107325,441,1463923071209020081,,4.90915393829,-4.12368965149,138.586303711,0.0204680003226,1.0,0.0,0.0,0.0,1.0,0.0,0.0,0.0,1.0,-2.62195134163,0.853658556938,-1.64634156227,1.0,0.0,0.0,0.0,1.0,0.0,0.0,0.0,1.0,-0.220266552734,-0.742202514648,10.285490332,1.0,0.0,0.0,0.0,1.0,0.0,0.0,0.0,1.0
1463923071240666560,442,1463923071229282494,,4.89067697525,-4.14687299728,138.573608398,0.0203549992293,1.0,0.0,0.0,0.0,1.0,0.0,0.0,0.0,1.0,-1.70731711388,1.03658533096,-1.09756100178,1.0,0.0,0.0,0.0,1.0,0.0,0.0,0.0,1.0,-0.201112939453,-0.646434448242,10.2807019287,1.0,0.0,0.0,0.0,1.0,0.0,0.0,0.0,1.0
1463923071256857116,443,1463923071249886729,,4.87489318848,-4.18350601196,138.556243896,0.0203760005534,1.0,0.0,0.0,0.0,1.0,0.0,0.0,0.0,1.0,-1.40243899822,1.34146344662,-1.2195122242,1.0,0.0,0.0,0.0,1.0,0.0,0.0,0.0,1.0,-0.167594116211,-0.818816967773,10.2232410889,1.0,0.0,0.0,0.0,1.0,0.0,0.0,0.0,1.0
1463923071294112113,444,1463923071270072372,,4.84681606293,-4.20512247086,138.539260864,0.0204349998385,1.0,0.0,0.0,0.0,1.0,0.0,0.0,0.0,1.0,-1.2195122242,0.853658556938,-1.2804877758,1.0,0.0,0.0,0.0,1.0,0.0,0.0,0.0,1.0,-0.143652099609,-0.718260498047,10.1370498291,1.0,0.0,0.0,0.0,1.0,0.0,0.0,0.0,1.0
1463923071294492111,445,1463923071290531399,,4.81988859177,-4.2327299118,138.529724121,0.0204569995403,1.0,0.0,0.0,0.0,1.0,0.0,0.0,0.0,1.0,-1.70731711388,0.243902444839,-0.975609779358,1.0,0.0,0.0,0.0,1.0,0.0,0.0,0.0,1.0,-0.258573779297,-0.703895288086,10.3046439453,1.0,0.0,0.0,0.0,1.0,0.0,0.0,0.0,1.0
1463923071321331580,446,1463923071310601521,,4.79334211349,-4.26673793793,138.519760132,0.0203649997711,1.0,0.0,0.0,0.0,1.0,0.0,0.0,0.0,1.0,-1.52439022064,0.792682945728,-0.914634168148,1.0,0.0,0.0,0.0,1.0,0.0,0.0,0.0,1.0,-0.15322890625,-0.790086547852,10.165780249,1.0,0.0,0.0,0.0,1.0,0.0,0.0,0.0,1.0
1463923071343930546,447,1463923071331097371,,4.77594280243,-4.27961969376,138.526977539,0.0204050000757,1.0,0.0,0.0,0.0,1.0,0.0,0.0,0.0,1.0,-1.2195122242,0.914634168148,-0.12195122242,1.0,0.0,0.0,0.0,1.0,0.0,0.0,0.0,1.0,-0.201112939453,-0.689530078125,10.3668931885,1.0,0.0,0.0,0.0,1.0,0.0,0.0,0.0,1.0
1463923071355623360,448,1463923071351273118,,4.7653298378,-4.30794239044,138.536468506,0.0203709993511,1.0,0.0,0.0,0.0,1.0,0.0,0.0,0.0,1.0,-1.2195122242,0.975609779358,0.0609756112099,1.0,0.0,0.0,0.0,1.0,0.0,0.0,0.0,1.0,-0.239420166016,-0.814028564453,10.1226846191,1.0,0.0,0.0,0.0,1.0,0.0,0.0,0.0,1.0
1463923071386705311,449,1463923071371640271,,4.73404693604,-4.34070634842,138.54284668,0.020422000438,1.0,0.0,0.0,0.0,1.0,0.0,0.0,0.0,1.0,-1.34146344662,0.487804889679,-0.12195122242,1.0,0.0,0.0,0.0,1.0,0.0,0.0,0.0,1.0,-0.148440512063,-0.847547387695,10.2950671387,1.0,0.0,0.0,0.0,1.0,0.0,0.0,0.0,1.0
1463923071394243039,450,1463923071392174298,,4.69615602493,-4.37187767029,138.564147949,0.0204070005566,1.0,0.0,0.0,0.0,1.0,0.0,0.0,0.0,1.0,-1.34146344662,0.548780500889,0.609756112099,1.0,0.0,0.0,0.0,1.0,0.0,0.0,0.0,1.0,-0.0622492431641,-0.852335791016,10.3190091553,1.0,0.0,0.0,0.0,1.0,0.0,0.0,0.0,1.0
1463923071415490083,451,1463923071412891501,,4.70356798172,-4.38007831573,138.593856812,0.020494999364,1.0,0.0,0.0,0.0,1.0,0.0,0.0,0.0,1.0,0.914634168148,1.15853655338,1.15853655338,1.0,0.0,0.0,0.0,1.0,0.0,0.0,0.0,1.0,-0.330399829102,-1.03429511719,9.95509050293,1.0,0.0,0.0,0.0,1.0,0.0,0.0,0.0,1.0
1463923071436382390,452,1463923071433412351,,4.66557168961,-4.36140632629,138.61479187,0.0203680004925,1.0,0.0,0.0,0.0,1.0,0.0,0.0,0.0,1.0,0.243902444839,0.853658556938,0.548780500889,1.0,0.0,0.0,0.0,1.0,0.0,0.0,0.0,1.0,0.0,-0.689530078125,10.1466266357,1.0,0.0,0.0,0.0,1.0,0.0,0.0,0.0,1.0
1463923071457780423,453,1463923071454153356,,4.6229763031,-4.34733581543,138.633834839,0.0203760005534,1.0,0.0,0.0,0.0,1.0,0.0,0.0,0.0,1.0,-0.426829278469,0.18292683363,0.365853667259,1.0,0.0,0.0,0.0,1.0,0.0,0.0,0.0,1.0,-0.076614453125,-0.612915625,10.285490332,1.0,0.0,0.0,0.0,1.0,0.0,0.0,0.0,1.0
1463923071475734409,454,1463923071474114312,,4.57895898819,-4.35081195831,138.664306641,0.0204099994153,1.0,0.0,0.0,0.0,1.0,0.0,0.0,0.0,1.0,-0.670731723309,0.18292683363,0.975609779358,1.0,0.0,0.0,0.0,1.0,0.0,0.0,0.0,1.0,-0.0478840332031,-0.723048901367,10.1705686523,1.0,0.0,0.0,0.0,1.0,0.0,0.0,0.0,1.0
1463923071498791602,455,1463923071494162507,,4.53356361389,-4.3593583107,138.699203491,0.0204199999571,1.0,0.0,0.0,0.0,1.0,0.0,0.0,0.0,1.0,-1.2195122242,0.853658556938,1.2195122242,1.0,0.0,0.0,0.0,1.0,0.0,0.0,0.0,1.0,0.0957680664062,-0.670376464844,10.1418382324,1.0,0.0,0.0,0.0,1.0,0.0,0.0,0.0,1.0
1463923071523445143,456,1463923071514485441,,4.52074241638,-4.35998678207,138.747116089,0.0203719995916,1.0,0.0,0.0,0.0,1.0,0.0,0.0,0.0,1.0,-0.792682945728,1.95121955872,1.95121955872,1.0,0.0,0.0,0.0,1.0,0.0,0.0,0.0,1.0,0.0239420166016,-0.689530078125,10.165780249,1.0,0.0,0.0,0.0,1.0,0.0,0.0,0.0,1.0
1463923071537467010,457,1463923071535503945,,4.51826047897,-4.35919857025,138.79460144,0.0204130001366,1.0,0.0,0.0,0.0,1.0,0.0,0.0,0.0,1.0,-1.2804877758,2.07317066193,1.8902438879,1.0,0.0,0.0,0.0,1.0,0.0,0.0,0.0,1.0,-0.0430956298828,-0.579396801758,10.0077629395,1.0,0.0,0.0,0.0,1.0,0.0,0.0,0.0,1.0
1463923071559457541,458,1463923071555820629,,4.51738452911,-4.38827419281,138.829483032,0.0204329993576,1.0,0.0,0.0,0.0,1.0,0.0,0.0,0.0,1.0,-2.5,1.15853655338,1.2195122242,1.0,0.0,0.0,0.0,1.0,0.0,0.0,0.0,1.0,-0.225054956055,-0.60812722168,9.91678327637,1.0,0.0,0.0,0.0,1.0,0.0,0.0,0.0,1.0
1463923071578169075,459,1463923071576246271,,4.49894142151,-4.45007228851,138.854675293,0.0204210001975,1.0,0.0,0.0,0.0,1.0,0.0,0.0,0.0,1.0,-3.47560977936,1.09756100178,0.792682945728,1.0,0.0,0.0,0.0,1.0,0.0,0.0,0.0,1.0,-0.0909796630859,-0.723048901367,9.99339772949,1.0,0.0,0.0,0.0,1.0,0.0,0.0,0.0,1.0
1463923071601075748,460,1463923071596384518,,4.4814119339,-4.51759576797,138.886459351,0.0204099994153,1.0,0.0,0.0,0.0,1.0,0.0,0.0,0.0,1.0,-5.0,2.07317066193,1.09756100178,1.0,0.0,0.0,0.0,1.0,0.0,0.0,0.0,1.0,0.0814028564453,-0.517147558594,9.97903251953,1.0,0.0,0.0,0.0,1.0,0.0,0.0,0.0,1.0
1463923071622323210,461,1463923071616767973,,4.4264960289,-4.62827014923,138.943939209,0.0204370003194,1.0,0.0,0.0,0.0,1.0,0.0,0.0,0.0,1.0,-7.74390268326,2.19512200356,2.31707310677,1.0,0.0,0.0,0.0,1.0,0.0,0.0,0.0,1.0,0.45968671875,-0.445321508789,10.2519715088,1.0,0.0,0.0,0.0,1.0,0.0,0.0,0.0,1.0
1463923071643143433,462,1463923071636910647,,4.5197520256,-4.85529232025,139.04083252,0.0203300006688,1.0,0.0,0.0,0.0,1.0,0.0,0.0,0.0,1.0,-12.0731716156,5.0,4.63414621353,1.0,0.0,0.0,0.0,1.0,0.0,0.0,0.0,1.0,-0.296881024126,-0.723048901367,9.84495722656,1.0,0.0,0.0,0.0,1.0,0.0,0.0,0.0,1.0
1463923071661825124,463,1463923071657889099,,4.52703237534,-5.15088653564,139.24508667,0.0204419996589,1.0,0.0,0.0,0.0,1.0,0.0,0.0,0.0,1.0,-16.2195110321,3.53658556938,9.69512176514,1.0,0.0,0.0,0.0,1.0,0.0,0.0,0.0,1.0,0.244208569336,-0.660799658203,9.48103915874,1.0,0.0,0.0,0.0,1.0,0.0,0.0,0.0,1.0
1463923071686180332,464,1463923071679173539,,4.57503271103,-5.57401990891,139.54536438,0.0204169992357,1.0,0.0,0.0,0.0,1.0,0.0,0.0,0.0,1.0,-21.0975627899,2.86585378647,14.5121955872,1.0,0.0,0.0,0.0,1.0,0.0,0.0,0.0,1.0,-0.119710083008,-1.01035310059,9.48582756206,1.0,0.0,0.0,0.0,1.0,0.0,0.0,0.0,1.0
1463923071704467806,465,1463923071699197881,,4.58183765411,-6.11028194427,139.900024414,0.0203789994121,1.0,0.0,0.0,0.0,1.0,0.0,0.0,0.0,1.0,-23.0487823486,-0.731707334518,17.1951217651,1.0,0.0,0.0,0.0,1.0,0.0,0.0,0.0,1.0,-0.316034619141,-1.69509477539,9.20809958496,1.0,0.0,0.0,0.0,1.0,0.0,0.0,0.0,1.0
1463923071723442517,466,1463923071719944146,,4.52769947052,-6.62243032455,140.264968872,0.0206300001591,1.0,0.0,0.0,0.0,1.0,0.0,0.0,0.0,1.0,-23.1097564697,-4.08536577225,17.0121955872,1.0,0.0,0.0,0.0,1.0,0.0,0.0,0.0,1.0,-0.373495458984,-1.6041151123,9.67736311035,1.0,0.0,0.0,0.0,1.0,0.0,0.0,0.0,1.0
1463923071745168570,467,1463923071740190206,,4.34881877899,-7.32226228714,140.616729736,0.020204000175,1.0,0.0,0.0,0.0,1.0,0.0,0.0,0.0,1.0,-22.7439041138,-5.67073154449,17.317073822,1.0,0.0,0.0,0.0,1.0,0.0,0.0,0.0,1.0,0.545877978516,-3.69185895996,9.96945571289,1.0,0.0,0.0,0.0,1.0,0.0,0.0,0.0,1.0
1463923071774525475,468,1463923071760212620,,4.27747678757,-5.46912193298,140.736755371,0.0204199999571,1.0,0.0,0.0,0.0,1.0,0.0,0.0,0.0,1.0,43.4146347046,7.31707334518,2.86585378647,1.0,0.0,0.0,0.0,1.0,0.0,0.0,0.0,1.0,1.77170922852,7.0724717041,5.88015927734,1.0,0.0,0.0,0.0,1.0,0.0,0.0,0.0,1.0
1463923071792742325,469,1463923071781075239,,4.28019571304,-4.77219295502,140.548187256,0.0204819999635,1.0,0.0,0.0,0.0,1.0,0.0,0.0,0.0,1.0,29.0243911743,-7.56097555161,-10.7926826477,1.0,0.0,0.0,0.0,1.0,0.0,0.0,0.0,1.0,-1.47003981934,0.0430956298828,7.50821640625,1.0,0.0,0.0,0.0,1.0,0.0,0.0,0.0,1.0
1463923071805009095,470,1463923071801257028,,4.01807880402,-4.5378651619,140.466278076,0.0203310009092,1.0,0.0,0.0,0.0,1.0,0.0,0.0,0.0,1.0,7.19512224197,-7.31707334518,-5.42682933807,1.0,0.0,0.0,0.0,1.0,0.0,0.0,0.0,1.0,0.531512805087,-0.0335188255255,10.553640918,1.0,0.0,0.0,0.0,1.0,0.0,0.0,0.0,1.0
1463923071823331881,471,1463923071821469233,,4.10663509369,-4.49406099319,140.391983032,0.0203690007329,1.0,0.0,0.0,0.0,1.0,0.0,0.0,0.0,1.0,1.34146344662,0.609756112099,-4.14634132385,1.0,0.0,0.0,0.0,1.0,0.0,0.0,0.0,1.0,-1.06781401349,-0.60812722168,9.78749638672,1.0,0.0,0.0,0.0,1.0,0.0,0.0,0.0,1.0
1463923071846947614,472,1463923071841556543,,4.02549552917,-4.51955366135,140.500549316,0.0204440001398,1.0,0.0,0.0,0.0,1.0,0.0,0.0,0.0,1.0,2.37804889679,-1.09756100178,5.0,1.0,0.0,0.0,0.0,1.0,0.0,0.0,0.0,1.0,0.201112939453,-1.5322890625,10.0652237793,1.0,0.0,0.0,0.0,1.0,0.0,0.0,0.0,1.0
1463923071867200027,473,1463923071862577703,,4.08024406433,-4.51945590973,140.641494751,0.0207059998065,1.0,0.0,0.0,0.0,1.0,0.0,0.0,0.0,1.0,3.59756112099,4.69512224197,6.95121955872,1.0,0.0,0.0,0.0,1.0,0.0,0.0,0.0,1.0,0.0909796630859,-1.5322890625,9.95030209961,1.0,0.0,0.0,0.0,1.0,0.0,0.0,0.0,1.0
1463923071887137129,474,1463923071882326890,,4.03750896454,-4.42208194733,140.741195679,0.0201709996909,1.0,0.0,0.0,0.0,1.0,0.0,0.0,0.0,1.0,7.74390268326,2.62195134163,4.87804889679,1.0,0.0,0.0,0.0,1.0,0.0,0.0,0.0,1.0,0.507570751953,-1.32159931641,9.47624958638,1.0,0.0,0.0,0.0,1.0,0.0,0.0,0.0,1.0
1463923071914450867,475,1463923071902280971,,4.08594083786,-4.07410860062,140.773849487,0.0203350000083,1.0,0.0,0.0,0.0,1.0,0.0,0.0,0.0,1.0,18.5975627899,6.34146356583,1.70731711388,1.0,0.0,0.0,0.0,1.0,0.0,0.0,0.0,1.0,0.344765039063,-1.0534486574,9.79707319336,1.0,0.0,0.0,0.0,1.0,0.0,0.0,0.0,1.0
1463923071927856018,476,1463923071923334162,,4.06896162033,-3.54236555099,140.769714355,0.0210079997778,1.0,0.0,0.0,0.0,1.0,0.0,0.0,0.0,1.0,24.3292694092,1.34146344662,-0.670731723309,1.0,0.0,0.0,0.0,1.0,0.0,0.0,0.0,1.0,-0.00957680664062,-0.598550451572,10.8744639404,1.0,0.0,0.0,0.0,1.0,0.0,0.0,0.0,1.0
1463923072030661360,477,1463923071943660690,,4.04837751389,-3.05498886108,140.760360718,0.0198139995337,1.0,0.0,0.0,0.0,1.0,0.0,0.0,0.0,1.0,22.9268302917,6.0365858078,-0.731707334518,1.0,0.0,0.0,0.0,1.0,0.0,0.0,0.0,1.0,0.9193734375,-0.349553442383,10.5775829346,1.0,0.0,0.0,0.0,1.0,0.0,0.0,0.0,1.0
1463923072030709953,478,1463923071963630448,,4.1383523941,-2.66799664497,140.739715576,0.0203920006752,1.0,0.0,0.0,0.0,1.0,0.0,0.0,0.0,1.0,17.6219520569,5.91463422775,-1.34146344662,1.0,0.0,0.0,0.0,1.0,0.0,0.0,0.0,1.0,-0.134075302102,-0.320823022461,10.8600987305,1.0,0.0,0.0,0.0,1.0,0.0,0.0,0.0,1.0
1463923072030747349,479,1463923071984163381,,4.20333147049,-2.48076057434,140.607116699,0.0204520002007,1.0,0.0,0.0,0.0,1.0,0.0,0.0,0.0,1.0,8.17073154449,0.548780500889,-7.07317113876,1.0,0.0,0.0,0.0,1.0,0.0,0.0,0.0,1.0,-0.981622680664,-0.239420166016,10.7451770508,1.0,0.0,0.0,0.0,1.0,0.0,0.0,0.0,1.0
1463923072030985837,480,1463923072004499440,,4.12230348587,-2.44145703316,140.517074585,0.0203820001334,1.0,0.0,0.0,0.0,1.0,0.0,0.0,0.0,1.0,1.52439022064,-2.92682933807,-5.12195110321,1.0,0.0,0.0,0.0,1.0,0.0,0.0,0.0,1.0,-0.263362164351,-0.330399829102,10.2950671387,1.0,0.0,0.0,0.0,1.0,0.0,0.0,0.0,1.0
1463923072059040717,481,1463923072025191018,,4.17861318588,-2.34639048576,140.601287842,0.0204259995371,1.0,0.0,0.0,0.0,1.0,0.0,0.0,0.0,1.0,4.20731735229,5.97560977936,3.7804877758,1.0,0.0,0.0,0.0,1.0,0.0,0.0,0.0,1.0,0.205901342773,-0.411802685547,9.91199487305,1.0,0.0,0.0,0.0,1.0,0.0,0.0,0.0,1.0
1463923072059090040,482,1463923072045490150,,4.45217847824,-2.27903556824,140.811035156,0.0204019993544,1.0,0.0,0.0,0.0,1.0,0.0,0.0,0.0,1.0,2.56097555161,11.6463422775,10.1219511032,1.0,0.0,0.0,0.0,1.0,0.0,0.0,0.0,1.0,-0.670376464844,-0.450109912109,10.4435076416,1.0,0.0,0.0,0.0,1.0,0.0,0.0,0.0,1.0
1463923072107804207,483,1463923072065951105,,4.49280309677,-2.23950266838,140.871871948,0.0203900001943,1.0,0.0,0.0,0.0,1.0,0.0,0.0,0.0,1.0,1.58536589146,4.2682929039,2.56097555161,1.0,0.0,0.0,0.0,1.0,0.0,0.0,0.0,1.0,-0.0287304199219,-0.402225878906,10.2567599121,1.0,0.0,0.0,0.0,1.0,0.0,0.0,0.0,1.0
1463923072156891341,484,1463923072086394923,,4.47232627869,-2.17741370201,140.876647949,0.0204070005566,1.0,0.0,0.0,0.0,1.0,0.0,0.0,0.0,1.0,4.02439022064,1.70731711388,-0.18292683363,1.0,0.0,0.0,0.0,1.0,0.0,0.0,0.0,1.0,0.0239420166016,-0.593762048251,10.1705686523,1.0,0.0,0.0,0.0,1.0,0.0,0.0,0.0,1.0
1463923072157671077,485,1463923072106378171,,4.48251247406,-2.06883263588,140.87991333,0.0204109996557,1.0,0.0,0.0,0.0,1.0,0.0,0.0,0.0,1.0,5.79268312454,4.81707286835,-0.18292683363,1.0,0.0,0.0,0.0,1.0,0.0,0.0,0.0,1.0,0.316034619141,-0.488417138672,10.1466266357,1.0,0.0,0.0,0.0,1.0,0.0,0.0,0.0,1.0
1463923072158276439,486,1463923072126597772,,4.63779401779,-1.87939453125,140.93182373,0.0203910004348,1.0,0.0,0.0,0.0,1.0,0.0,0.0,0.0,1.0,8.10975551605,10.6707315445,2.25609779358,1.0,0.0,0.0,0.0,1.0,0.0,0.0,0.0,1.0,0.100556469727,-0.205901342773,10.165780249,1.0,0.0,0.0,0.0,1.0,0.0,0.0,0.0,1.0
1463923072179727701,487,1463923072147200861,,4.80841016769,-1.6722420454,141.034164429,0.020408000797,1.0,0.0,0.0,0.0,1.0,0.0,0.0,0.0,1.0,7.19512224197,12.0121955872,4.57317066193,1.0,0.0,0.0,0.0,1.0,0.0,0.0,0.0,1.0,0.201112939453,0.114921679688,10.673351001,1.0,0.0,0.0,0.0,1.0,0.0,0.0,0.0,1.0
1463923072180006763,488,1463923072167924262,,5.07027387619,-1.62399399281,141.161132812,0.020408000797,1.0,0.0,0.0,0.0,1.0,0.0,0.0,0.0,1.0,0.792682945728,16.341463089,5.97560977936,1.0,0.0,0.0,0.0,1.0,0.0,0.0,0.0,1.0,0.143652099609,-0.129286889648,10.4770264648,1.0,0.0,0.0,0.0,1.0,0.0,0.0,0.0,1.0
1463923072279131235,489,1463923072189003443,,5.47880792618,-1.56528389454,141.304397583,0.0204750001431,1.0,0.0,0.0,0.0,1.0,0.0,0.0,0.0,1.0,0.18292683363,27.682926178,6.95121955872,1.0,0.0,0.0,0.0,1.0,0.0,0.0,0.0,1.0,0.814028564453,0.0622492431641,9.58638403179,1.0,0.0,0.0,0.0,1.0,0.0,0.0,0.0,1.0
1463923072279383057,490,1463923072209246690,,5.89302301407,-1.24094212055,141.317993164,0.0204319991171,1.0,0.0,0.0,0.0,1.0,0.0,0.0,0.0,1.0,5.85365867615,16.5243911743,-0.487804889679,1.0,0.0,0.0,0.0,1.0,0.0,0.0,0.0,1.0,-1.37427175293,1.59453830566,10.553640918,1.0,0.0,0.0,0.0,1.0,0.0,0.0,0.0,1.0
1463923072279654826,491,1463923072229436603,,6.15934944153,-1.20298278332,141.204498291,0.0203530006111,1.0,0.0,0.0,0.0,1.0,0.0,0.0,0.0,1.0,-1.2195122242,9.81707286835,-6.28048801422,1.0,0.0,0.0,0.0,1.0,0.0,0.0,0.0,1.0,-1.44609780273,0.469263525391,11.0372696533,1.0,0.0,0.0,0.0,1.0,0.0,0.0,0.0,1.0
1463923072279969877,492,1463923072249692142,,6.42062997818,-1.50691115856,141.447174072,0.0203920006752,1.0,0.0,0.0,0.0,1.0,0.0,0.0,0.0,1.0,-17.9878044128,15.3048791885,11.341463089,1.0,0.0,0.0,0.0,1.0,0.0,0.0,0.0,1.0,-0.320823022461,0.110133276367,12.2535240967,1.0,0.0,0.0,0.0,1.0,0.0,0.0,0.0,1.0
1463923072310000582,493,1463923072269608255,,6.64680433273,-2.20755672455,141.726531982,0.0203910004348,1.0,0.0,0.0,0.0,1.0,0.0,0.0,0.0,1.0,-39.2682914734,17.317073822,13.1097564697,1.0,0.0,0.0,0.0,1.0,0.0,0.0,0.0,1.0,0.45968671875,0.373495458984,11.9183358643,1.0,0.0,0.0,0.0,1.0,0.0,0.0,0.0,1.0
1463923072310047769,494,1463923072290511967,,6.93749189377,-3.72954463959,141.802612305,0.0204179994762,1.0,0.0,0.0,0.0,1.0,0.0,0.0,0.0,1.0,-73.4146347046,25.9146347046,4.51219558716,1.0,0.0,0.0,0.0,1.0,0.0,0.0,0.0,1.0,1.94409174805,-1.03908344744,14.9781255859,1.0,0.0,0.0,0.0,1.0,0.0,0.0,0.0,1.0
1463923072340559826,495,1463923072312440676,,7.49313783646,-5.09386777878,141.538833618,0.0204860009253,1.0,0.0,0.0,0.0,1.0,0.0,0.0,0.0,1.0,-52.9268302917,36.6463432312,-9.02439117432,1.0,0.0,0.0,0.0,1.0,0.0,0.0,0.0,1.0,0.780509741211,-3.16513459473,10.8361567139,1.0,0.0,0.0,0.0,1.0,0.0,0.0,0.0,1.0
1463923072340826544,496,1463923072331152471,,8.26934242249,-5.50697898865,141.206359863,0.0203709993511,1.0,0.0,0.0,0.0,1.0,0.0,0.0,0.0,1.0,-7.19512224197,40.3658561707,-11.4024391174,1.0,0.0,0.0,0.0,1.0,0.0,0.0,0.0,1.0,-1.25456166992,-4.56334836426,15.5096383545,1.0,0.0,0.0,0.0,1.0,0.0,0.0,0.0,1.0
1463923072378446435,497,1463923072351208322,,8.92037773132,-5.4316573143,141.068664551,0.0203910004348,1.0,0.0,0.0,0.0,1.0,0.0,0.0,0.0,1.0,2.56097555161,33.4756126404,-4.20731735229,1.0,0.0,0.0,0.0,1.0,0.0,0.0,0.0,1.0,-1.34554133301,-0.852335791016,14.2359230713,1.0,0.0,0.0,0.0,1.0,0.0,0.0,0.0,1.0
1463923072378738465,498,1463923072371612871,,9.52816677094,-5.53717660904,140.970748901,0.0203740000725,1.0,0.0,0.0,0.0,1.0,0.0,0.0,0.0,1.0,-7.19512224197,31.7682914734,-2.56097555161,1.0,0.0,0.0,0.0,1.0,0.0,0.0,0.0,1.0,-1.35032973633,-0.660799658203,14.0587521484,1.0,0.0,0.0,0.0,1.0,0.0,0.0,0.0,1.0
1463923072420607140,499,1463923072392518250,,9.95440101624,-5.84059381485,140.968704224,0.0204240009189,1.0,0.0,0.0,0.0,1.0,0.0,0.0,0.0,1.0,-17.4390239716,22.6219520569,1.2804877758,1.0,0.0,0.0,0.0,1.0,0.0,0.0,0.0,1.0,-1.49877023926,-0.76135612793,14.5950533203,1.0,0.0,0.0,0.0,1.0,0.0,0.0,0.0,1.0
1463923072420892816,500,1463923072412521133,,10.242149353,-6.28753948212,141.031356812,0.0204019993544,1.0,0.0,0.0,0.0,1.0,0.0,0.0,0.0,1.0,-22.5609760284,14.7560987473,4.14634132385,1.0,0.0,0.0,0.0,1.0,0.0,0.0,0.0,1.0,-1.74297880859,-1.43652099609,14.0060797119,1.0,0.0,0.0,0.0,1.0,0.0,0.0,0.0,1.0
1463923072457845106,501,1463923072433403961,,10.124830246,-6.69253396988,141.133407593,0.0204249992967,1.0,0.0,0.0,0.0,1.0,0.0,0.0,0.0,1.0,-22.6219520569,2.31707310677,4.39024400711,1.0,0.0,0.0,0.0,1.0,0.0,0.0,0.0,1.0,0.0814028564453,-1.01035310059,12.9622077881,1.0,0.0,0.0,0.0,1.0,0.0,0.0,0.0,1.0
1463923072457889898,502,1463923072453747051,,10.065788269,-7.26695775986,141.186401367,0.0203910004348,1.0,0.0,0.0,0.0,1.0,0.0,0.0,0.0,1.0,-23.0487823486,-4.51219558716,2.62195134163,1.0,0.0,0.0,0.0,1.0,0.0,0.0,0.0,1.0,-2.3415290775,-3.07894333496,13.7187755127,1.0,0.0,0.0,0.0,1.0,0.0,0.0,0.0,1.0
1463923072498389933,503,1463923072474107016,,9.97243309021,-7.71350097656,141.363265991,0.0204119998962,1.0,0.0,0.0,0.0,1.0,0.0,0.0,0.0,1.0,-20.1219520569,-1.58536589146,8.5365858078,1.0,0.0,0.0,0.0,1.0,0.0,0.0,0.0,1.0,-0.885854614258,-2.38462499965,12.5408282959,1.0,0.0,0.0,0.0,1.0,0.0,0.0,0.0,1.0
1463923072498442328,504,1463923072494184586,,9.79852485657,-7.89149665833,141.661865234,0.0204259995371,1.0,0.0,0.0,0.0,1.0,0.0,0.0,0.0,1.0,-16.5243911743,0.792682945728,13.2317075729,1.0,0.0,0.0,0.0,1.0,0.0,0.0,0.0,1.0,0.76135612793,-0.545877978516,13.1010714844,1.0,0.0,0.0,0.0,1.0,0.0,0.0,0.0,1.0
1463923072544098696,505,1463923072514489551,,9.88288497925,-8.15151405334,141.924987793,0.0204099994153,1.0,0.0,0.0,0.0,1.0,0.0,0.0,0.0,1.0,-9.87804889679,9.20731735229,14.5731706619,1.0,0.0,0.0,0.0,1.0,0.0,0.0,0.0,1.0,-0.143652099609,-2.60010300293,11.0612116699,1.0,0.0,0.0,0.0,1.0,0.0,0.0,0.0,1.0
1463923072544385674,506,1463923072534988943,,10.1417036057,-8.31178855896,142.196243286,0.0203770007938,1.0,0.0,0.0,0.0,1.0,0.0,0.0,0.0,1.0,-6.21951246262,21.158536911,16.5853652954,1.0,0.0,0.0,0.0,1.0,0.0,0.0,0.0,1.0,0.603338854892,-2.56658417969,11.7124345215,1.0,0.0,0.0,0.0,1.0,0.0,0.0,0.0,1.0
1463923072580001771,507,1463923072555789739,,10.6930885315,-8.2359085083,142.663848877,0.0204109996557,1.0,0.0,0.0,0.0,1.0,0.0,0.0,0.0,1.0,-2.56097555161,46.0365867615,28.6585388184,1.0,0.0,0.0,0.0,1.0,0.0,0.0,0.0,1.0,3.72058937988,-1.44130939941,13.3404916504,1.0,0.0,0.0,0.0,1.0,0.0,0.0,0.0,1.0
1463923072580256249,508,1463923072576354912,,11.8365125656,-8.06202030182,143.249191284,0.0204450003803,1.0,0.0,0.0,0.0,1.0,0.0,0.0,0.0,1.0,5.79268312454,48.2926864624,35.3658561707,1.0,0.0,0.0,0.0,1.0,0.0,0.0,0.0,1.0,-2.07337849156,-1.93451494141,9.60074924175,1.0,0.0,0.0,0.0,1.0,0.0,0.0,0.0,1.0
1463923072618186921,509,1463923072596655398,,12.6005926132,-7.80265522003,143.970062256,0.0204099994153,1.0,0.0,0.0,0.0,1.0,0.0,0.0,0.0,1.0,4.93902444839,29.3902435303,38.3536567688,1.0,0.0,0.0,0.0,1.0,0.0,0.0,0.0,1.0,-2.25054956055,-1.33117612305,9.63426806499,1.0,0.0,0.0,0.0,1.0,0.0,0.0,0.0,1.0
1463923072618562127,510,1463923072616821406,,12.9895782471,-7.67945194244,144.841186523,0.020494999364,1.0,0.0,0.0,0.0,1.0,0.0,0.0,0.0,1.0,3.96341490746,15.3048791885,45.0,1.0,0.0,0.0,0.0,1.0,0.0,0.0,0.0,1.0,-1.42215578613,-2.62404501953,9.36611631001,1.0,0.0,0.0,0.0,1.0,0.0,0.0,0.0,1.0
1463923072641554060,511,1463923072637024548,,13.3004322052,-7.38190603256,145.798782349,0.020284999162,1.0,0.0,0.0,0.0,1.0,0.0,0.0,0.0,1.0,11.5853662491,-5.42682933807,46.7682952881,1.0,0.0,0.0,0.0,1.0,0.0,0.0,0.0,1.0,-4.11323845215,-2.43729729004,8.15465085449,1.0,0.0,0.0,0.0,1.0,0.0,0.0,0.0,1.0
1463923072658633935,512,1463923072657407951,,13.0265893936,-6.91902494431,146.920516968,0.0204179994762,1.0,0.0,0.0,0.0,1.0,0.0,0.0,0.0,1.0,13.9634151459,-21.5853652954,51.4024391174,1.0,0.0,0.0,0.0,1.0,0.0,0.0,0.0,1.0,-1.69030637207,-1.46525141602,7.18739338379,1.0,0.0,0.0,0.0,1.0,0.0,0.0,0.0,1.0
1463923072687459854,513,1463923072678063435,,12.6535100937,-6.6125793457,148.201538086,0.0203920006752,1.0,0.0,0.0,0.0,1.0,0.0,0.0,0.0,1.0,15.7926826477,-18.9634151459,62.134147644,1.0,0.0,0.0,0.0,1.0,0.0,0.0,0.0,1.0,-0.560243188477,-3.28484467773,7.93438430176,1.0,0.0,0.0,0.0,1.0,0.0,0.0,0.0,1.0
1463923072706939145,514,1463923072698630275,,12.2220373154,-6.07254552841,149.65637207,0.0204130001366,1.0,0.0,0.0,0.0,1.0,0.0,0.0,0.0,1.0,26.3414649963,-26.2195129395,69.7560958862,1.0,0.0,0.0,0.0,1.0,0.0,0.0,0.0,1.0,-1.0534486574,-3.14598098145,7.47948598633,1.0,0.0,0.0,0.0,1.0,0.0,0.0,0.0,1.0
1463923072723085743,515,1463923072719350863,,11.647974968,-5.3026432991,151.229278564,0.0204520002007,1.0,0.0,0.0,0.0,1.0,0.0,0.0,0.0,1.0,33.8414649963,-31.5243930817,74.2682952881,1.0,0.0,0.0,0.0,1.0,0.0,0.0,0.0,1.0,-0.76135612793,-2.38941340297,7.01501086426,1.0,0.0,0.0,0.0,1.0,0.0,0.0,0.0,1.0
1463923072745866687,516,1463923072739545620,,10.9459629059,-4.47259473801,152.862960815,0.0204009991139,1.0,0.0,0.0,0.0,1.0,0.0,0.0,0.0,1.0,36.0365867615,-33.4146347046,77.3780517578,1.0,0.0,0.0,0.0,1.0,0.0,0.0,0.0,1.0,-0.205901342773,-2.08774370153,6.90966599121,1.0,0.0,0.0,0.0,1.0,0.0,0.0,0.0,1.0
1463923072762299794,517,1463923072760104387,,10.2988710403,-3.61869883537,154.519012451,0.0204569995403,1.0,0.0,0.0,0.0,1.0,0.0,0.0,0.0,1.0,37.4390220642,-30.3048782349,78.7804946899,1.0,0.0,0.0,0.0,1.0,0.0,0.0,0.0,1.0,-0.234631762695,-2.07337849156,7.46512077637,1.0,0.0,0.0,0.0,1.0,0.0,0.0,0.0,1.0
1463923072783133142,518,1463923072780239144,,9.58951663971,-3.08397102356,156.087646484,0.0203360002488,1.0,0.0,0.0,0.0,1.0,0.0,0.0,0.0,1.0,38.9634132385,-30.2439022064,78.1707305908,1.0,0.0,0.0,0.0,1.0,0.0,0.0,0.0,1.0,0.292092584273,-3.82114584961,6.24407792969,1.0,0.0,0.0,0.0,1.0,0.0,0.0,0.0,1.0
1463923072815586077,519,1463923072805857212,,8.88776016235,-2.22525024414,157.624206543,0.0204520002007,1.0,0.0,0.0,0.0,1.0,0.0,0.0,0.0,1.0,37.6219520569,-33.4146347046,73.0487823486,1.0,0.0,0.0,0.0,1.0,0.0,0.0,0.0,1.0,-0.440533105469,-1.5083470459,7.72369455566,1.0,0.0,0.0,0.0,1.0,0.0,0.0,0.0,1.0
1463923072823883802,520,1463923072820735534,,8.19922733307,-1.49628317356,159.074401855,0.0204019993544,1.0,0.0,0.0,0.0,1.0,0.0,0.0,0.0,1.0,31.8902454376,-30.4268321991,69.4512176514,1.0,0.0,0.0,0.0,1.0,0.0,0.0,0.0,1.0,-0.181959326172,-1.33117612305,8.25999572754,1.0,0.0,0.0,0.0,1.0,0.0,0.0,0.0,1.0
1463923072843873508,521,1463923072841136124,,7.60570192337,-0.925337314606,160.394134521,0.0204099994153,1.0,0.0,0.0,0.0,1.0,0.0,0.0,0.0,1.0,25.4878044128,-26.6463432312,63.4756088257,1.0,0.0,0.0,0.0,1.0,0.0,0.0,0.0,1.0,-0.378283862305,-1.25456166992,8.82502731934,1.0,0.0,0.0,0.0,1.0,0.0,0.0,0.0,1.0
1463923072865294718,522,1463923072862149836,,7.08417415619,-0.532851457596,161.576049805,0.0203489996493,1.0,0.0,0.0,0.0,1.0,0.0,0.0,0.0,1.0,18.475610733,-23.7804889679,57.2560997009,1.0,0.0,0.0,0.0,1.0,0.0,0.0,0.0,1.0,-0.474051928711,-1.19231249982,8.77714328613,1.0,0.0,0.0,0.0,1.0,0.0,0.0,0.0,1.0
1463923072884505209,523,1463923072882027095,,6.61102342606,-0.295219600201,162.593475342,0.0204019993544,1.0,0.0,0.0,0.0,1.0,0.0,0.0,0.0,1.0,10.3658542633,-22.3780498505,49.0243911743,1.0,0.0,0.0,0.0,1.0,0.0,0.0,0.0,1.0,-0.603338854892,-0.804451757813,8.58560773784,1.0,0.0,0.0,0.0,1.0,0.0,0.0,0.0,1.0
1463923072905213141,524,1463923072902462684,,6.21733045578,-0.271187573671,163.463485718,0.020494999364,1.0,0.0,0.0,0.0,1.0,0.0,0.0,0.0,1.0,0.609756112099,-17.6219520569,41.7073173523,1.0,0.0,0.0,0.0,1.0,0.0,0.0,0.0,1.0,-0.450109912109,-0.713472094727,8.83460412598,1.0,0.0,0.0,0.0,1.0,0.0,0.0,0.0,1.0
1463923072926593258,525,1463923072923002388,,5.95401525497,-0.478037148714,164.192947388,0.0203549992293,1.0,0.0,0.0,0.0,1.0,0.0,0.0,0.0,1.0,-6.40243911743,-11.341463089,35.5487823486,1.0,0.0,0.0,0.0,1.0,0.0,0.0,0.0,1.0,-0.397437475586,-1.30723410645,9.23204160156,1.0,0.0,0.0,0.0,1.0,0.0,0.0,0.0,1.0
1463923072946093487,526,1463923072943521103,,5.84149742126,-0.783338546753,164.843399048,0.0204189997166,1.0,0.0,0.0,0.0,1.0,0.0,0.0,0.0,1.0,-9.87804889679,-4.14634132385,31.7073192596,1.0,0.0,0.0,0.0,1.0,0.0,0.0,0.0,1.0,-0.363918652344,-1.43652099609,8.99740983887,1.0,0.0,0.0,0.0,1.0,0.0,0.0,0.0,1.0
1463923072978358922,527,1463923072964022421,,5.84499597549,-1.17732644081,165.442016602,0.0207870006561,1.0,0.0,0.0,0.0,1.0,0.0,0.0,0.0,1.0,-15.1829271317,2.56097555161,28.5975608826,1.0,0.0,0.0,0.0,1.0,0.0,0.0,0.0,1.0,-0.15801730957,-1.19231249982,8.82981572266,1.0,0.0,0.0,0.0,1.0,0.0,0.0,0.0,1.0
1463923072989906633,528,1463923072983937596,,5.99516534805,-1.66961431503,165.947052002,0.0199810005724,1.0,0.0,0.0,0.0,1.0,0.0,0.0,0.0,1.0,-22.9268302917,8.78048801422,25.0609760284,1.0,0.0,0.0,0.0,1.0,0.0,0.0,0.0,1.0,-0.330399829102,-0.909796630859,9.17458076172,1.0,0.0,0.0,0.0,1.0,0.0,0.0,0.0,1.0
1463923073015662409,529,1463923073004386572,,6.24568367004,-2.34753131866,166.385803223,0.0204319991171,1.0,0.0,0.0,0.0,1.0,0.0,0.0,0.0,1.0,-30.4268321991,13.1097564697,21.6463432312,1.0,0.0,0.0,0.0,1.0,0.0,0.0,0.0,1.0,-0.402225878906,-1.11569797363,9.20809958496,1.0,0.0,0.0,0.0,1.0,0.0,0.0,0.0,1.0
1463923073029601360,530,1463923073024779036,,6.49176311493,-3.15574455261,166.733520508,0.0204579997808,1.0,0.0,0.0,0.0,1.0,0.0,0.0,0.0,1.0,-36.5243911743,13.7195129395,17.4390239716,1.0,0.0,0.0,0.0,1.0,0.0,0.0,0.0,1.0,-0.292092584273,-1.19710090314,9.193734375,1.0,0.0,0.0,0.0,1.0,0.0,0.0,0.0,1.0
1463923073050929706,531,1463923073045675978,,6.75267553329,-4.07579946518,167.006576538,0.020367000252,1.0,0.0,0.0,0.0,1.0,0.0,0.0,0.0,1.0,-42.8658561707,13.4756097794,14.0243902206,1.0,0.0,0.0,0.0,1.0,0.0,0.0,0.0,1.0,-0.478840332031,-1.12527478027,8.89685336914,1.0,0.0,0.0,0.0,1.0,0.0,0.0,0.0,1.0
1463923073104036718,532,1463923073067883540,,6.95151329041,-5.11762094498,167.221817017,0.0204559992999,1.0,0.0,0.0,0.0,1.0,0.0,0.0,0.0,1.0,-48.9634170532,9.02439117432,11.0365858078,1.0,0.0,0.0,0.0,1.0,0.0,0.0,0.0,1.0,-0.694318481445,-1.10612116699,8.39407043599,1.0,0.0,0.0,0.0,1.0,0.0,0.0,0.0,1.0
1463923073104096614,533,1463923073085808828,,7.03925037384,-6.27628421783,167.415252686,0.0203399993479,1.0,0.0,0.0,0.0,1.0,0.0,0.0,0.0,1.0,-54.8780517578,5.24390268326,9.87804889679,1.0,0.0,0.0,0.0,1.0,0.0,0.0,0.0,1.0,-0.474051928711,-1.29286889648,8.57124252788,1.0,0.0,0.0,0.0,1.0,0.0,0.0,0.0,1.0
1463923073108490449,534,1463923073106456343,,7.08641672134,-7.54314994812,167.627578735,0.0204319991171,1.0,0.0,0.0,0.0,1.0,0.0,0.0,0.0,1.0,-58.2926826477,2.80487799644,10.8536586761,1.0,0.0,0.0,0.0,1.0,0.0,0.0,0.0,1.0,-0.521935925381,-1.81001645508,8.87291135254,1.0,0.0,0.0,0.0,1.0,0.0,0.0,0.0,1.0
1463923073133424145,535,1463923073127021828,,7.07286214828,-8.79470920563,167.888168335,0.0203930009156,1.0,0.0,0.0,0.0,1.0,0.0,0.0,0.0,1.0,-59.3292732239,0.12195122242,12.8048782349,1.0,0.0,0.0,0.0,1.0,0.0,0.0,0.0,1.0,-0.397437475586,-1.7908628418,8.88248815918,1.0,0.0,0.0,0.0,1.0,0.0,0.0,0.0,1.0
1463923073155262333,536,1463923073147608928,,7.02777099609,-10.0455389023,168.179397583,0.020422000438,1.0,0.0,0.0,0.0,1.0,0.0,0.0,0.0,1.0,-62.0731735229,-2.56097555161,13.5975618362,1.0,0.0,0.0,0.0,1.0,0.0,0.0,0.0,1.0,-0.507570751953,-1.56101948242,8.93037219238,1.0,0.0,0.0,0.0,1.0,0.0,0.0,0.0,1.0
1463923073172824185,537,1463923073168220350,,6.93478870392,-11.3302497864,168.504394531,0.0204199999571,1.0,0.0,0.0,0.0,1.0,0.0,0.0,0.0,1.0,-66.1585388184,-6.58536624908,14.2682924271,1.0,0.0,0.0,0.0,1.0,0.0,0.0,0.0,1.0,-0.713472094727,-1.45567460937,9.30386706685,1.0,0.0,0.0,0.0,1.0,0.0,0.0,0.0,1.0
1463923073192714308,538,1463923073188804689,,6.74504756927,-12.6209306717,168.882156372,0.0203959997743,1.0,0.0,0.0,0.0,1.0,0.0,0.0,0.0,1.0,-69.1463470459,-12.2560977936,15.3658533096,1.0,0.0,0.0,0.0,1.0,0.0,0.0,0.0,1.0,-0.727837304687,-1.26892687988,9.28471345356,1.0,0.0,0.0,0.0,1.0,0.0,0.0,0.0,1.0
1463923073210902251,539,1463923073209198769,,6.46618318558,-13.9648275375,169.315811157,0.0204310007393,1.0,0.0,0.0,0.0,1.0,0.0,0.0,0.0,1.0,-73.4756088257,-17.0121955872,16.6463413239,1.0,0.0,0.0,0.0,1.0,0.0,0.0,0.0,1.0,-0.61770402832,-1.20667770978,9.22246479492,1.0,0.0,0.0,0.0,1.0,0.0,0.0,0.0,1.0
1463923073234946523,540,1463923073229317537,,6.16243839264,-15.3433094025,169.77520752,0.0203840006143,1.0,0.0,0.0,0.0,1.0,0.0,0.0,0.0,1.0,-76.8902435303,-19.9390239716,16.8292694092,1.0,0.0,0.0,0.0,1.0,0.0,0.0,0.0,1.0,-0.775721337891,-1.22583125,9.66299848491,1.0,0.0,0.0,0.0,1.0,0.0,0.0,0.0,1.0
1463923073252295199,541,1463923073249866043,,5.85054683685,-16.7324867249,170.274169922,0.0204029995948,1.0,0.0,0.0,0.0,1.0,0.0,0.0,0.0,1.0,-78.841468811,-22.3780498505,17.6829280853,1.0,0.0,0.0,0.0,1.0,0.0,0.0,0.0,1.0,-0.943315454102,-1.23540805664,9.8305920166,1.0,0.0,0.0,0.0,1.0,0.0,0.0,0.0,1.0
1463923073272260739,542,1463923073270152519,,5.50894069672,-18.1001815796,170.846511841,0.0204070005566,1.0,0.0,0.0,0.0,1.0,0.0,0.0,0.0,1.0,-80.9756088257,-26.4634151459,19.5121955872,1.0,0.0,0.0,0.0,1.0,0.0,0.0,0.0,1.0,-1.07739082014,-0.909796630859,9.5432884019,1.0,0.0,0.0,0.0,1.0,0.0,0.0,0.0,1.0
1463923073300129318,543,1463923073290586337,,5.12670898438,-19.4582672119,171.508239746,0.0204649996012,1.0,0.0,0.0,0.0,1.0,0.0,0.0,0.0,1.0,-83.8414611816,-31.2195129395,21.7073173523,1.0,0.0,0.0,0.0,1.0,0.0,0.0,0.0,1.0,-1.2497732666,-0.574608398438,9.84495722656,1.0,0.0,0.0,0.0,1.0,0.0,0.0,0.0,1.0
1463923073315686334,544,1463923073310881928,,4.6692738533,-20.8215465546,172.201721191,0.0203660000116,1.0,0.0,0.0,0.0,1.0,0.0,0.0,0.0,1.0,-85.4878082275,-33.7195129395,22.0731716156,1.0,0.0,0.0,0.0,1.0,0.0,0.0,0.0,1.0,-0.780509741211,-0.61770402832,9.90720646973,1.0,0.0,0.0,0.0,1.0,0.0,0.0,0.0,1.0
1463923073334581149,545,1463923073331221007,,4.28811359406,-22.1806964874,172.906646729,0.0204050000757,1.0,0.0,0.0,0.0,1.0,0.0,0.0,0.0,1.0,-85.2439041138,-31.2195129395,23.1707324982,1.0,0.0,0.0,0.0,1.0,0.0,0.0,0.0,1.0,-0.723048901367,-0.77093293457,9.5193463853,1.0,0.0,0.0,0.0,1.0,0.0,0.0,0.0,1.0
1463923073368608035,546,1463923073351055454,,3.95522499084,-23.4975757599,173.628372192,0.0203750003129,1.0,0.0,0.0,0.0,1.0,0.0,0.0,0.0,1.0,-82.8658599854,-32.5,23.2926845551,1.0,0.0,0.0,0.0,1.0,0.0,0.0,0.0,1.0,-1.09654436035,-1.01035310059,9.28471345356,1.0,0.0,0.0,0.0,1.0,0.0,0.0,0.0,1.0
1463923073373167964,547,1463923073371886563,,3.58985137939,-24.7030601501,174.411453247,0.0204360000789,1.0,0.0,0.0,0.0,1.0,0.0,0.0,0.0,1.0,-77.3170776367,-35.4878044128,24.7560977936,1.0,0.0,0.0,0.0,1.0,0.0,0.0,0.0,1.0,-1.04387185076,-1.24019645996,9.52413478862,1.0,0.0,0.0,0.0,1.0,0.0,0.0,0.0,1.0
1463923073451715857,548,1463923073392168507,,3.24510836601,-25.7366676331,175.243515015,0.0203959997743,1.0,0.0,0.0,0.0,1.0,0.0,0.0,0.0,1.0,-70.4268264771,-35.1829299927,27.1951236725,1.0,0.0,0.0,0.0,1.0,0.0,0.0,0.0,1.0,-0.818816967773,-1.21625444336,9.79707319336,1.0,0.0,0.0,0.0,1.0,0.0,0.0,0.0,1.0
1463923073452140803,549,1463923073412865711,,3.01126265526,-26.5986022949,176.104446411,0.0204210001975,1.0,0.0,0.0,0.0,1.0,0.0,0.0,0.0,1.0,-63.9634170532,-32.3780517578,29.7560997009,1.0,0.0,0.0,0.0,1.0,0.0,0.0,0.0,1.0,-0.928950244141,-0.967257470703,9.53849999858,1.0,0.0,0.0,0.0,1.0,0.0,0.0,0.0,1.0
1463923073452562051,550,1463923073433243175,,2.92763710022,-27.1480560303,177.036453247,0.020469000563,1.0,0.0,0.0,0.0,1.0,0.0,0.0,0.0,1.0,-51.2804870605,-35.2439041138,31.8292694092,1.0,0.0,0.0,0.0,1.0,0.0,0.0,0.0,1.0,-2.31279880371,-0.517147558594,9.33738589009,1.0,0.0,0.0,0.0,1.0,0.0,0.0,0.0,1.0
1463923073517045682,551,1463923073453675953,,2.65125703812,-27.6387748718,178.072799683,0.0204009991139,1.0,0.0,0.0,0.0,1.0,0.0,0.0,0.0,1.0,-48.7195129395,-39.0243911743,35.6097564697,1.0,0.0,0.0,0.0,1.0,0.0,0.0,0.0,1.0,-0.938527050781,-0.732625708008,9.89762966309,1.0,0.0,0.0,0.0,1.0,0.0,0.0,0.0,1.0
1463923073517104327,552,1463923073473608732,,2.46528792381,-28.0000457764,179.167526245,0.0203329995275,1.0,0.0,0.0,0.0,1.0,0.0,0.0,0.0,1.0,-43.4756126404,-36.9512214661,40.0609741211,1.0,0.0,0.0,0.0,1.0,0.0,0.0,0.0,1.0,-0.943315454102,-0.632069238281,10.2567599121,1.0,0.0,0.0,0.0,1.0,0.0,0.0,0.0,1.0
1463923073517140629,553,1463923073494102082,,2.41260910034,-28.2524967194,-179.663574219,0.020433999598,1.0,0.0,0.0,0.0,1.0,0.0,0.0,0.0,1.0,-40.1219520569,-35.0000038147,44.817073822,1.0,0.0,0.0,0.0,1.0,0.0,0.0,0.0,1.0,-1.31202250977,-0.263362164351,10.1226846191,1.0,0.0,0.0,0.0,1.0,0.0,0.0,0.0,1.0
1463923073517177192,554,1463923073514586942,,2.42115473747,-28.4382362366,-178.4115448,0.0203799996525,1.0,0.0,0.0,0.0,1.0,0.0,0.0,0.0,1.0,-36.7682952881,-35.6097564697,49.2682914734,1.0,0.0,0.0,0.0,1.0,0.0,0.0,0.0,1.0,-1.54665427246,-0.354341845703,10.2711251221,1.0,0.0,0.0,0.0,1.0,0.0,0.0,0.0,1.0
1463923073579110833,555,1463923073534872845,,2.40713000298,-28.4783992767,-177.085968018,0.0204230006784,1.0,0.0,0.0,0.0,1.0,0.0,0.0,0.0,1.0,-31.5243930817,-37.134147644,52.2560997009,1.0,0.0,0.0,0.0,1.0,0.0,0.0,0.0,1.0,-1.31202250977,-0.0430956298828,10.3908352051,1.0,0.0,0.0,0.0,1.0,0.0,0.0,0.0,1.0
1463923073579396561,556,1463923073555701767,,2.40525579453,-28.3903884888,-175.727966309,0.0204140003771,1.0,0.0,0.0,0.0,1.0,0.0,0.0,0.0,1.0,-27.1951236725,-37.1951255798,53.9634170532,1.0,0.0,0.0,0.0,1.0,0.0,0.0,0.0,1.0,-1.23540805664,0.339976635742,10.0556469727,1.0,0.0,0.0,0.0,1.0,0.0,0.0,0.0,1.0
1463923073580011350,557,1463923073575943711,,2.45570540428,-28.1694488525,-174.408355713,0.0203949995339,1.0,0.0,0.0,0.0,1.0,0.0,0.0,0.0,1.0,-22.4390239716,-32.8048782349,54.207321167,1.0,0.0,0.0,0.0,1.0,0.0,0.0,0.0,1.0,-1.02471831055,0.732625708008,10.2376062988,1.0,0.0,0.0,0.0,1.0,0.0,0.0,0.0,1.0
1463923073653059215,558,1463923073601116260,,2.51895880699,-27.8416671753,-173.16078186,0.0204150006175,1.0,0.0,0.0,0.0,1.0,0.0,0.0,0.0,1.0,-18.2926826477,-28.9634151459,52.134147644,1.0,0.0,0.0,0.0,1.0,0.0,0.0,0.0,1.0,-0.77093293457,1.02950671387,10.4147772217,1.0,0.0,0.0,0.0,1.0,0.0,0.0,0.0,1.0
1463923073653377286,559,1463923073616609319,,2.67329764366,-27.4922542572,-172.070114136,0.0203930009156,1.0,0.0,0.0,0.0,1.0,0.0,0.0,0.0,1.0,-13.841463089,-20.6707324982,48.0487823486,1.0,0.0,0.0,0.0,1.0,0.0,0.0,0.0,1.0,-0.723048901367,0.426167895508,11.0612116699,1.0,0.0,0.0,0.0,1.0,0.0,0.0,0.0,1.0
1463923073653648119,560,1463923073646308723,,2.67280387878,-26.8271846771,-171.046051025,0.0223459992558,1.0,0.0,0.0,0.0,1.0,0.0,0.0,0.0,1.0,21.4634151459,-19.8780498505,40.9756088257,1.0,0.0,0.0,0.0,1.0,0.0,0.0,0.0,1.0,0.0383072265625,-1.87226569824,4.75488478933,1.0,0.0,0.0,0.0,1.0,0.0,0.0,0.0,1.0
1463923073753806284,561,1463923073657657581,,2.33211159706,-26.2581386566,-170.118560791,0.0185020007193,1.0,0.0,0.0,0.0,1.0,0.0,0.0,0.0,1.0,-13.4756097794,-27.9268302917,39.8780479431,1.0,0.0,0.0,0.0,1.0,0.0,0.0,0.0,1.0,2.83952316895,5.12837995605,12.5982891357,1.0,0.0,0.0,0.0,1.0,0.0,0.0,0.0,1.0
1463923073754111022,562,1463923073678776344,,2.73811531067,-25.896780014,-169.283187866,0.0203840006143,1.0,0.0,0.0,0.0,1.0,0.0,0.0,0.0,1.0,-3.7804877758,-17.0121955872,36.2804908752,1.0,0.0,0.0,0.0,1.0,0.0,0.0,0.0,1.0,-4.51546433105,-1.04866025408,12.4450602295,1.0,0.0,0.0,0.0,1.0,0.0,0.0,0.0,1.0
1463923073756843615,563,1463923073698631572,,2.57700371742,-24.8402175903,-168.406524658,0.0204310007393,1.0,0.0,0.0,0.0,1.0,0.0,0.0,0.0,1.0,22.1951236725,-18.0487823486,37.5,1.0,0.0,0.0,0.0,1.0,0.0,0.0,0.0,1.0,2.13562802699,0.92416184082,16.3763393555,1.0,0.0,0.0,0.0,1.0,0.0,0.0,0.0,1.0
1463923073757331634,564,1463923073718994402,,2.79678320885,-23.5202693939,-167.599365234,0.0203850008547,1.0,0.0,0.0,0.0,1.0,0.0,0.0,0.0,1.0,36.5853652954,-9.5731716156,37.682926178,1.0,0.0,0.0,0.0,1.0,0.0,0.0,0.0,1.0,-1.10133276367,0.675164868164,14.3269027344,1.0,0.0,0.0,0.0,1.0,0.0,0.0,0.0,1.0
1463923073945875150,565,1463923073740481966,,2.67379260063,-21.8008556366,-166.639968872,0.0214990004897,1.0,0.0,0.0,0.0,1.0,0.0,0.0,0.0,1.0,46.8292694092,-16.5243911743,39.7560997009,1.0,0.0,0.0,0.0,1.0,0.0,0.0,0.0,1.0,1.14921679688,1.98239897461,11.6262432617,1.0,0.0,0.0,0.0,1.0,0.0,0.0,0.0,1.0
1463923073946146295,566,1463923073760021362,,2.68556070328,-20.2568397522,-165.848709106,0.019319999963,1.0,0.0,0.0,0.0,1.0,0.0,0.0,0.0,1.0,49.7560997009,-18.9634151459,34.8780479431,1.0,0.0,0.0,0.0,1.0,0.0,0.0,0.0,1.0,-1.74297880859,2.28885678711,15.9980554932,1.0,0.0,0.0,0.0,1.0,0.0,0.0,0.0,1.0
1463923073946430461,567,1463923073779989662,,2.63544392586,-18.5563430786,-165.07170105,0.0203939992934,1.0,0.0,0.0,0.0,1.0,0.0,0.0,0.0,1.0,56.1585388184,-15.6707315445,33.3536605835,1.0,0.0,0.0,0.0,1.0,0.0,0.0,0.0,1.0,-0.531512805087,2.03507141113,18.4736600098,1.0,0.0,0.0,0.0,1.0,0.0,0.0,0.0,1.0
1463923073946717022,568,1463923073800547491,,2.79122114182,-16.6642150879,-164.323150635,0.0204930007458,1.0,0.0,0.0,0.0,1.0,0.0,0.0,0.0,1.0,64.8780441284,-19.2682914734,30.3658542633,1.0,0.0,0.0,0.0,1.0,0.0,0.0,0.0,1.0,-4.99430466309,2.6862942627,15.6532904541,1.0,0.0,0.0,0.0,1.0,0.0,0.0,0.0,1.0
1463923073946983531,569,1463923073821027924,,2.69594931602,-14.7622699738,-163.604919434,0.0203360002488,1.0,0.0,0.0,0.0,1.0,0.0,0.0,0.0,1.0,68.4756164551,-22.5,28.6585388184,1.0,0.0,0.0,0.0,1.0,0.0,0.0,0.0,1.0,-2.55221896973,2.03507141113,14.5328040771,1.0,0.0,0.0,0.0,1.0,0.0,0.0,0.0,1.0
1463923073947494414,570,1463923073840901537,,2.57142019272,-12.8121862411,-162.940551758,0.0204029995948,1.0,0.0,0.0,0.0,1.0,0.0,0.0,0.0,1.0,72.0731735229,-18.7195110321,27.3780498505,1.0,0.0,0.0,0.0,1.0,0.0,0.0,0.0,1.0,-1.97282216797,2.60967980957,18.2773366427,1.0,0.0,0.0,0.0,1.0,0.0,0.0,0.0,1.0
1463923073950418569,571,1463923073861679469,,2.59174537659,-10.5336971283,-162.362258911,0.0204070005566,1.0,0.0,0.0,0.0,1.0,0.0,0.0,0.0,1.0,84.5121917725,-11.7073173523,24.7560977936,1.0,0.0,0.0,0.0,1.0,0.0,0.0,0.0,1.0,-2.4277204834,4.41969626465,17.0467169894,1.0,0.0,0.0,0.0,1.0,0.0,0.0,0.0,1.0
1463923073950867785,572,1463923073881731206,,2.3828420639,-8.34926319122,-161.818710327,0.0204199999571,1.0,0.0,0.0,0.0,1.0,0.0,0.0,0.0,1.0,84.3292694092,-17.3780498505,22.5609760284,1.0,0.0,0.0,0.0,1.0,0.0,0.0,0.0,1.0,-0.632069238281,2.00634099121,9.63426806499,1.0,0.0,0.0,0.0,1.0,0.0,0.0,0.0,1.0
1463923073951206846,573,1463923073902408722,,1.78461956978,-6.26091432571,-161.249176025,0.0204029995948,1.0,0.0,0.0,0.0,1.0,0.0,0.0,0.0,1.0,89.0853652954,-17.5000019073,25.1219520569,1.0,0.0,0.0,0.0,1.0,0.0,0.0,0.0,1.0,2.60967980957,0.76135612793,9.53849999858,1.0,0.0,0.0,0.0,1.0,0.0,0.0,0.0,1.0
1463923073951736219,574,1463923073922817280,,1.86688423157,-3.70893669128,-160.728027344,0.0204109996557,1.0,0.0,0.0,0.0,1.0,0.0,0.0,0.0,1.0,99.5121994019,-6.15853643417,23.5365848541,1.0,0.0,0.0,0.0,1.0,0.0,0.0,0.0,1.0,-1.86747729492,4.56813676758,12.6653267822,1.0,0.0,0.0,0.0,1.0,0.0,0.0,0.0,1.0
1463923074010991799,575,1463923073943654118,,2.13677287102,-1.27240180969,-160.30317688,0.0204210001975,1.0,0.0,0.0,0.0,1.0,0.0,0.0,0.0,1.0,91.707321167,-3.71951246262,18.7804889679,1.0,0.0,0.0,0.0,1.0,0.0,0.0,0.0,1.0,-4.73094218821,7.1203557373,14.6668793701,1.0,0.0,0.0,0.0,1.0,0.0,0.0,0.0,1.0
1463923074011269194,576,1463923073963787626,,2.54527878761,0.9000685215,-159.768783569,0.0203939992934,1.0,0.0,0.0,0.0,1.0,0.0,0.0,0.0,1.0,95.6707305908,8.71951198578,24.8780498505,1.0,0.0,0.0,0.0,1.0,0.0,0.0,0.0,1.0,-2.76290871582,2.07337849156,13.2638771973,1.0,0.0,0.0,0.0,1.0,0.0,0.0,0.0,1.0
1463923074011528464,577,1463923073983983998,,3.46713232994,3.00155234337,-158.907043457,0.0204060003161,1.0,0.0,0.0,0.0,1.0,0.0,0.0,0.0,1.0,114.512199402,58.2317085266,40.1219520569,1.0,0.0,0.0,0.0,1.0,0.0,0.0,0.0,1.0,11.2623246094,-13.0962830811,54.9804469238,1.0,0.0,0.0,0.0,1.0,0.0,0.0,0.0,1.0
1463923074011806744,578,1463923074004251151,,2.03876328468,4.56002044678,-158.467895508,0.0204029995948,1.0,0.0,0.0,0.0,1.0,0.0,0.0,0.0,1.0,36.8902435303,-43.9634170532,21.5853652954,1.0,0.0,0.0,0.0,1.0,0.0,0.0,0.0,1.0,12.4259066162,16.0890351562,-14.082694165,1.0,0.0,0.0,0.0,1.0,0.0,0.0,0.0,1.0
1463923074048738825,579,1463923074024782053,,2.77070116997,14.2589950562,-158.57182312,0.0204620007426,1.0,0.0,0.0,0.0,1.0,0.0,0.0,0.0,1.0,434.329284668,56.6463394165,-14.7560987473,1.0,0.0,0.0,0.0,1.0,0.0,0.0,0.0,1.0,6.49307490234,12.2966197266,7.91044228516,1.0,0.0,0.0,0.0,1.0,0.0,0.0,0.0,1.0
1463923074049003095,580,1463923074045151549,,1.45876944065,16.6699542999,-159.786376953,0.0203590001911,1.0,0.0,0.0,0.0,1.0,0.0,0.0,0.0,1.0,149.085372925,-54.634147644,-45.7317085266,1.0,0.0,0.0,0.0,1.0,0.0,0.0,0.0,1.0,19.4696479004,-13.8241203857,40.0693589844,1.0,0.0,0.0,0.0,1.0,0.0,0.0,0.0,1.0
1463923074210747872,581,1463923074065408598,,2.60421299934,20.3228263855,-158.339233398,0.0203970000148,1.0,0.0,0.0,0.0,1.0,0.0,0.0,0.0,1.0,159.085372925,80.3048858643,45.9146347046,1.0,0.0,0.0,0.0,1.0,0.0,0.0,0.0,1.0,2.14999323695,12.6796919922,18.162414963,1.0,0.0,0.0,0.0,1.0,0.0,0.0,0.0,1.0
1463923074210796101,582,1463923074085786323,,1.11756491661,21.9870700836,-159.179763794,0.0204070005566,1.0,0.0,0.0,0.0,1.0,0.0,0.0,0.0,1.0,131.89024353,-77.3170776367,-12.7439022064,1.0,0.0,0.0,0.0,1.0,0.0,0.0,0.0,1.0,4.24731403738,-26.834212207,32.0870906494,1.0,0.0,0.0,0.0,1.0,0.0,0.0,0.0,1.0
1463923074211060163,583,1463923074106281652,,1.05368506908,15.0460319519,-158.822372437,0.0204719994217,1.0,0.0,0.0,0.0,1.0,0.0,0.0,0.0,1.0,-360.0,27.8658542633,5.36585378647,1.0,0.0,0.0,0.0,1.0,0.0,0.0,0.0,1.0,7.29273825684,9.00219824219,8.64306857769,1.0,0.0,0.0,0.0,1.0,0.0,0.0,0.0,1.0
1463923074211309536,584,1463923074126749950,,2.01383328438,17.6747379303,-157.93913269,0.0203460007906,1.0,0.0,0.0,0.0,1.0,0.0,0.0,0.0,1.0,112.195121765,56.8292694092,26.7682933807,1.0,0.0,0.0,0.0,1.0,0.0,0.0,0.0,1.0,0.0814028564453,7.56567724609,12.392387793,1.0,0.0,0.0,0.0,1.0,0.0,0.0,0.0,1.0
1463923074211645889,585,1463923074147049759,,2.74088406563,18.1270084381,-157.309371948,0.0204860009253,1.0,0.0,0.0,0.0,1.0,0.0,0.0,0.0,1.0,69.4512176514,45.3048782349,17.9878044128,1.0,0.0,0.0,0.0,1.0,0.0,0.0,0.0,1.0,0.569819995117,-8.2025348877,9.23204160156,1.0,0.0,0.0,0.0,1.0,0.0,0.0,0.0,1.0
1463923074211692608,586,1463923074167771337,,3.56070995331,16.3117847443,-157.056503296,0.0203249994665,1.0,0.0,0.0,0.0,1.0,0.0,0.0,0.0,1.0,-39.634147644,22.0731716156,7.74390268326,1.0,0.0,0.0,0.0,1.0,0.0,0.0,0.0,1.0,-8.11155522461,-16.8599680908,11.8369330078,1.0,0.0,0.0,0.0,1.0,0.0,0.0,0.0,1.0
1463923074211947294,587,1463923074188134636,,4.68496465683,12.9264945984,-156.824127197,0.0204210001975,1.0,0.0,0.0,0.0,1.0,0.0,0.0,0.0,1.0,-198.719528198,49.207321167,-4.2682929039,1.0,0.0,0.0,0.0,1.0,0.0,0.0,0.0,1.0,-1.73819040527,9.96945571289,8.0397291748,1.0,0.0,0.0,0.0,1.0,0.0,0.0,0.0,1.0
1463923074255433254,588,1463923074208457569,,4.82719135284,15.9630184174,-156.634536743,0.0204009991139,1.0,0.0,0.0,0.0,1.0,0.0,0.0,0.0,1.0,101.097557068,25.0609760284,-1.58536589146,1.0,0.0,0.0,0.0,1.0,0.0,0.0,0.0,1.0,1.43652099609,4.34787021484,1.25456166992,1.0,0.0,0.0,0.0,1.0,0.0,0.0,0.0,1.0
1463923074255476066,589,1463923074229257585,,5.62757873535,15.2209720612,-156.542953491,0.0207269992679,1.0,0.0,0.0,0.0,1.0,0.0,0.0,0.0,1.0,-35.9146347046,28.2926845551,-4.45121955872,1.0,0.0,0.0,0.0,1.0,0.0,0.0,0.0,1.0,-1.82438166504,2.04464821777,7.28794985352,1.0,0.0,0.0,0.0,1.0,0.0,0.0,0.0,1.0
1463923074314583834,590,1463923074249385519,,7.17630243301,20.0874767303,-156.194915771,0.0201149992645,1.0,0.0,0.0,0.0,1.0,0.0,0.0,0.0,1.0,227.012191772,76.6463470459,-9.14634132385,1.0,0.0,0.0,0.0,1.0,0.0,0.0,0.0,1.0,-6.36857641602,33.2315167049,60.1375572998,1.0,0.0,0.0,0.0,1.0,0.0,0.0,0.0,1.0
1463923074314644147,591,1463923074269801943,,6.87898540497,21.0533485413,-156.640182495,0.0203939992934,1.0,0.0,0.0,0.0,1.0,0.0,0.0,0.0,1.0,41.8902435303,-27.1951236725,-15.2439022064,1.0,0.0,0.0,0.0,1.0,0.0,0.0,0.0,1.0,-3.99352836914,9.71088193359,17.7889171659,1.0,0.0,0.0,0.0,1.0,0.0,0.0,0.0,1.0
1463923074383193229,592,1463923074293203040,,7.773665905,25.5465011597,-156.227416992,0.020408000797,1.0,0.0,0.0,0.0,1.0,0.0,0.0,0.0,1.0,194.878051758,28.5975608826,4.14634132385,1.0,0.0,0.0,0.0,1.0,0.0,0.0,0.0,1.0,-10.7403886475,17.295713962,15.7059628906,1.0,0.0,0.0,0.0,1.0,0.0,0.0,0.0,1.0
1463923074383473280,593,1463923074311597649,,8.41504955292,27.1773452759,-156.676742554,0.0204060003161,1.0,0.0,0.0,0.0,1.0,0.0,0.0,0.0,1.0,99.634147644,-29.5731697083,-9.26829242706,1.0,0.0,0.0,0.0,1.0,0.0,0.0,0.0,1.0,-9.35653950337,-2.14999323695,2.27927998047,1.0,0.0,0.0,0.0,1.0,0.0,0.0,0.0,1.0
1463923074383730935,594,1463923074330799442,,8.09200763702,27.6965141296,-157.989746094,0.0204550009221,1.0,0.0,0.0,0.0,1.0,0.0,0.0,0.0,1.0,53.3536605835,-52.1951255798,-42.5,1.0,0.0,0.0,0.0,1.0,0.0,0.0,0.0,1.0,-0.612915625,-15.8544033936,-14.7961662598,1.0,0.0,0.0,0.0,1.0,0.0,0.0,0.0,1.0
1463923074383977652,595,1463923074351198990,,8.1944694519,28.2488822937,-158.48789978,0.0203520003706,1.0,0.0,0.0,0.0,1.0,0.0,0.0,0.0,1.0,63.1707305908,-10.3048782349,-18.1707305908,1.0,0.0,0.0,0.0,1.0,0.0,0.0,0.0,1.0,-3.89776030273,-2.95923325195,20.1160823486,1.0,0.0,0.0,0.0,1.0,0.0,0.0,0.0,1.0
1463923074412327323,596,1463923074372251557,,7.18958234787,28.0588798523,-159.049789429,0.0204160008579,1.0,0.0,0.0,0.0,1.0,0.0,0.0,0.0,1.0,15.7317075729,-26.8902454376,-14.5731706619,1.0,0.0,0.0,0.0,1.0,0.0,0.0,0.0,1.0,3.79720383301,0.287304199219,6.7660138916,1.0,0.0,0.0,0.0,1.0,0.0,0.0,0.0,1.0
1463923074412599093,597,1463923074392147305,,7.58961582184,26.6651248932,-159.046554565,0.0204089991748,1.0,0.0,0.0,0.0,1.0,0.0,0.0,0.0,1.0,-12.8658542633,18.1707305908,-2.92682933807,1.0,0.0,0.0,0.0,1.0,0.0,0.0,0.0,1.0,-1.01035310059,-22.4767651855,17.1999458956,1.0,0.0,0.0,0.0,1.0,0.0,0.0,0.0,1.0
1463923074448395814,598,1463923074412377791,,8.32764625549,25.1923217773,-159.08164978,0.0203949995339,1.0,0.0,0.0,0.0,1.0,0.0,0.0,0.0,1.0,-75.0609817505,18.7804889679,-12.8658542633,1.0,0.0,0.0,0.0,1.0,0.0,0.0,0.0,1.0,-6.38294162598,8.72925925293,15.069105249,1.0,0.0,0.0,0.0,1.0,0.0,0.0,0.0,1.0
1463923074448441439,599,1463923074432926454,,8.35105705261,23.9531002045,-159.199417114,0.0204869993031,1.0,0.0,0.0,0.0,1.0,0.0,0.0,0.0,1.0,-46.1585388184,-4.39024400711,-3.47560977936,1.0,0.0,0.0,0.0,1.0,0.0,0.0,0.0,1.0,-1.83395847168,1.92014973145,9.78749638672,1.0,0.0,0.0,0.0,1.0,0.0,0.0,0.0,1.0
1463923074498754610,600,1463923074453479751,,8.70349025726,24.820230484,-159.636703491,0.0203300006688,1.0,0.0,0.0,0.0,1.0,0.0,0.0,0.0,1.0,-7.31707334518,-9.02439117432,-29.3292694092,1.0,0.0,0.0,0.0,1.0,0.0,0.0,0.0,1.0,-3.33272871094,12.8999585449,-2.62404501953,1.0,0.0,0.0,0.0,1.0,0.0,0.0,0.0,1.0
1463923074499033306,601,1463923074473613207,,8.75706481934,27.9852981567,-159.388687134,0.0204370003194,1.0,0.0,0.0,0.0,1.0,0.0,0.0,0.0,1.0,97.2561035156,1.8292683363,1.2195122242,1.0,0.0,0.0,0.0,1.0,0.0,0.0,0.0,1.0,0.248996972656,23.5828863525,-14.0395985352,1.0,0.0,0.0,0.0,1.0,0.0,0.0,0.0,1.0
1463923074545157172,602,1463923074494105150,,8.8112077713,32.3947410583,-159.171981812,0.0203939992934,1.0,0.0,0.0,0.0,1.0,0.0,0.0,0.0,1.0,197.378051758,15.1829271317,-1.09756100178,1.0,0.0,0.0,0.0,1.0,0.0,0.0,0.0,1.0,3.84029946289,39.092524707,37.4884119328,1.0,0.0,0.0,0.0,1.0,0.0,0.0,0.0,1.0
1463923074545447483,603,1463923074514467928,,7.6136469841,31.5583648682,-161.727264404,0.020408000797,1.0,0.0,0.0,0.0,1.0,0.0,0.0,0.0,1.0,9.51219558716,-130.182922363,-59.390247345,1.0,0.0,0.0,0.0,1.0,0.0,0.0,0.0,1.0,-8.38928203267,-35.8316220459,-13.48414375,1.0,0.0,0.0,0.0,1.0,0.0,0.0,0.0,1.0
1463923074568278167,604,1463923074535130860,,7.75934839249,29.0845508575,-161.872695923,0.0204150006175,1.0,0.0,0.0,0.0,1.0,0.0,0.0,0.0,1.0,-85.7926864624,6.09756088257,-8.17073154449,1.0,0.0,0.0,0.0,1.0,0.0,0.0,0.0,1.0,-0.521935925381,-1.25935007324,11.5783592285,1.0,0.0,0.0,0.0,1.0,0.0,0.0,0.0,1.0
1463923074568557488,605,1463923074555309055,,7.76646232605,28.2343978882,-162.274154663,0.0204550009221,1.0,0.0,0.0,0.0,1.0,0.0,0.0,0.0,1.0,-20.4268302917,-7.31707334518,-16.8292694092,1.0,0.0,0.0,0.0,1.0,0.0,0.0,0.0,1.0,-0.550666381836,1.1540052002,6.60799658203,1.0,0.0,0.0,0.0,1.0,0.0,0.0,0.0,1.0
1463923074607704821,606,1463923074575776572,,7.40161514282,27.7558765411,-162.755157471,0.0204189997166,1.0,0.0,0.0,0.0,1.0,0.0,0.0,0.0,1.0,29.0243911743,-27.1951236725,-5.73170757294,1.0,0.0,0.0,0.0,1.0,0.0,0.0,0.0,1.0,0.210689746094,-7.60398447266,0.0191536132812,1.0,0.0,0.0,0.0,1.0,0.0,0.0,0.0,1.0
1463923074607750289,607,1463923074596046225,,6.93961811066,28.4447288513,-162.756591797,0.0203310009092,1.0,0.0,0.0,0.0,1.0,0.0,0.0,0.0,1.0,-16.158536911,-2.13414645195,-7.86585378647,1.0,0.0,0.0,0.0,1.0,0.0,0.0,0.0,1.0,6.39251843262,11.9662198975,-4.5968671875,1.0,0.0,0.0,0.0,1.0,0.0,0.0,0.0,1.0
1463923074666148790,608,1463923074616660355,,6.48245573044,31.3392982483,-162.679351807,0.0204380005598,1.0,0.0,0.0,0.0,1.0,0.0,0.0,0.0,1.0,155.0,-10.7317075729,10.9756097794,1.0,0.0,0.0,0.0,1.0,0.0,0.0,0.0,1.0,1.54665427246,9.46188437642,36.8515519531,1.0,0.0,0.0,0.0,1.0,0.0,0.0,0.0,1.0
1463923074666428528,609,1463923074636927404,,8.48113250732,29.7993564606,-162.437973022,0.0203900001943,1.0,0.0,0.0,0.0,1.0,0.0,0.0,0.0,1.0,-53.9634170532,46.9512214661,-12.0731716156,1.0,0.0,0.0,0.0,1.0,0.0,0.0,0.0,1.0,-21.586122168,-7.03895288086,7.27837304687,1.0,0.0,0.0,0.0,1.0,0.0,0.0,0.0,1.0
1463923074702243427,610,1463923074657668774,,10.9037771225,26.1734085083,-161.939437866,0.0204119998962,1.0,0.0,0.0,0.0,1.0,0.0,0.0,0.0,1.0,-201.524398804,71.4024429321,-14.1463422775,1.0,0.0,0.0,0.0,1.0,0.0,0.0,0.0,1.0,-10.4291424316,5.17147558594,0.794874951172,1.0,0.0,0.0,0.0,1.0,0.0,0.0,0.0,1.0
1463923074702541447,611,1463923074681078101,,11.9716672897,21.2659626007,-161.543212891,0.0204050000757,1.0,0.0,0.0,0.0,1.0,0.0,0.0,0.0,1.0,-190.60975647,61.7682952881,3.23170733452,1.0,0.0,0.0,0.0,1.0,0.0,0.0,0.0,1.0,0.316034619141,-11.1809217529,9.43315395649,1.0,0.0,0.0,0.0,1.0,0.0,0.0,0.0,1.0
1463923074783086102,612,1463923074698910473,,12.1301364899,25.0253658295,-161.856155396,0.0204269997776,1.0,0.0,0.0,0.0,1.0,0.0,0.0,0.0,1.0,134.024398804,-13.1707324982,-24.6951236725,1.0,0.0,0.0,0.0,1.0,0.0,0.0,0.0,1.0,-6.4116720459,30.5021291504,-5.64552751465,1.0,0.0,0.0,0.0,1.0,0.0,0.0,0.0,1.0
1463923074783358601,613,1463923074718877106,,12.2459774017,26.9855041504,-161.482406616,0.0203949995339,1.0,0.0,0.0,0.0,1.0,0.0,0.0,0.0,1.0,57.7439041138,4.51219558716,7.68292665482,1.0,0.0,0.0,0.0,1.0,0.0,0.0,0.0,1.0,-4.58729038086,17.6452650663,8.26478413086,1.0,0.0,0.0,0.0,1.0,0.0,0.0,0.0,1.0
1463923074783631985,614,1463923074739590351,,10.7103805542,28.6011142731,-162.618331909,0.0204140003771,1.0,0.0,0.0,0.0,1.0,0.0,0.0,0.0,1.0,138.048782349,-68.7804870605,-14.3902444839,1.0,0.0,0.0,0.0,1.0,0.0,0.0,0.0,1.0,7.83861623535,-14.8727807129,3.55299526367,1.0,0.0,0.0,0.0,1.0,0.0,0.0,0.0,1.0
1463923074783890109,615,1463923074761551090,,11.2533569336,26.3668956757,-162.744781494,0.0216509997845,1.0,0.0,0.0,0.0,1.0,0.0,0.0,0.0,1.0,-50.2439041138,17.0731716156,-5.67073154449,1.0,0.0,0.0,0.0,1.0,0.0,0.0,0.0,1.0,-4.68784655832,-18.0905877441,19.8862389893,1.0,0.0,0.0,0.0,1.0,0.0,0.0,0.0,1.0
1463923074816890177,616,1463923074780412364,,11.4560012817,24.9482898712,-162.815567017,0.0191750004888,1.0,0.0,0.0,0.0,1.0,0.0,0.0,0.0,1.0,-39.3292694092,27.317073822,-11.4634151459,1.0,0.0,0.0,0.0,1.0,0.0,0.0,0.0,1.0,10.3908352051,-10.1131078125,46.5337034668,1.0,0.0,0.0,0.0,1.0,0.0,0.0,0.0,1.0
1463923074817149863,617,1463923074800852745,,12.036488533,20.8907146454,-162.872924805,0.0204140003771,1.0,0.0,0.0,0.0,1.0,0.0,0.0,0.0,1.0,-221.036590576,10.9146347046,-13.5975618362,1.0,0.0,0.0,0.0,1.0,0.0,0.0,0.0,1.0,-0.0526724365234,-0.0526724365234,-2.63841022949,1.0,0.0,0.0,0.0,1.0,0.0,0.0,0.0,1.0
1463923074850634563,618,1463923074821343699,,11.8490962982,23.4625377655,-163.704040527,0.0205220002681,1.0,0.0,0.0,0.0,1.0,0.0,0.0,0.0,1.0,145.365844727,-43.1097564697,-24.0853652954,1.0,0.0,0.0,0.0,1.0,0.0,0.0,0.0,1.0,-5.60722028809,1.01035310059,8.74362446289,1.0,0.0,0.0,0.0,1.0,0.0,0.0,0.0,1.0
