%time,field.header.seq,field.header.stamp,field.header.frame_id,field.orientation.x,field.orientation.y,field.orientation.z,field.orientation.w,field.orientation_covariance0,field.orientation_covariance1,field.orientation_covariance2,field.orientation_covariance3,field.orientation_covariance4,field.orientation_covariance5,field.orientation_covariance6,field.orientation_covariance7,field.orientation_covariance8,field.angular_velocity.x,field.angular_velocity.y,field.angular_velocity.z,field.angular_velocity_covariance0,field.angular_velocity_covariance1,field.angular_velocity_covariance2,field.angular_velocity_covariance3,field.angular_velocity_covariance4,field.angular_velocity_covariance5,field.angular_velocity_covariance6,field.angular_velocity_covariance7,field.angular_velocity_covariance8,field.linear_acceleration.x,field.linear_acceleration.y,field.linear_acceleration.z,field.linear_acceleration_covariance0,field.linear_acceleration_covariance1,field.linear_acceleration_covariance2,field.linear_acceleration_covariance3,field.linear_acceleration_covariance4,field.linear_acceleration_covariance5,field.linear_acceleration_covariance6,field.linear_acceleration_covariance7,field.linear_acceleration_covariance8
1464076540787739900,209,1464076540382797562,,-1.88022792339,-18.7174682617,-129.976333618,0.00125900004059,1.0,0.0,0.0,0.0,1.0,0.0,0.0,0.0,1.0,1.58536589146,3.65853667259,0.975609779358,1.0,0.0,0.0,0.0,1.0,0.0,0.0,0.0,1.0,-0.349553442383,-1.51792385254,10.1131078125,1.0,0.0,0.0,0.0,1.0,0.0,0.0,0.0,1.0
1464076540787851128,210,1464076540406606615,,-1.67609679699,-18.4983692169,-130.008224487,0.00865299999714,1.0,0.0,0.0,0.0,1.0,0.0,0.0,0.0,1.0,0.853658556938,3.29268312454,0.975609779358,1.0,0.0,0.0,0.0,1.0,0.0,0.0,0.0,1.0,-0.373495458984,-1.57059628906,10.2328178955,1.0,0.0,0.0,0.0,1.0,0.0,0.0,0.0,1.0
1464076540787898589,211,1464076540425147707,,-1.52299439907,-18.298204422,-130.053146362,0.00160700001288,1.0,0.0,0.0,0.0,1.0,0.0,0.0,0.0,1.0,0.0,1.95121955872,-0.670731723309,1.0,0.0,0.0,0.0,1.0,0.0,0.0,0.0,1.0,-0.277727392578,-1.69509477539,10.0843773926,1.0,0.0,0.0,0.0,1.0,0.0,0.0,0.0,1.0
1464076540787931567,212,1464076540451459533,,-1.35469782352,-18.0870361328,-130.131698608,0.00824599992484,1.0,0.0,0.0,0.0,1.0,0.0,0.0,0.0,1.0,-0.670731723309,1.58536589146,-1.15853655338,1.0,0.0,0.0,0.0,1.0,0.0,0.0,0.0,1.0,-0.272938989258,-1.7908628418,10.0556469727,1.0,0.0,0.0,0.0,1.0,0.0,0.0,0.0,1.0
1464076540787966837,213,1464076540474021524,,-1.27063715458,-17.9193191528,-130.215988159,0.0049899998121,1.0,0.0,0.0,0.0,1.0,0.0,0.0,0.0,1.0,-0.609756112099,1.8902438879,-2.98780488968,1.0,0.0,0.0,0.0,1.0,0.0,0.0,0.0,1.0,0.0,-1.7908628418,10.0843773926,1.0,0.0,0.0,0.0,1.0,0.0,0.0,0.0,1.0
1464076540788011798,214,1464076540495753911,,-1.12417566776,-17.7726268768,-130.299087524,0.00592700019479,1.0,0.0,0.0,0.0,1.0,0.0,0.0,0.0,1.0,-0.731707334518,4.20731735229,-1.15853655338,1.0,0.0,0.0,0.0,1.0,0.0,0.0,0.0,1.0,-0.435744702148,-1.80522805176,10.1035310059,1.0,0.0,0.0,0.0,1.0,0.0,0.0,0.0,1.0
1464076540788051600,215,1464076540517988312,,-0.897979974747,-17.6045513153,-130.35496521,0.0031940001063,1.0,0.0,0.0,0.0,1.0,0.0,0.0,0.0,1.0,-0.426829278469,4.45121955872,0.853658556938,1.0,0.0,0.0,0.0,1.0,0.0,0.0,0.0,1.0,-0.430956298828,-1.82438166504,10.2376062988,1.0,0.0,0.0,0.0,1.0,0.0,0.0,0.0,1.0
1464076540788114430,216,1464076540539745915,,-0.691666066647,-17.4403266907,-130.38848877,0.00210099993274,1.0,0.0,0.0,0.0,1.0,0.0,0.0,0.0,1.0,-0.914634168148,4.2682929039,0.670731723309,1.0,0.0,0.0,0.0,1.0,0.0,0.0,0.0,1.0,-0.469263525391,-1.74297880859,9.95987890625,1.0,0.0,0.0,0.0,1.0,0.0,0.0,0.0,1.0
1464076540788154806,217,1464076540563356789,,-0.558971941471,-17.284910202,-130.436553955,0.0022539999336,1.0,0.0,0.0,0.0,1.0,0.0,0.0,0.0,1.0,-1.46341466904,2.68292689323,-1.2195122242,1.0,0.0,0.0,0.0,1.0,0.0,0.0,0.0,1.0,-0.0335188255255,-1.71903679199,10.1418382324,1.0,0.0,0.0,0.0,1.0,0.0,0.0,0.0,1.0
1464076540788245664,218,1464076540583611790,,-0.43612074852,-17.1448287964,-130.50428772,0.00152399996296,1.0,0.0,0.0,0.0,1.0,0.0,0.0,0.0,1.0,-1.34146344662,3.53658556938,-1.03658533096,1.0,0.0,0.0,0.0,1.0,0.0,0.0,0.0,1.0,-0.268150604204,-1.69988317871,10.3477395752,1.0,0.0,0.0,0.0,1.0,0.0,0.0,0.0,1.0
1464076540788369709,219,1464076540604311238,,-0.296410620213,-17.0199794769,-130.572158813,0.00371000007726,1.0,0.0,0.0,0.0,1.0,0.0,0.0,0.0,1.0,-1.09756100178,4.08536577225,-0.853658556938,1.0,0.0,0.0,0.0,1.0,0.0,0.0,0.0,1.0,-0.124498486328,-1.81959326172,10.0843773926,1.0,0.0,0.0,0.0,1.0,0.0,0.0,0.0,1.0
1464076540788597271,220,1464076540625235590,,-0.149209067225,-16.8963527679,-130.638839722,0.00175000005402,1.0,0.0,0.0,0.0,1.0,0.0,0.0,0.0,1.0,-0.548780500889,3.23170733452,-1.46341466904,1.0,0.0,0.0,0.0,1.0,0.0,0.0,0.0,1.0,-0.134075302102,-1.76213242187,10.0939541992,1.0,0.0,0.0,0.0,1.0,0.0,0.0,0.0,1.0
1464076540788741790,221,1464076540646904731,,-0.0198399927467,-16.7506771088,-130.712036133,0.0014609999489,1.0,0.0,0.0,0.0,1.0,0.0,0.0,0.0,1.0,0.12195122242,2.98780488968,-1.2195122242,1.0,0.0,0.0,0.0,1.0,0.0,0.0,0.0,1.0,-0.15322890625,-1.65678754883,10.2376062988,1.0,0.0,0.0,0.0,1.0,0.0,0.0,0.0,1.0
1464076540788852029,222,1464076540667271639,,0.101289197803,-16.6106395721,-130.779327393,0.00126199994702,1.0,0.0,0.0,0.0,1.0,0.0,0.0,0.0,1.0,0.243902444839,4.57317066193,-0.426829278469,1.0,0.0,0.0,0.0,1.0,0.0,0.0,0.0,1.0,-0.0957680664062,-1.74776721191,10.2136642822,1.0,0.0,0.0,0.0,1.0,0.0,0.0,0.0,1.0
1464076540789020825,223,1464076540689785752,,0.276296317577,-16.4548931122,-130.834869385,0.00545099982992,1.0,0.0,0.0,0.0,1.0,0.0,0.0,0.0,1.0,0.365853667259,4.57317066193,-0.0609756112099,1.0,0.0,0.0,0.0,1.0,0.0,0.0,0.0,1.0,-0.143652099609,-1.74776721191,10.2136642822,1.0,0.0,0.0,0.0,1.0,0.0,0.0,0.0,1.0
1464076540789532268,224,1464076540710261336,,0.425599843264,-16.3063697815,-130.882019043,0.00138499995228,1.0,0.0,0.0,0.0,1.0,0.0,0.0,0.0,1.0,0.365853667259,4.08536577225,0.0,1.0,0.0,0.0,0.0,1.0,0.0,0.0,0.0,1.0,-0.373495458984,-1.68072956543,10.0843773926,1.0,0.0,0.0,0.0,1.0,0.0,0.0,0.0,1.0
1464076540789633754,225,1464076540731705936,,0.553619325161,-16.1628360748,-130.92010498,0.00123599998187,1.0,0.0,0.0,0.0,1.0,0.0,0.0,0.0,1.0,-0.304878056049,2.74390244484,0.0,1.0,0.0,0.0,0.0,1.0,0.0,0.0,0.0,1.0,-0.191536132812,-1.63763393555,9.97903251953,1.0,0.0,0.0,0.0,1.0,0.0,0.0,0.0,1.0
1464076540793212344,226,1464076540756745588,,0.694319784641,-16.022819519,-130.955673218,0.00772299990058,1.0,0.0,0.0,0.0,1.0,0.0,0.0,0.0,1.0,-0.914634168148,2.98780488968,0.792682945728,1.0,0.0,0.0,0.0,1.0,0.0,0.0,0.0,1.0,-0.268150604204,-1.70467158203,9.95987890625,1.0,0.0,0.0,0.0,1.0,0.0,0.0,0.0,1.0
1464076540805141616,227,1464076540777414193,,0.817949771881,-15.9190359116,-130.967666626,0.00132899999153,1.0,0.0,0.0,0.0,1.0,0.0,0.0,0.0,1.0,-0.792682945728,3.41463422775,1.58536589146,1.0,0.0,0.0,0.0,1.0,0.0,0.0,0.0,1.0,-0.196324536133,-1.74776721191,10.1466266357,1.0,0.0,0.0,0.0,1.0,0.0,0.0,0.0,1.0
1464076540842406821,228,1464076540800615110,,0.931654930115,-15.8028106689,-130.97026062,0.0024759999942,1.0,0.0,0.0,0.0,1.0,0.0,0.0,0.0,1.0,-0.0609756112099,3.59756112099,1.70731711388,1.0,0.0,0.0,0.0,1.0,0.0,0.0,0.0,1.0,-0.138863696289,-1.74776721191,10.0843773926,1.0,0.0,0.0,0.0,1.0,0.0,0.0,0.0,1.0
1464076540842466994,229,1464076540819339899,,1.0654335022,-15.6782398224,-130.970413208,0.00125900004059,1.0,0.0,0.0,0.0,1.0,0.0,0.0,0.0,1.0,-0.365853667259,2.98780488968,1.95121955872,1.0,0.0,0.0,0.0,1.0,0.0,0.0,0.0,1.0,-0.220266552734,-1.77649763184,10.1131078125,1.0,0.0,0.0,0.0,1.0,0.0,0.0,0.0,1.0
1464076540842545922,230,1464076540840608357,,1.21953868866,-15.5655221939,-130.955032349,0.00116600003093,1.0,0.0,0.0,0.0,1.0,0.0,0.0,0.0,1.0,-0.731707334518,3.35365867615,3.47560977936,1.0,0.0,0.0,0.0,1.0,0.0,0.0,0.0,1.0,-0.679953271484,-1.9105729248,10.0748005859,1.0,0.0,0.0,0.0,1.0,0.0,0.0,0.0,1.0
1464076540863221456,231,1464076540860942600,,1.32768857479,-15.4585981369,-130.928924561,0.00145600002725,1.0,0.0,0.0,0.0,1.0,0.0,0.0,0.0,1.0,-0.853658556938,1.03658533096,2.13414645195,1.0,0.0,0.0,0.0,1.0,0.0,0.0,0.0,1.0,-0.0814028564453,-1.6041151123,10.0795889893,1.0,0.0,0.0,0.0,1.0,0.0,0.0,0.0,1.0
1464076540899738173,232,1464076540883096301,,1.37692964077,-15.3528871536,-130.927749634,0.00152499997057,1.0,0.0,0.0,0.0,1.0,0.0,0.0,0.0,1.0,-1.2804877758,0.792682945728,0.792682945728,1.0,0.0,0.0,0.0,1.0,0.0,0.0,0.0,1.0,-0.148440512063,-1.69509477539,10.1992990723,1.0,0.0,0.0,0.0,1.0,0.0,0.0,0.0,1.0
1464076540926678453,233,1464076540905194675,,1.4545904398,-15.2621231079,-130.937454224,0.00202800007537,1.0,0.0,0.0,0.0,1.0,0.0,0.0,0.0,1.0,-1.70731711388,1.8292683363,0.853658556938,1.0,0.0,0.0,0.0,1.0,0.0,0.0,0.0,1.0,-0.282515795898,-1.71424838867,10.2232410889,1.0,0.0,0.0,0.0,1.0,0.0,0.0,0.0,1.0
1464076540941721447,234,1464076540926534663,,1.52404224873,-15.1691160202,-130.956939697,0.00190399994608,1.0,0.0,0.0,0.0,1.0,0.0,0.0,0.0,1.0,-2.07317066193,2.01219511032,0.0,1.0,0.0,0.0,0.0,1.0,0.0,0.0,0.0,1.0,-0.124498486328,-1.63763393555,10.1466266357,1.0,0.0,0.0,0.0,1.0,0.0,0.0,0.0,1.0
1464076541052407588,235,1464076540948543793,,1.60020804405,-15.0905513763,-130.989059448,0.00136200000998,1.0,0.0,0.0,0.0,1.0,0.0,0.0,0.0,1.0,-2.80487799644,1.70731711388,-0.670731723309,1.0,0.0,0.0,0.0,1.0,0.0,0.0,0.0,1.0,-0.325611425781,-1.59453830566,10.046070166,1.0,0.0,0.0,0.0,1.0,0.0,0.0,0.0,1.0
1464076541052500114,236,1464076540969524308,,1.66420900822,-15.0348424911,-131.036483765,0.00157099997159,1.0,0.0,0.0,0.0,1.0,0.0,0.0,0.0,1.0,-3.29268312454,1.70731711388,-1.46341466904,1.0,0.0,0.0,0.0,1.0,0.0,0.0,0.0,1.0,-0.263362164351,-1.61848032227,10.1753570557,1.0,0.0,0.0,0.0,1.0,0.0,0.0,0.0,1.0
1464076541052568779,237,1464076540990938014,,1.72179508209,-14.9847049713,-131.102111816,0.00149599998258,1.0,0.0,0.0,0.0,1.0,0.0,0.0,0.0,1.0,-2.74390244484,1.8902438879,-1.8902438879,1.0,0.0,0.0,0.0,1.0,0.0,0.0,0.0,1.0,-0.239420166016,-1.72382519531,10.1945106689,1.0,0.0,0.0,0.0,1.0,0.0,0.0,0.0,1.0
1464076541052715381,238,1464076541011457047,,1.78438591957,-14.9194898605,-131.172286987,0.00159400003031,1.0,0.0,0.0,0.0,1.0,0.0,0.0,0.0,1.0,-1.70731711388,2.43902444839,-1.95121955872,1.0,0.0,0.0,0.0,1.0,0.0,0.0,0.0,1.0,-0.148440512063,-1.69509477539,10.2615483154,1.0,0.0,0.0,0.0,1.0,0.0,0.0,0.0,1.0
1464076541052753517,239,1464076541038091669,,1.86064982414,-14.8471870422,-131.243545532,0.00153699994553,1.0,0.0,0.0,0.0,1.0,0.0,0.0,0.0,1.0,-1.2804877758,2.68292689323,-2.01219511032,1.0,0.0,0.0,0.0,1.0,0.0,0.0,0.0,1.0,-0.3064578125,-1.73819040527,10.1226846191,1.0,0.0,0.0,0.0,1.0,0.0,0.0,0.0,1.0
1464076541145722699,240,1464076541053955410,,1.93539774418,-14.762922287,-131.310592651,0.00127600005362,1.0,0.0,0.0,0.0,1.0,0.0,0.0,0.0,1.0,-0.792682945728,2.43902444839,-1.8292683363,1.0,0.0,0.0,0.0,1.0,0.0,0.0,0.0,1.0,-0.258573779297,-1.63763393555,10.0317049561,1.0,0.0,0.0,0.0,1.0,0.0,0.0,0.0,1.0
1464076541146012570,241,1464076541075090863,,2.011500597,-14.6665859222,-131.37322998,0.00165600003675,1.0,0.0,0.0,0.0,1.0,0.0,0.0,0.0,1.0,0.0609756112099,2.43902444839,-1.40243899822,1.0,0.0,0.0,0.0,1.0,0.0,0.0,0.0,1.0,-0.181959326172,-1.71903679199,10.285490332,1.0,0.0,0.0,0.0,1.0,0.0,0.0,0.0,1.0
1464076541146286291,242,1464076541095358160,,2.08330821991,-14.5706682205,-131.43019104,0.00198699999601,1.0,0.0,0.0,0.0,1.0,0.0,0.0,0.0,1.0,0.304878056049,1.64634156227,-1.58536589146,1.0,0.0,0.0,0.0,1.0,0.0,0.0,0.0,1.0,-0.296881024126,-1.87226569824,10.1514150391,1.0,0.0,0.0,0.0,1.0,0.0,0.0,0.0,1.0
1464076541146560117,243,1464076541117118368,,2.13125348091,-14.4558753967,-131.484313965,0.00127000000793,1.0,0.0,0.0,0.0,1.0,0.0,0.0,0.0,1.0,1.2804877758,0.914634168148,-1.40243899822,1.0,0.0,0.0,0.0,1.0,0.0,0.0,0.0,1.0,-0.3064578125,-1.69509477539,10.2519715088,1.0,0.0,0.0,0.0,1.0,0.0,0.0,0.0,1.0
1464076541147221236,244,1464076541137857878,,2.1913664341,-14.3314657211,-131.520217896,0.00139500002842,1.0,0.0,0.0,0.0,1.0,0.0,0.0,0.0,1.0,1.2804877758,1.8902438879,0.243902444839,1.0,0.0,0.0,0.0,1.0,0.0,0.0,0.0,1.0,-0.411802685547,-1.62326872559,10.1945106689,1.0,0.0,0.0,0.0,1.0,0.0,0.0,0.0,1.0
1464076541207238536,245,1464076541158758891,,2.24328923225,-14.204957962,-131.541122437,0.0015569999814,1.0,0.0,0.0,0.0,1.0,0.0,0.0,0.0,1.0,0.914634168148,1.58536589146,0.243902444839,1.0,0.0,0.0,0.0,1.0,0.0,0.0,0.0,1.0,-0.15801730957,-1.77649763184,10.0748005859,1.0,0.0,0.0,0.0,1.0,0.0,0.0,0.0,1.0
1464076541207518248,246,1464076541180497478,,2.29010176659,-14.0922260284,-131.562484741,0.00147200003266,1.0,0.0,0.0,0.0,1.0,0.0,0.0,0.0,1.0,0.365853667259,-0.853658556938,-1.09756100178,1.0,0.0,0.0,0.0,1.0,0.0,0.0,0.0,1.0,-0.258573779297,-1.69030637207,10.0652237793,1.0,0.0,0.0,0.0,1.0,0.0,0.0,0.0,1.0
1464076541207787750,247,1464076541201937598,,2.26140332222,-13.9895420074,-131.611923218,0.00127400003839,1.0,0.0,0.0,0.0,1.0,0.0,0.0,0.0,1.0,-0.487804889679,0.0,-1.2804877758,1.0,0.0,0.0,0.0,1.0,0.0,0.0,0.0,1.0,-0.292092584273,-1.49398183594,10.299855542,1.0,0.0,0.0,0.0,1.0,0.0,0.0,0.0,1.0
1464076541235615200,248,1464076541223885045,,2.35124230385,-13.9038591385,-131.623413086,0.00123299995903,1.0,0.0,0.0,0.0,1.0,0.0,0.0,0.0,1.0,0.0609756112099,1.46341466904,2.13414645195,1.0,0.0,0.0,0.0,1.0,0.0,0.0,0.0,1.0,-0.488417138672,-1.68551796875,9.79707319336,1.0,0.0,0.0,0.0,1.0,0.0,0.0,0.0,1.0
1464076541254398755,249,1464076541245402061,,2.41003847122,-13.815322876,-131.607376099,0.00240099988878,1.0,0.0,0.0,0.0,1.0,0.0,0.0,0.0,1.0,-1.58536589146,0.609756112099,1.2804877758,1.0,0.0,0.0,0.0,1.0,0.0,0.0,0.0,1.0,-0.426167895508,-1.70945998535,10.0700121826,1.0,0.0,0.0,0.0,1.0,0.0,0.0,0.0,1.0
1464076541272709733,250,1464076541266126202,,2.45017933846,-13.7438211441,-131.601852417,0.00176500005182,1.0,0.0,0.0,0.0,1.0,0.0,0.0,0.0,1.0,-0.792682945728,1.34146344662,1.95121955872,1.0,0.0,0.0,0.0,1.0,0.0,0.0,0.0,1.0,-0.497993945312,-1.63763393555,9.99818613281,1.0,0.0,0.0,0.0,1.0,0.0,0.0,0.0,1.0
1464076541290228513,251,1464076541287400807,,2.52197933197,-13.6817169189,-131.590667725,0.00161399994977,1.0,0.0,0.0,0.0,1.0,0.0,0.0,0.0,1.0,-0.914634168148,2.31707310677,1.95121955872,1.0,0.0,0.0,0.0,1.0,0.0,0.0,0.0,1.0,-0.354341845703,-1.75734401855,9.95030209961,1.0,0.0,0.0,0.0,1.0,0.0,0.0,0.0,1.0
1464076541316304388,252,1464076541308321982,,2.58210515976,-13.627623558,-131.569869995,0.00122199999169,1.0,0.0,0.0,0.0,1.0,0.0,0.0,0.0,1.0,-2.25609779358,-1.03658533096,-0.975609779358,1.0,0.0,0.0,0.0,1.0,0.0,0.0,0.0,1.0,0.0814028564453,-1.5562310791,10.2759135254,1.0,0.0,0.0,0.0,1.0,0.0,0.0,0.0,1.0
1464076541355218483,253,1464076541328695350,,2.47519922256,-13.5597362518,-131.64743042,0.00150599994231,1.0,0.0,0.0,0.0,1.0,0.0,0.0,0.0,1.0,-1.70731711388,0.731707334518,-4.14634132385,1.0,0.0,0.0,0.0,1.0,0.0,0.0,0.0,1.0,-0.196324536133,-1.54186586914,10.1897222656,1.0,0.0,0.0,0.0,1.0,0.0,0.0,0.0,1.0
1464076541383846154,254,1464076541352704927,,2.46539020538,-13.5165500641,-131.76725769,0.00120299996343,1.0,0.0,0.0,0.0,1.0,0.0,0.0,0.0,1.0,-1.09756100178,0.670731723309,-4.87804889679,1.0,0.0,0.0,0.0,1.0,0.0,0.0,0.0,1.0,0.0574608398438,-1.69030637207,9.91199487305,1.0,0.0,0.0,0.0,1.0,0.0,0.0,0.0,1.0
1464076541384172598,255,1464076541370618868,,2.56807017326,-13.4627561569,-131.851531982,0.00144899997395,1.0,0.0,0.0,0.0,1.0,0.0,0.0,0.0,1.0,-0.18292683363,5.0,-0.731707334518,1.0,0.0,0.0,0.0,1.0,0.0,0.0,0.0,1.0,-0.780509741211,-1.73340200195,9.71567033691,1.0,0.0,0.0,0.0,1.0,0.0,0.0,0.0,1.0
1464076541395366565,256,1464076541392895624,,2.67573261261,-13.3805627823,-131.89642334,0.00153000000864,1.0,0.0,0.0,0.0,1.0,0.0,0.0,0.0,1.0,0.914634168148,3.10975623131,-0.426829278469,1.0,0.0,0.0,0.0,1.0,0.0,0.0,0.0,1.0,-0.440533105469,-1.60890351563,9.88326445312,1.0,0.0,0.0,0.0,1.0,0.0,0.0,0.0,1.0
1464076541418639376,257,1464076541416743542,,2.75286650658,-13.2639217377,-131.93927002,0.00282999989577,1.0,0.0,0.0,0.0,1.0,0.0,0.0,0.0,1.0,0.914634168148,0.853658556938,-1.34146344662,1.0,0.0,0.0,0.0,1.0,0.0,0.0,0.0,1.0,-0.478840332031,-1.69988317871,10.2280294922,1.0,0.0,0.0,0.0,1.0,0.0,0.0,0.0,1.0
1464076541441933548,258,1464076541438453580,,2.77382612228,-13.1675367355,-131.990737915,0.00536500010639,1.0,0.0,0.0,0.0,1.0,0.0,0.0,0.0,1.0,0.975609779358,1.52439022064,-1.2195122242,1.0,0.0,0.0,0.0,1.0,0.0,0.0,0.0,1.0,-0.359130249023,-1.70467158203,10.3477395752,1.0,0.0,0.0,0.0,1.0,0.0,0.0,0.0,1.0
1464076541469546721,259,1464076541467919971,,2.82764029503,-13.0633153915,-132.03213501,0.0146949999034,1.0,0.0,0.0,0.0,1.0,0.0,0.0,0.0,1.0,0.548780500889,2.07317066193,0.243902444839,1.0,0.0,0.0,0.0,1.0,0.0,0.0,0.0,1.0,-0.191536132812,-1.77170922852,9.99339772949,1.0,0.0,0.0,0.0,1.0,0.0,0.0,0.0,1.0
1464076541490626168,260,1464076541486665391,,2.92914438248,-12.9806985855,-132.034683228,0.00165200000629,1.0,0.0,0.0,0.0,1.0,0.0,0.0,0.0,1.0,0.304878056049,1.76829278469,1.58536589146,1.0,0.0,0.0,0.0,1.0,0.0,0.0,0.0,1.0,-0.76135612793,-1.69988317871,10.046070166,1.0,0.0,0.0,0.0,1.0,0.0,0.0,0.0,1.0
1464076541511951048,261,1464076541509263538,,2.86184096336,-12.9249324799,-132.055038452,0.00450300006196,1.0,0.0,0.0,0.0,1.0,0.0,0.0,0.0,1.0,0.914634168148,-4.63414621353,-3.47560977936,1.0,0.0,0.0,0.0,1.0,0.0,0.0,0.0,1.0,0.258573779297,-1.65678754883,10.8744639404,1.0,0.0,0.0,0.0,1.0,0.0,0.0,0.0,1.0
1464076541535913737,262,1464076541533164751,,2.75817918777,-12.8346939087,-132.174423218,0.00562800001353,1.0,0.0,0.0,0.0,1.0,0.0,0.0,0.0,1.0,-0.18292683363,0.792682945728,-3.7804877758,1.0,0.0,0.0,0.0,1.0,0.0,0.0,0.0,1.0,-0.0430956298828,-1.51792385254,10.0221281494,1.0,0.0,0.0,0.0,1.0,0.0,0.0,0.0,1.0
1464076541558049465,263,1464076541554194185,,2.86310482025,-12.7824058533,-132.235290527,0.00477299978957,1.0,0.0,0.0,0.0,1.0,0.0,0.0,0.0,1.0,-1.2804877758,4.87804889679,1.2195122242,1.0,0.0,0.0,0.0,1.0,0.0,0.0,0.0,1.0,-0.555454785156,-1.75255561523,10.1274730225,1.0,0.0,0.0,0.0,1.0,0.0,0.0,0.0,1.0
1464076541582337556,264,1464076541574984647,,2.98770642281,-12.7192525864,-132.248626709,0.00180399999954,1.0,0.0,0.0,0.0,1.0,0.0,0.0,0.0,1.0,-0.426829278469,2.5,0.365853667259,1.0,0.0,0.0,0.0,1.0,0.0,0.0,0.0,1.0,-0.272938989258,-1.66636435547,9.98860932617,1.0,0.0,0.0,0.0,1.0,0.0,0.0,0.0,1.0
1464076541607528031,265,1464076541596744959,,3.03639817238,-12.6626014709,-132.265625,0.00209999992512,1.0,0.0,0.0,0.0,1.0,0.0,0.0,0.0,1.0,-1.76829278469,0.548780500889,-0.0609756112099,1.0,0.0,0.0,0.0,1.0,0.0,0.0,0.0,1.0,-0.330399829102,-1.70945998535,10.2471831055,1.0,0.0,0.0,0.0,1.0,0.0,0.0,0.0,1.0
1464076541619376396,266,1464076541617518228,,3.03863859177,-12.6307229996,-132.292984009,0.00127899996005,1.0,0.0,0.0,0.0,1.0,0.0,0.0,0.0,1.0,-1.34146344662,0.487804889679,-0.426829278469,1.0,0.0,0.0,0.0,1.0,0.0,0.0,0.0,1.0,-0.172382519531,-1.74297880859,10.3381627686,1.0,0.0,0.0,0.0,1.0,0.0,0.0,0.0,1.0
1464076541649731574,267,1464076541638256540,,3.05627036095,-12.6097822189,-132.31463623,0.00130000000354,1.0,0.0,0.0,0.0,1.0,0.0,0.0,0.0,1.0,-1.2195122242,1.8902438879,0.18292683363,1.0,0.0,0.0,0.0,1.0,0.0,0.0,0.0,1.0,-0.110133276367,-1.77649763184,10.0077629395,1.0,0.0,0.0,0.0,1.0,0.0,0.0,0.0,1.0
1464076541673079250,268,1464076541658998864,,3.09788298607,-12.5843229294,-132.338821411,0.00137800001539,1.0,0.0,0.0,0.0,1.0,0.0,0.0,0.0,1.0,-1.34146344662,2.56097555161,0.12195122242,1.0,0.0,0.0,0.0,1.0,0.0,0.0,0.0,1.0,-0.244208569336,-1.70945998535,10.0939541992,1.0,0.0,0.0,0.0,1.0,0.0,0.0,0.0,1.0
1464076541695617901,269,1464076541680798145,,3.15541577339,-12.5371599197,-132.37411499,0.00143199996091,1.0,0.0,0.0,0.0,1.0,0.0,0.0,0.0,1.0,-0.304878056049,2.80487799644,-0.792682945728,1.0,0.0,0.0,0.0,1.0,0.0,0.0,0.0,1.0,-0.15322890625,-1.64242233887,10.0412817627,1.0,0.0,0.0,0.0,1.0,0.0,0.0,0.0,1.0
1464076541703862410,270,1464076541702017423,,3.22768568993,-12.4831018448,-132.407791138,0.00143399997614,1.0,0.0,0.0,0.0,1.0,0.0,0.0,0.0,1.0,-0.0609756112099,3.7804877758,0.365853667259,1.0,0.0,0.0,0.0,1.0,0.0,0.0,0.0,1.0,-0.330399829102,-1.80522805176,9.91199487305,1.0,0.0,0.0,0.0,1.0,0.0,0.0,0.0,1.0
1464076541733859207,271,1464076541722264923,,3.33493614197,-12.4352350235,-132.41986084,0.00132799998391,1.0,0.0,0.0,0.0,1.0,0.0,0.0,0.0,1.0,-0.12195122242,4.20731735229,1.58536589146,1.0,0.0,0.0,0.0,1.0,0.0,0.0,0.0,1.0,-0.478840332031,-1.80043964844,10.1753570557,1.0,0.0,0.0,0.0,1.0,0.0,0.0,0.0,1.0
1464076541774654706,272,1464076541742886379,,3.33689379692,-12.3845043182,-132.452468872,0.00129499996547,1.0,0.0,0.0,0.0,1.0,0.0,0.0,0.0,1.0,0.243902444839,0.487804889679,-2.56097555161,1.0,0.0,0.0,0.0,1.0,0.0,0.0,0.0,1.0,0.421379492187,-1.47482822266,9.88326445312,1.0,0.0,0.0,0.0,1.0,0.0,0.0,0.0,1.0
1464076541774716807,273,1464076541764653933,,3.31156134605,-12.3424482346,-132.548416138,0.00200299988501,1.0,0.0,0.0,0.0,1.0,0.0,0.0,0.0,1.0,-1.76829278469,1.52439022064,-4.32926845551,1.0,0.0,0.0,0.0,1.0,0.0,0.0,0.0,1.0,-0.067037651051,-1.6041151123,10.3285859619,1.0,0.0,0.0,0.0,1.0,0.0,0.0,0.0,1.0
1464076541800635451,274,1464076541786145056,,3.35114860535,-12.3278541565,-132.641876221,0.00180399999954,1.0,0.0,0.0,0.0,1.0,0.0,0.0,0.0,1.0,-0.853658556938,4.93902444839,-0.792682945728,1.0,0.0,0.0,0.0,1.0,0.0,0.0,0.0,1.0,-0.474051928711,-1.74297880859,9.97424411621,1.0,0.0,0.0,0.0,1.0,0.0,0.0,0.0,1.0
1464076541811238786,275,1464076541807284156,,3.4600815773,-12.3006753922,-132.660598755,0.00130799994804,1.0,0.0,0.0,0.0,1.0,0.0,0.0,0.0,1.0,-0.304878056049,2.74390244484,1.15853655338,1.0,0.0,0.0,0.0,1.0,0.0,0.0,0.0,1.0,-0.632069238281,-1.838746875,10.524910498,1.0,0.0,0.0,0.0,1.0,0.0,0.0,0.0,1.0
1464076541840129029,276,1464076541829419154,,3.54810786247,-12.2705183029,-132.64440918,0.00144799996633,1.0,0.0,0.0,0.0,1.0,0.0,0.0,0.0,1.0,-2.25609779358,0.548780500889,1.09756100178,1.0,0.0,0.0,0.0,1.0,0.0,0.0,0.0,1.0,-0.330399829102,-1.69988317871,10.1035310059,1.0,0.0,0.0,0.0,1.0,0.0,0.0,0.0,1.0
1464076541863052995,277,1464076541850001434,,3.49745345116,-12.246090889,-132.683578491,0.00123599998187,1.0,0.0,0.0,0.0,1.0,0.0,0.0,0.0,1.0,-2.62195134163,1.52439022064,-1.09756100178,1.0,0.0,0.0,0.0,1.0,0.0,0.0,0.0,1.0,0.0287304199219,-1.65678754883,10.314220752,1.0,0.0,0.0,0.0,1.0,0.0,0.0,0.0,1.0
1464076541876684820,278,1464076541872567072,,3.51399683952,-12.2359342575,-132.73374939,0.00142999994569,1.0,0.0,0.0,0.0,1.0,0.0,0.0,0.0,1.0,-1.2804877758,3.35365867615,-0.365853667259,1.0,0.0,0.0,0.0,1.0,0.0,0.0,0.0,1.0,-0.392649072266,-1.8148048584,9.98382092285,1.0,0.0,0.0,0.0,1.0,0.0,0.0,0.0,1.0
1464076541895230861,279,1464076541893494811,,3.57611870766,-12.243850708,-132.772079468,0.00123699998949,1.0,0.0,0.0,0.0,1.0,0.0,0.0,0.0,1.0,-1.8902438879,2.92682933807,-0.487804889679,1.0,0.0,0.0,0.0,1.0,0.0,0.0,0.0,1.0,-0.253785375977,-1.71424838867,9.95987890625,1.0,0.0,0.0,0.0,1.0,0.0,0.0,0.0,1.0
1464076541955725011,280,1464076541924990146,,3.62157726288,-12.2192573547,-132.842453003,0.00880100019276,1.0,0.0,0.0,0.0,1.0,0.0,0.0,0.0,1.0,-1.2804877758,1.70731711388,-2.25609779358,1.0,0.0,0.0,0.0,1.0,0.0,0.0,0.0,1.0,-0.0861912597656,-1.52271225586,10.0652237793,1.0,0.0,0.0,0.0,1.0,0.0,0.0,0.0,1.0
1464076541955838376,281,1464076541945564559,,3.64153075218,-12.1960706711,-132.911026001,0.00216899998486,1.0,0.0,0.0,0.0,1.0,0.0,0.0,0.0,1.0,-1.8292683363,4.08536577225,-0.853658556938,1.0,0.0,0.0,0.0,1.0,0.0,0.0,0.0,1.0,-0.325611425781,-1.7908628418,10.060435376,1.0,0.0,0.0,0.0,1.0,0.0,0.0,0.0,1.0
1464076541974288610,282,1464076541965528543,,3.72370862961,-12.1815547943,-132.934280396,0.00167899997905,1.0,0.0,0.0,0.0,1.0,0.0,0.0,0.0,1.0,-1.8292683363,3.65853667259,0.609756112099,1.0,0.0,0.0,0.0,1.0,0.0,0.0,0.0,1.0,-0.105344873047,-1.73340200195,10.2088758789,1.0,0.0,0.0,0.0,1.0,0.0,0.0,0.0,1.0
1464076541998730442,283,1464076541986951210,,3.77422881126,-12.1654596329,-132.953430176,0.00236000004224,1.0,0.0,0.0,0.0,1.0,0.0,0.0,0.0,1.0,-1.70731711388,2.80487799644,0.487804889679,1.0,0.0,0.0,0.0,1.0,0.0,0.0,0.0,1.0,-0.191536132812,-1.63763393555,10.3573163818,1.0,0.0,0.0,0.0,1.0,0.0,0.0,0.0,1.0
1464076542011235133,284,1464076542008954141,,3.81506466866,-12.1574764252,-132.967041016,0.0016230000183,1.0,0.0,0.0,0.0,1.0,0.0,0.0,0.0,1.0,-1.76829278469,1.58536589146,0.853658556938,1.0,0.0,0.0,0.0,1.0,0.0,0.0,0.0,1.0,-0.138863696289,-1.76213242187,10.2280294922,1.0,0.0,0.0,0.0,1.0,0.0,0.0,0.0,1.0
1464076542065078130,285,1464076542031307950,,3.85574746132,-12.1450910568,-132.965026855,0.00189800001681,1.0,0.0,0.0,0.0,1.0,0.0,0.0,0.0,1.0,-1.8902438879,2.19512200356,1.58536589146,1.0,0.0,0.0,0.0,1.0,0.0,0.0,0.0,1.0,-0.402225878906,-1.82917006836,10.3956236084,1.0,0.0,0.0,0.0,1.0,0.0,0.0,0.0,1.0
1464076542065280581,286,1464076542051693560,,3.91918158531,-12.1215677261,-132.93157959,0.00249299989082,1.0,0.0,0.0,0.0,1.0,0.0,0.0,0.0,1.0,-1.46341466904,3.35365867615,4.32926845551,1.0,0.0,0.0,0.0,1.0,0.0,0.0,0.0,1.0,-0.900219824219,-1.8148048584,10.2615483154,1.0,0.0,0.0,0.0,1.0,0.0,0.0,0.0,1.0
1464076542095536877,287,1464076542075098075,,3.93530464172,-12.1165313721,-132.884017944,0.00210699997842,1.0,0.0,0.0,0.0,1.0,0.0,0.0,0.0,1.0,-1.09756100178,-3.29268312454,-0.426829278469,1.0,0.0,0.0,0.0,1.0,0.0,0.0,0.0,1.0,0.545877978516,-1.51792385254,10.0029745361,1.0,0.0,0.0,0.0,1.0,0.0,0.0,0.0,1.0
1464076542139990935,288,1464076542097139975,,3.84923315048,-12.1092205048,-132.919723511,0.00227400008589,1.0,0.0,0.0,0.0,1.0,0.0,0.0,0.0,1.0,-2.31707310677,1.03658533096,-0.0609756112099,1.0,0.0,0.0,0.0,1.0,0.0,0.0,0.0,1.0,-0.225054956055,-1.87705410156,10.2088758789,1.0,0.0,0.0,0.0,1.0,0.0,0.0,0.0,1.0
1464076542140030009,289,1464076542117956902,,3.86011862755,-12.0873060226,-132.950500488,0.00273600011133,1.0,0.0,0.0,0.0,1.0,0.0,0.0,0.0,1.0,-1.15853655338,2.01219511032,-0.487804889679,1.0,0.0,0.0,0.0,1.0,0.0,0.0,0.0,1.0,0.105344873047,-1.61369191895,10.0556469727,1.0,0.0,0.0,0.0,1.0,0.0,0.0,0.0,1.0
1464076542146435886,290,1464076542138746374,,3.8892595768,-12.0696220398,-132.986022949,0.00180099997669,1.0,0.0,0.0,0.0,1.0,0.0,0.0,0.0,1.0,-1.09756100178,2.5,-1.15853655338,1.0,0.0,0.0,0.0,1.0,0.0,0.0,0.0,1.0,-0.263362164351,-1.64242233887,10.1418382324,1.0,0.0,0.0,0.0,1.0,0.0,0.0,0.0,1.0
1464076542163009510,291,1464076542160716588,,3.89620876312,-12.0374526978,-133.036651611,0.00150899996515,1.0,0.0,0.0,0.0,1.0,0.0,0.0,0.0,1.0,-1.03658533096,2.68292689323,-1.09756100178,1.0,0.0,0.0,0.0,1.0,0.0,0.0,0.0,1.0,-0.114921679688,-1.73340200195,10.2040874756,1.0,0.0,0.0,0.0,1.0,0.0,0.0,0.0,1.0
1464076542307142670,292,1464076542181789002,,3.92411828041,-11.9963502884,-133.083877563,0.00163900002372,1.0,0.0,0.0,0.0,1.0,0.0,0.0,0.0,1.0,-0.365853667259,2.31707310677,-0.914634168148,1.0,0.0,0.0,0.0,1.0,0.0,0.0,0.0,1.0,-0.220266552734,-1.71903679199,10.1274730225,1.0,0.0,0.0,0.0,1.0,0.0,0.0,0.0,1.0
1464076542307510427,293,1464076542203637411,,3.95595169067,-11.9600009918,-133.124984741,0.00179999996908,1.0,0.0,0.0,0.0,1.0,0.0,0.0,0.0,1.0,-1.15853655338,3.10975623131,-0.548780500889,1.0,0.0,0.0,0.0,1.0,0.0,0.0,0.0,1.0,-0.234631762695,-1.63763393555,10.1226846191,1.0,0.0,0.0,0.0,1.0,0.0,0.0,0.0,1.0
1464076542307787118,294,1464076542224610736,,3.987657547,-11.9460668564,-133.173217773,0.00221799989231,1.0,0.0,0.0,0.0,1.0,0.0,0.0,0.0,1.0,-0.792682945728,2.25609779358,-1.03658533096,1.0,0.0,0.0,0.0,1.0,0.0,0.0,0.0,1.0,-0.0335188255255,-1.80522805176,9.95987890625,1.0,0.0,0.0,0.0,1.0,0.0,0.0,0.0,1.0
1464076542308008846,295,1464076542245560252,,4.00741481781,-11.9243860245,-133.232376099,0.00225899997167,1.0,0.0,0.0,0.0,1.0,0.0,0.0,0.0,1.0,-0.670731723309,1.46341466904,-1.70731711388,1.0,0.0,0.0,0.0,1.0,0.0,0.0,0.0,1.0,-0.15322890625,-1.69988317871,10.0221281494,1.0,0.0,0.0,0.0,1.0,0.0,0.0,0.0,1.0
1464076542308049690,296,1464076542266900188,,4.01260280609,-11.8933591843,-133.285446167,0.00314399995841,1.0,0.0,0.0,0.0,1.0,0.0,0.0,0.0,1.0,-0.365853667259,0.792682945728,-1.40243899822,1.0,0.0,0.0,0.0,1.0,0.0,0.0,0.0,1.0,-0.129286889648,-1.56101948242,10.0125513428,1.0,0.0,0.0,0.0,1.0,0.0,0.0,0.0,1.0
1464076542308323307,297,1464076542287800680,,4.0021109581,-11.8535957336,-133.329467773,0.00178399996366,1.0,0.0,0.0,0.0,1.0,0.0,0.0,0.0,1.0,0.487804889679,1.76829278469,-0.548780500889,1.0,0.0,0.0,0.0,1.0,0.0,0.0,0.0,1.0,-0.263362164351,-1.67594116211,10.0652237793,1.0,0.0,0.0,0.0,1.0,0.0,0.0,0.0,1.0
1464076542407585575,298,1464076542308409425,,4.00204467773,-11.8035535812,-133.355484009,0.00134099996649,1.0,0.0,0.0,0.0,1.0,0.0,0.0,0.0,1.0,0.304878056049,1.8902438879,-0.12195122242,1.0,0.0,0.0,0.0,1.0,0.0,0.0,0.0,1.0,-0.148440512063,-1.79565124512,10.0748005859,1.0,0.0,0.0,0.0,1.0,0.0,0.0,0.0,1.0
1464076542407849346,299,1464076542329747746,,4.01493692398,-11.7566194534,-133.367950439,0.00189399998635,1.0,0.0,0.0,0.0,1.0,0.0,0.0,0.0,1.0,-0.18292683363,1.15853655338,0.426829278469,1.0,0.0,0.0,0.0,1.0,0.0,0.0,0.0,1.0,-0.196324536133,-1.74297880859,10.0269165527,1.0,0.0,0.0,0.0,1.0,0.0,0.0,0.0,1.0
1464076542410831677,300,1464076542351916764,,4.01839828491,-11.7198514938,-133.372406006,0.00188600004185,1.0,0.0,0.0,0.0,1.0,0.0,0.0,0.0,1.0,-0.670731723309,1.03658533096,1.15853655338,1.0,0.0,0.0,0.0,1.0,0.0,0.0,0.0,1.0,-0.239420166016,-1.52750065918,9.95030209961,1.0,0.0,0.0,0.0,1.0,0.0,0.0,0.0,1.0
1464076542412051284,301,1464076542372735619,,4.04623126984,-11.6849002838,-133.356414795,0.00188899994828,1.0,0.0,0.0,0.0,1.0,0.0,0.0,0.0,1.0,-0.609756112099,0.243902444839,1.58536589146,1.0,0.0,0.0,0.0,1.0,0.0,0.0,0.0,1.0,-0.282515795898,-1.73340200195,10.0652237793,1.0,0.0,0.0,0.0,1.0,0.0,0.0,0.0,1.0
1464076542559775327,302,1464076542394912296,,4.03728914261,-11.6568574905,-133.339859009,0.0017269999953,1.0,0.0,0.0,0.0,1.0,0.0,0.0,0.0,1.0,-0.487804889679,-0.792682945728,0.914634168148,1.0,0.0,0.0,0.0,1.0,0.0,0.0,0.0,1.0,-0.239420166016,-1.85311208496,10.0748005859,1.0,0.0,0.0,0.0,1.0,0.0,0.0,0.0,1.0
1464076542560279216,303,1464076542416042955,,3.97288799286,-11.6219444275,-133.349502563,0.00197999994271,1.0,0.0,0.0,0.0,1.0,0.0,0.0,0.0,1.0,-0.243902444839,-0.365853667259,-0.426829278469,1.0,0.0,0.0,0.0,1.0,0.0,0.0,0.0,1.0,-0.0718260498047,-1.59932670898,10.1514150391,1.0,0.0,0.0,0.0,1.0,0.0,0.0,0.0,1.0
1464076542560330897,304,1464076542438039843,,3.93148994446,-11.5974683762,-133.377716064,0.00281199999154,1.0,0.0,0.0,0.0,1.0,0.0,0.0,0.0,1.0,-0.426829278469,-0.304878056049,-0.853658556938,1.0,0.0,0.0,0.0,1.0,0.0,0.0,0.0,1.0,0.229843359375,-1.34554133301,9.85932243652,1.0,0.0,0.0,0.0,1.0,0.0,0.0,0.0,1.0
1464076542560659946,305,1464076542459651780,,3.86481380463,-11.567322731,-133.439453125,0.00149299995974,1.0,0.0,0.0,0.0,1.0,0.0,0.0,0.0,1.0,0.487804889679,1.58536589146,-2.5,1.0,0.0,0.0,0.0,1.0,0.0,0.0,0.0,1.0,0.00478840332031,-1.8148048584,10.0077629395,1.0,0.0,0.0,0.0,1.0,0.0,0.0,0.0,1.0
1464076542561023223,306,1464076542480938785,,3.91370415688,-11.5279626846,-133.495635986,0.00185799994506,1.0,0.0,0.0,0.0,1.0,0.0,0.0,0.0,1.0,0.426829278469,4.39024400711,-0.0609756112099,1.0,0.0,0.0,0.0,1.0,0.0,0.0,0.0,1.0,-0.593762048251,-2.10689731481,10.524910498,1.0,0.0,0.0,0.0,1.0,0.0,0.0,0.0,1.0
1464076542561070579,307,1464076542503520469,,4.02243423462,-11.4790534973,-133.505050659,0.00195800000802,1.0,0.0,0.0,0.0,1.0,0.0,0.0,0.0,1.0,1.2195122242,3.90243911743,1.76829278469,1.0,0.0,0.0,0.0,1.0,0.0,0.0,0.0,1.0,-0.263362164351,-1.85311208496,10.060435376,1.0,0.0,0.0,0.0,1.0,0.0,0.0,0.0,1.0
1464076542562809964,308,1464076542525753724,,4.08557796478,-11.4323806763,-133.507980347,0.00241099996492,1.0,0.0,0.0,0.0,1.0,0.0,0.0,0.0,1.0,-0.426829278469,-0.18292683363,-0.548780500889,1.0,0.0,0.0,0.0,1.0,0.0,0.0,0.0,1.0,-0.15801730957,-1.5322890625,10.2471831055,1.0,0.0,0.0,0.0,1.0,0.0,0.0,0.0,1.0
1464076543331367797,309,1464076542547353575,,3.9521548748,-11.381152153,-133.605911255,0.00340500008315,1.0,0.0,0.0,0.0,1.0,0.0,0.0,0.0,1.0,-0.487804889679,-0.304878056049,-5.60975599289,1.0,0.0,0.0,0.0,1.0,0.0,0.0,0.0,1.0,0.392649072266,-1.86747729492,10.4913916748,1.0,0.0,0.0,0.0,1.0,0.0,0.0,0.0,1.0
1464076543331410153,310,1464076542569312431,,3.91412711143,-11.366189003,-133.728515625,0.00246999994852,1.0,0.0,0.0,0.0,1.0,0.0,0.0,0.0,1.0,0.12195122242,2.31707310677,-3.35365867615,1.0,0.0,0.0,0.0,1.0,0.0,0.0,0.0,1.0,0.0,-2.13083962367,10.419565625,1.0,0.0,0.0,0.0,1.0,0.0,0.0,0.0,1.0
1464076543331536906,311,1464076542589684444,,3.98135995865,-11.3480176926,-133.783782959,0.0013269999763,1.0,0.0,0.0,0.0,1.0,0.0,0.0,0.0,1.0,0.792682945728,3.23170733452,-0.731707334518,1.0,0.0,0.0,0.0,1.0,0.0,0.0,0.0,1.0,-0.550666381836,-1.82917006836,9.84016882324,1.0,0.0,0.0,0.0,1.0,0.0,0.0,0.0,1.0
1464076543331581033,312,1464076542610451306,,3.99180960655,-11.2977428436,-133.834182739,0.00175900000613,1.0,0.0,0.0,0.0,1.0,0.0,0.0,0.0,1.0,0.792682945728,1.03658533096,-1.40243899822,1.0,0.0,0.0,0.0,1.0,0.0,0.0,0.0,1.0,-0.234631762695,-1.59453830566,9.98860932617,1.0,0.0,0.0,0.0,1.0,0.0,0.0,0.0,1.0
1464076543334706477,313,1464076542631495900,,3.98348498344,-11.2566556931,-133.876525879,0.00176300003659,1.0,0.0,0.0,0.0,1.0,0.0,0.0,0.0,1.0,0.365853667259,0.0,-0.914634168148,1.0,0.0,0.0,0.0,1.0,0.0,0.0,0.0,1.0,-0.181959326172,-1.71424838867,10.0221281494,1.0,0.0,0.0,0.0,1.0,0.0,0.0,0.0,1.0
1464076543334769046,314,1464076542654935112,,3.9712035656,-11.2329397202,-133.893203735,0.00181899999734,1.0,0.0,0.0,0.0,1.0,0.0,0.0,0.0,1.0,0.853658556938,1.76829278469,1.2195122242,1.0,0.0,0.0,0.0,1.0,0.0,0.0,0.0,1.0,-0.225054956055,-2.14999323695,10.4004120117,1.0,0.0,0.0,0.0,1.0,0.0,0.0,0.0,1.0
1464076543334809370,315,1464076542677847824,,3.98307156563,-11.1906299591,-133.872512817,0.00435299985111,1.0,0.0,0.0,0.0,1.0,0.0,0.0,0.0,1.0,1.40243899822,1.95121955872,2.31707310677,1.0,0.0,0.0,0.0,1.0,0.0,0.0,0.0,1.0,-0.287304199219,-1.65678754883,9.98860932617,1.0,0.0,0.0,0.0,1.0,0.0,0.0,0.0,1.0
1464076543334852090,316,1464076542699311023,,3.96681714058,-11.1515846252,-133.865005493,0.00379200000316,1.0,0.0,0.0,0.0,1.0,0.0,0.0,0.0,1.0,0.426829278469,-0.670731723309,0.243902444839,1.0,0.0,0.0,0.0,1.0,0.0,0.0,0.0,1.0,-0.0335188255255,-1.67594116211,9.96945571289,1.0,0.0,0.0,0.0,1.0,0.0,0.0,0.0,1.0
1464076543334888767,317,1464076542720446632,,3.91391682625,-11.11627388,-133.890594482,0.00203599990346,1.0,0.0,0.0,0.0,1.0,0.0,0.0,0.0,1.0,0.609756112099,-0.975609779358,-0.670731723309,1.0,0.0,0.0,0.0,1.0,0.0,0.0,0.0,1.0,-0.253785375977,-1.72861359863,10.2232410889,1.0,0.0,0.0,0.0,1.0,0.0,0.0,0.0,1.0
1464076543335509510,318,1464076542741850752,,3.87400102615,-11.0786123276,-133.915039062,0.0019499999471,1.0,0.0,0.0,0.0,1.0,0.0,0.0,0.0,1.0,0.487804889679,-0.487804889679,-0.731707334518,1.0,0.0,0.0,0.0,1.0,0.0,0.0,0.0,1.0,-0.0909796630859,-1.68551796875,10.1035310059,1.0,0.0,0.0,0.0,1.0,0.0,0.0,0.0,1.0
1464076543335555096,319,1464076542763636123,,3.84878730774,-11.0562753677,-133.94934082,0.00199800007977,1.0,0.0,0.0,0.0,1.0,0.0,0.0,0.0,1.0,0.0609756112099,1.09756100178,-0.975609779358,1.0,0.0,0.0,0.0,1.0,0.0,0.0,0.0,1.0,-0.248996972656,-1.838746875,10.165780249,1.0,0.0,0.0,0.0,1.0,0.0,0.0,0.0,1.0
1464076543335591668,320,1464076542785889488,,3.82618451118,-11.0276851654,-134.008102417,0.00325400009751,1.0,0.0,0.0,0.0,1.0,0.0,0.0,0.0,1.0,0.792682945728,0.365853667259,-2.86585378647,1.0,0.0,0.0,0.0,1.0,0.0,0.0,0.0,1.0,0.239420166016,-1.8626888916,10.2759135254,1.0,0.0,0.0,0.0,1.0,0.0,0.0,0.0,1.0
1464076543335626886,321,1464076542808007919,,3.82299470901,-11.0005722046,-134.107131958,0.0022450000979,1.0,0.0,0.0,0.0,1.0,0.0,0.0,0.0,1.0,0.243902444839,3.17073178291,-2.80487799644,1.0,0.0,0.0,0.0,1.0,0.0,0.0,0.0,1.0,-0.373495458984,-1.74297880859,10.3333743652,1.0,0.0,0.0,0.0,1.0,0.0,0.0,0.0,1.0
1464076543335742960,322,1464076542829657159,,3.89102506638,-10.9760370255,-134.166778564,0.00150899996515,1.0,0.0,0.0,0.0,1.0,0.0,0.0,0.0,1.0,0.18292683363,3.17073178291,-1.40243899822,1.0,0.0,0.0,0.0,1.0,0.0,0.0,0.0,1.0,-0.330399829102,-1.78128603516,10.0652237793,1.0,0.0,0.0,0.0,1.0,0.0,0.0,0.0,1.0
1464076543335785263,323,1464076542851197150,,3.92442154884,-10.9547939301,-134.220169067,0.00193200004287,1.0,0.0,0.0,0.0,1.0,0.0,0.0,0.0,1.0,-0.243902444839,1.70731711388,-1.64634156227,1.0,0.0,0.0,0.0,1.0,0.0,0.0,0.0,1.0,-0.167594116211,-1.63763393555,10.0891657959,1.0,0.0,0.0,0.0,1.0,0.0,0.0,0.0,1.0
1464076543336046898,324,1464076542871942183,,3.94356775284,-10.9447202682,-134.273895264,0.00202900008298,1.0,0.0,0.0,0.0,1.0,0.0,0.0,0.0,1.0,-1.2804877758,1.8902438879,-1.09756100178,1.0,0.0,0.0,0.0,1.0,0.0,0.0,0.0,1.0,-0.253785375977,-1.70467158203,10.2711251221,1.0,0.0,0.0,0.0,1.0,0.0,0.0,0.0,1.0
1464076543336282275,325,1464076542895273031,,3.94600462914,-10.9526672363,-134.319335938,0.00175900000613,1.0,0.0,0.0,0.0,1.0,0.0,0.0,0.0,1.0,-1.76829278469,1.40243899822,-1.15853655338,1.0,0.0,0.0,0.0,1.0,0.0,0.0,0.0,1.0,-0.110133276367,-1.71903679199,10.2136642822,1.0,0.0,0.0,0.0,1.0,0.0,0.0,0.0,1.0
1464076543336526040,326,1464076542916420518,,3.95211410522,-10.9740858078,-134.355957031,0.00319100008346,1.0,0.0,0.0,0.0,1.0,0.0,0.0,0.0,1.0,-2.01219511032,1.40243899822,-0.487804889679,1.0,0.0,0.0,0.0,1.0,0.0,0.0,0.0,1.0,-0.172382519531,-1.72861359863,9.7827079834,1.0,0.0,0.0,0.0,1.0,0.0,0.0,0.0,1.0
1464076543336768190,327,1464076542938163221,,3.91894507408,-10.9906320572,-134.425704956,0.0032689999789,1.0,0.0,0.0,0.0,1.0,0.0,0.0,0.0,1.0,-1.09756100178,2.68292689323,-2.25609779358,1.0,0.0,0.0,0.0,1.0,0.0,0.0,0.0,1.0,0.0239420166016,-1.87226569824,10.1131078125,1.0,0.0,0.0,0.0,1.0,0.0,0.0,0.0,1.0
1464076543337009767,328,1464076542960891143,,4.00488901138,-11.0168886185,-134.459747314,0.0019570000004,1.0,0.0,0.0,0.0,1.0,0.0,0.0,0.0,1.0,-0.548780500889,4.02439022064,1.34146344662,1.0,0.0,0.0,0.0,1.0,0.0,0.0,0.0,1.0,-0.60812722168,-2.13083962367,10.419565625,1.0,0.0,0.0,0.0,1.0,0.0,0.0,0.0,1.0
1464076543337247176,329,1464076542983062089,,4.09141540527,-10.9827289581,-134.446243286,0.00219299993478,1.0,0.0,0.0,0.0,1.0,0.0,0.0,0.0,1.0,0.365853667259,3.23170733452,2.01219511032,1.0,0.0,0.0,0.0,1.0,0.0,0.0,0.0,1.0,-0.114921679688,-1.69988317871,10.180145459,1.0,0.0,0.0,0.0,1.0,0.0,0.0,0.0,1.0
1464076543337662915,330,1464076543005388495,,4.1177406311,-10.958735466,-134.451889038,0.00192299997434,1.0,0.0,0.0,0.0,1.0,0.0,0.0,0.0,1.0,0.12195122242,2.25609779358,0.0,1.0,0.0,0.0,0.0,1.0,0.0,0.0,0.0,1.0,-0.320823022461,-1.67594116211,9.95509050293,1.0,0.0,0.0,0.0,1.0,0.0,0.0,0.0,1.0
1464076543337732935,331,1464076543025626721,,4.11816310883,-10.9395017624,-134.483184814,0.00918599963188,1.0,0.0,0.0,0.0,1.0,0.0,0.0,0.0,1.0,-0.243902444839,2.01219511032,-0.609756112099,1.0,0.0,0.0,0.0,1.0,0.0,0.0,0.0,1.0,-0.0287304199219,-1.81959326172,10.4243540283,1.0,0.0,0.0,0.0,1.0,0.0,0.0,0.0,1.0
1464076543337773467,332,1464076543046084956,,4.11836957932,-10.9045209885,-134.529083252,0.00271399994381,1.0,0.0,0.0,0.0,1.0,0.0,0.0,0.0,1.0,0.853658556938,2.25609779358,-1.64634156227,1.0,0.0,0.0,0.0,1.0,0.0,0.0,0.0,1.0,0.191536132812,-1.72861359863,10.0317049561,1.0,0.0,0.0,0.0,1.0,0.0,0.0,0.0,1.0
1464076543337808789,333,1464076543067413743,,4.08655595779,-10.8741445541,-134.616516113,0.00321300001815,1.0,0.0,0.0,0.0,1.0,0.0,0.0,0.0,1.0,0.548780500889,2.13414645195,-3.47560977936,1.0,0.0,0.0,0.0,1.0,0.0,0.0,0.0,1.0,0.076614453125,-1.63763393555,10.1945106689,1.0,0.0,0.0,0.0,1.0,0.0,0.0,0.0,1.0
1464076543338386552,334,1464076543087951531,,4.14696073532,-10.8447885513,-134.696166992,0.00282400008291,1.0,0.0,0.0,0.0,1.0,0.0,0.0,0.0,1.0,1.09756100178,5.06097555161,-0.609756112099,1.0,0.0,0.0,0.0,1.0,0.0,0.0,0.0,1.0,-0.205901342773,-1.84832368164,10.3716815918,1.0,0.0,0.0,0.0,1.0,0.0,0.0,0.0,1.0
1464076543338662566,335,1464076543108720841,,4.36489725113,-10.8234615326,-134.69694519,0.00141799997073,1.0,0.0,0.0,0.0,1.0,0.0,0.0,0.0,1.0,1.76829278469,5.91463422775,2.68292689323,1.0,0.0,0.0,0.0,1.0,0.0,0.0,0.0,1.0,-0.703895288086,-1.68551796875,10.0556469727,1.0,0.0,0.0,0.0,1.0,0.0,0.0,0.0,1.0
1464076543338899558,336,1464076543129127499,,4.46798706055,-10.7720451355,-134.678314209,0.00140199996531,1.0,0.0,0.0,0.0,1.0,0.0,0.0,0.0,1.0,1.70731711388,2.31707310677,2.31707310677,1.0,0.0,0.0,0.0,1.0,0.0,0.0,0.0,1.0,-0.287304199219,-1.39821376953,9.83538041992,1.0,0.0,0.0,0.0,1.0,0.0,0.0,0.0,1.0
1464076543339092059,337,1464076543150273007,,4.4200758934,-10.7042703629,-134.712509155,0.00172900001053,1.0,0.0,0.0,0.0,1.0,0.0,0.0,0.0,1.0,0.304878056049,3.04878044128,-0.731707334518,1.0,0.0,0.0,0.0,1.0,0.0,0.0,0.0,1.0,0.172382519531,-1.68072956543,10.0077629395,1.0,0.0,0.0,0.0,1.0,0.0,0.0,0.0,1.0
1464076543339129100,338,1464076543173299500,,4.43079566956,-10.6697130203,-134.761169434,0.00174700003117,1.0,0.0,0.0,0.0,1.0,0.0,0.0,0.0,1.0,1.8902438879,3.10975623131,-0.975609779358,1.0,0.0,0.0,0.0,1.0,0.0,0.0,0.0,1.0,0.0383072265625,-1.81001645508,10.1370498291,1.0,0.0,0.0,0.0,1.0,0.0,0.0,0.0,1.0
1464076543339359789,339,1464076543197073648,,4.46603155136,-10.6272220612,-134.809127808,0.00244399998337,1.0,0.0,0.0,0.0,1.0,0.0,0.0,0.0,1.0,1.64634156227,4.57317066193,-0.975609779358,1.0,0.0,0.0,0.0,1.0,0.0,0.0,0.0,1.0,-0.15801730957,-1.68072956543,9.90720646973,1.0,0.0,0.0,0.0,1.0,0.0,0.0,0.0,1.0
1464076543339605690,340,1464076543217714277,,4.49554681778,-10.5794591904,-134.879852295,0.00269300001673,1.0,0.0,0.0,0.0,1.0,0.0,0.0,0.0,1.0,2.68292689323,3.04878044128,-2.92682933807,1.0,0.0,0.0,0.0,1.0,0.0,0.0,0.0,1.0,0.167594116211,-1.66157595215,10.0939541992,1.0,0.0,0.0,0.0,1.0,0.0,0.0,0.0,1.0
1464076543339840859,341,1464076543239374197,,4.50487804413,-10.5164718628,-134.990005493,0.00150200002827,1.0,0.0,0.0,0.0,1.0,0.0,0.0,0.0,1.0,4.02439022064,4.08536577225,-3.90243911743,1.0,0.0,0.0,0.0,1.0,0.0,0.0,0.0,1.0,-0.0143652099609,-2.04464821777,10.0700121826,1.0,0.0,0.0,0.0,1.0,0.0,0.0,0.0,1.0
1464076543340074934,342,1464076543261052559,,4.57953882217,-10.4384279251,-135.080123901,0.00191600003745,1.0,0.0,0.0,0.0,1.0,0.0,0.0,0.0,1.0,4.32926845551,6.28048801422,-1.15853655338,1.0,0.0,0.0,0.0,1.0,0.0,0.0,0.0,1.0,-0.320823022461,-1.82917006836,10.1992990723,1.0,0.0,0.0,0.0,1.0,0.0,0.0,0.0,1.0
1464076543340320209,343,1464076543282052193,,4.66668701172,-10.3435134888,-135.150482178,0.00133100000676,1.0,0.0,0.0,0.0,1.0,0.0,0.0,0.0,1.0,4.75609779358,6.21951246262,-1.52439022064,1.0,0.0,0.0,0.0,1.0,0.0,0.0,0.0,1.0,-0.0814028564453,-1.70945998535,10.2567599121,1.0,0.0,0.0,0.0,1.0,0.0,0.0,0.0,1.0
1464076543471177527,344,1464076543304755681,,4.74710464478,-10.2466125488,-135.220977783,0.00157700001728,1.0,0.0,0.0,0.0,1.0,0.0,0.0,0.0,1.0,4.14634132385,6.7682929039,-0.792682945728,1.0,0.0,0.0,0.0,1.0,0.0,0.0,0.0,1.0,0.0191536132812,-1.66636435547,10.3812583984,1.0,0.0,0.0,0.0,1.0,0.0,0.0,0.0,1.0
1464076543471460001,345,1464076543324227707,,4.84974861145,-10.1568698883,-135.261611938,0.00182699994184,1.0,0.0,0.0,0.0,1.0,0.0,0.0,0.0,1.0,1.76829278469,9.39024448395,0.426829278469,1.0,0.0,0.0,0.0,1.0,0.0,0.0,0.0,1.0,-0.335188232422,-1.14921679688,10.0221281494,1.0,0.0,0.0,0.0,1.0,0.0,0.0,0.0,1.0
1464076543471855266,346,1464076543357039082,,5.05787992477,-10.1351995468,-135.248092651,0.018123999238,1.0,0.0,0.0,0.0,1.0,0.0,0.0,0.0,1.0,-3.17073178291,8.35365867615,3.29268312454,1.0,0.0,0.0,0.0,1.0,0.0,0.0,0.0,1.0,0.129286889648,-1.46525141602,11.0660000732,1.0,0.0,0.0,0.0,1.0,0.0,0.0,0.0,1.0
1464076543472563221,347,1464076543378010583,,5.08827972412,-10.1781740189,-135.274154663,0.0012150000548,1.0,0.0,0.0,0.0,1.0,0.0,0.0,0.0,1.0,-6.09756088257,5.06097555161,-1.09756100178,1.0,0.0,0.0,0.0,1.0,0.0,0.0,0.0,1.0,0.46447512207,-1.33117612305,10.5296989014,1.0,0.0,0.0,0.0,1.0,0.0,0.0,0.0,1.0
1464076543473001363,348,1464076543402580627,,5.11968612671,-10.333688736,-135.341766357,0.0038840000052,1.0,0.0,0.0,0.0,1.0,0.0,0.0,0.0,1.0,-11.5853662491,4.63414621353,-2.5,1.0,0.0,0.0,0.0,1.0,0.0,0.0,0.0,1.0,0.138863696289,-1.46525141602,10.7451770508,1.0,0.0,0.0,0.0,1.0,0.0,0.0,0.0,1.0
1464076543473052054,349,1464076543420304098,,5.15206813812,-10.549530983,-135.4324646,0.014525000006,1.0,0.0,0.0,0.0,1.0,0.0,0.0,0.0,1.0,-12.6829271317,5.0,-2.80487799644,1.0,0.0,0.0,0.0,1.0,0.0,0.0,0.0,1.0,0.0335188255255,-1.5322890625,10.8936175537,1.0,0.0,0.0,0.0,1.0,0.0,0.0,0.0,1.0
1464076543473829403,350,1464076543441333793,,5.17866039276,-10.7979822159,-135.532699585,0.00126399996225,1.0,0.0,0.0,0.0,1.0,0.0,0.0,0.0,1.0,-14.3292694092,5.42682933807,-1.8902438879,1.0,0.0,0.0,0.0,1.0,0.0,0.0,0.0,1.0,-0.359130249023,-1.35990654297,10.4674496582,1.0,0.0,0.0,0.0,1.0,0.0,0.0,0.0,1.0
1464076543474535431,351,1464076543462926142,,5.29066562653,-11.0881767273,-135.576797485,0.00126599997748,1.0,0.0,0.0,0.0,1.0,0.0,0.0,0.0,1.0,-13.7195129395,3.53658556938,-0.12195122242,1.0,0.0,0.0,0.0,1.0,0.0,0.0,0.0,1.0,-0.478840332031,-1.73340200195,10.2615483154,1.0,0.0,0.0,0.0,1.0,0.0,0.0,0.0,1.0
1464076543492968421,352,1464076543484549802,,5.32909107208,-11.3397350311,-135.605865479,0.00146399997175,1.0,0.0,0.0,0.0,1.0,0.0,0.0,0.0,1.0,-10.6097564697,3.41463422775,0.0,1.0,0.0,0.0,0.0,1.0,0.0,0.0,0.0,1.0,-0.402225878906,-1.838746875,9.58638403179,1.0,0.0,0.0,0.0,1.0,0.0,0.0,0.0,1.0
1464076543506910539,353,1464076543505353288,,5.33515548706,-11.5287780762,-135.635818481,0.00118300004397,1.0,0.0,0.0,0.0,1.0,0.0,0.0,0.0,1.0,-7.80487823486,-0.365853667259,-2.43902444839,1.0,0.0,0.0,0.0,1.0,0.0,0.0,0.0,1.0,0.435744702148,-1.65678754883,9.74440075684,1.0,0.0,0.0,0.0,1.0,0.0,0.0,0.0,1.0
1464076543530599038,354,1464076543525777295,,5.20136260986,-11.6300230026,-135.737030029,0.00121200003196,1.0,0.0,0.0,0.0,1.0,0.0,0.0,0.0,1.0,-3.29268312454,0.0609756112099,-5.85365867615,1.0,0.0,0.0,0.0,1.0,0.0,0.0,0.0,1.0,0.335188232422,-1.92493813477,10.1992990723,1.0,0.0,0.0,0.0,1.0,0.0,0.0,0.0,1.0
1464076543551367150,355,1464076543549461053,,5.15163993835,-11.6554937363,-135.875839233,0.00118999998085,1.0,0.0,0.0,0.0,1.0,0.0,0.0,0.0,1.0,0.853658556938,4.32926845551,-4.2682929039,1.0,0.0,0.0,0.0,1.0,0.0,0.0,0.0,1.0,-0.15801730957,-2.21224233398,10.0077629395,1.0,0.0,0.0,0.0,1.0,0.0,0.0,0.0,1.0
1464076543570833393,356,1464076543568059453,,5.22715711594,-11.5829133987,-135.977844238,0.00505300005898,1.0,0.0,0.0,0.0,1.0,0.0,0.0,0.0,1.0,5.06097555161,7.31707334518,-1.95121955872,1.0,0.0,0.0,0.0,1.0,0.0,0.0,0.0,1.0,-0.00478840332031,-1.87705410156,9.81622680664,1.0,0.0,0.0,0.0,1.0,0.0,0.0,0.0,1.0
1464076543591263912,357,1464076543588670178,,5.36586999893,-11.4249744415,-136.038406372,0.00235099997371,1.0,0.0,0.0,0.0,1.0,0.0,0.0,0.0,1.0,7.25609779358,6.0365858078,-0.365853667259,1.0,0.0,0.0,0.0,1.0,0.0,0.0,0.0,1.0,-0.502782348633,-1.46525141602,9.44273076313,1.0,0.0,0.0,0.0,1.0,0.0,0.0,0.0,1.0
1464076543613524362,358,1464076543610459039,,5.37281656265,-11.2261886597,-136.111373901,0.00274799996987,1.0,0.0,0.0,0.0,1.0,0.0,0.0,0.0,1.0,7.25609779358,-2.31707310677,-4.69512224197,1.0,0.0,0.0,0.0,1.0,0.0,0.0,0.0,1.0,-0.411802685547,-1.64242233887,9.71088193359,1.0,0.0,0.0,0.0,1.0,0.0,0.0,0.0,1.0
1464076543633935501,359,1464076543631913381,,5.21390533447,-11.0510787964,-136.248947144,0.00118599995039,1.0,0.0,0.0,0.0,1.0,0.0,0.0,0.0,1.0,7.13414621353,-1.8292683363,-6.58536624908,1.0,0.0,0.0,0.0,1.0,0.0,0.0,0.0,1.0,-0.172382519531,-1.64242233887,9.79707319336,1.0,0.0,0.0,0.0,1.0,0.0,0.0,0.0,1.0
1464076543656955274,360,1464076543654226033,,5.1112613678,-10.8952741623,-136.370254517,0.0049720001407,1.0,0.0,0.0,0.0,1.0,0.0,0.0,0.0,1.0,5.54878091812,-1.15853655338,-3.7804877758,1.0,0.0,0.0,0.0,1.0,0.0,0.0,0.0,1.0,-0.114921679688,-1.68551796875,10.0125513428,1.0,0.0,0.0,0.0,1.0,0.0,0.0,0.0,1.0
1464076543676730717,361,1464076543674842541,,5.03850317001,-10.7617530823,-136.454772949,0.00121699995361,1.0,0.0,0.0,0.0,1.0,0.0,0.0,0.0,1.0,5.48780488968,-1.03658533096,-3.47560977936,1.0,0.0,0.0,0.0,1.0,0.0,0.0,0.0,1.0,-0.186747729492,-1.58974990234,10.1226846191,1.0,0.0,0.0,0.0,1.0,0.0,0.0,0.0,1.0
1464076543698475608,362,1464076543696237127,,4.98822879791,-10.6368284225,-136.516845703,0.00118999998085,1.0,0.0,0.0,0.0,1.0,0.0,0.0,0.0,1.0,3.10975623131,0.0609756112099,-1.8292683363,1.0,0.0,0.0,0.0,1.0,0.0,0.0,0.0,1.0,-0.354341845703,-1.5322890625,10.046070166,1.0,0.0,0.0,0.0,1.0,0.0,0.0,0.0,1.0
1464076543721419631,363,1464076543718850486,,4.95540332794,-10.5590400696,-136.558059692,0.00122099998407,1.0,0.0,0.0,0.0,1.0,0.0,0.0,0.0,1.0,0.731707334518,0.548780500889,-0.731707334518,1.0,0.0,0.0,0.0,1.0,0.0,0.0,0.0,1.0,-0.339976635742,-1.5562310791,10.1035310059,1.0,0.0,0.0,0.0,1.0,0.0,0.0,0.0,1.0
1464076543743844553,364,1464076543740777042,,4.93117523193,-10.5294713974,-136.575241089,0.00331600010395,1.0,0.0,0.0,0.0,1.0,0.0,0.0,0.0,1.0,-1.64634156227,0.731707334518,0.365853667259,1.0,0.0,0.0,0.0,1.0,0.0,0.0,0.0,1.0,-0.263362164351,-1.46525141602,10.1418382324,1.0,0.0,0.0,0.0,1.0,0.0,0.0,0.0,1.0
1464076543764506959,365,1464076543762707870,,4.92718505859,-10.5572080612,-136.568817139,0.00122400000691,1.0,0.0,0.0,0.0,1.0,0.0,0.0,0.0,1.0,-4.02439022064,1.8292683363,1.8902438879,1.0,0.0,0.0,0.0,1.0,0.0,0.0,0.0,1.0,-0.148440512063,-1.55144267578,10.2136642822,1.0,0.0,0.0,0.0,1.0,0.0,0.0,0.0,1.0
1464076543786875771,366,1464076543784885640,,4.94695949554,-10.6269760132,-136.537521362,0.00211500003934,1.0,0.0,0.0,0.0,1.0,0.0,0.0,0.0,1.0,-6.09756088257,2.13414645195,2.98780488968,1.0,0.0,0.0,0.0,1.0,0.0,0.0,0.0,1.0,-0.258573779297,-1.62326872559,10.3477395752,1.0,0.0,0.0,0.0,1.0,0.0,0.0,0.0,1.0
1464076543808196483,367,1464076543804904327,,4.97064781189,-10.7320547104,-136.490432739,0.00277899997309,1.0,0.0,0.0,0.0,1.0,0.0,0.0,0.0,1.0,-7.01219511032,1.09756100178,3.47560977936,1.0,0.0,0.0,0.0,1.0,0.0,0.0,0.0,1.0,-0.330399829102,-1.64242233887,10.1083194092,1.0,0.0,0.0,0.0,1.0,0.0,0.0,0.0,1.0
1464076543831417406,368,1464076543828008395,,4.92608976364,-10.8450307846,-136.445022583,0.00229099998251,1.0,0.0,0.0,0.0,1.0,0.0,0.0,0.0,1.0,-7.07317113876,-1.95121955872,1.64634156227,1.0,0.0,0.0,0.0,1.0,0.0,0.0,0.0,1.0,-0.186747729492,-1.47961662598,10.3381627686,1.0,0.0,0.0,0.0,1.0,0.0,0.0,0.0,1.0
1464076543862044637,369,1464076543851758838,,4.86029434204,-11.0085449219,-136.399658203,0.0104750003666,1.0,0.0,0.0,0.0,1.0,0.0,0.0,0.0,1.0,-7.98780536652,-0.426829278469,3.59756112099,1.0,0.0,0.0,0.0,1.0,0.0,0.0,0.0,1.0,-0.430956298828,-1.78128603516,10.3190091553,1.0,0.0,0.0,0.0,1.0,0.0,0.0,0.0,1.0
1464076543876127055,370,1464076543872057081,,4.87135791779,-11.1274347305,-136.295150757,0.00190100003965,1.0,0.0,0.0,0.0,1.0,0.0,0.0,0.0,1.0,-6.58536624908,-0.792682945728,6.70731735229,1.0,0.0,0.0,0.0,1.0,0.0,0.0,0.0,1.0,-0.387860668945,-1.7908628418,10.1514150391,1.0,0.0,0.0,0.0,1.0,0.0,0.0,0.0,1.0
1464076543897527528,371,1464076543894556086,,4.83568048477,-11.2209157944,-136.168899536,0.00241199997254,1.0,0.0,0.0,0.0,1.0,0.0,0.0,0.0,1.0,-4.81707286835,-1.64634156227,5.85365867615,1.0,0.0,0.0,0.0,1.0,0.0,0.0,0.0,1.0,-0.134075302102,-1.75255561523,10.2184526855,1.0,0.0,0.0,0.0,1.0,0.0,0.0,0.0,1.0
1464076543919127380,372,1464076543916569644,,4.78767347336,-11.2722711563,-136.051437378,0.00228999997489,1.0,0.0,0.0,0.0,1.0,0.0,0.0,0.0,1.0,-3.7804877758,-1.70731711388,5.30487823486,1.0,0.0,0.0,0.0,1.0,0.0,0.0,0.0,1.0,-0.186747729492,-1.76213242187,10.2136642822,1.0,0.0,0.0,0.0,1.0,0.0,0.0,0.0,1.0
1464076543939113922,373,1464076543936943742,,4.74635314941,-11.2987575531,-135.951751709,0.0011340000201,1.0,0.0,0.0,0.0,1.0,0.0,0.0,0.0,1.0,-2.13414645195,-1.46341466904,4.87804889679,1.0,0.0,0.0,0.0,1.0,0.0,0.0,0.0,1.0,-0.0814028564453,-1.78128603516,10.2567599121,1.0,0.0,0.0,0.0,1.0,0.0,0.0,0.0,1.0
1464076543968771512,374,1464076543966485518,,4.72137880325,-11.2892160416,-135.847732544,0.0133330002427,1.0,0.0,0.0,0.0,1.0,0.0,0.0,0.0,1.0,-0.365853667259,0.0,3.84146332741,1.0,0.0,0.0,0.0,1.0,0.0,0.0,0.0,1.0,-0.474051928711,-1.81959326172,10.3046439453,1.0,0.0,0.0,0.0,1.0,0.0,0.0,0.0,1.0
1464076543989671170,375,1464076543987099213,,4.70433330536,-11.257768631,-135.788085938,0.00130999996327,1.0,0.0,0.0,0.0,1.0,0.0,0.0,0.0,1.0,1.58536589146,-0.426829278469,3.53658556938,1.0,0.0,0.0,0.0,1.0,0.0,0.0,0.0,1.0,-0.407014282227,-2.05422502441,10.1514150391,1.0,0.0,0.0,0.0,1.0,0.0,0.0,0.0,1.0
1464076544010743741,376,1464076544008586845,,4.70574903488,-11.1868610382,-135.739746094,0.00132999999914,1.0,0.0,0.0,0.0,1.0,0.0,0.0,0.0,1.0,2.62195134163,0.426829278469,2.68292689323,1.0,0.0,0.0,0.0,1.0,0.0,0.0,0.0,1.0,-0.603338854892,-1.96324536133,10.060435376,1.0,0.0,0.0,0.0,1.0,0.0,0.0,0.0,1.0
1464076544032954750,377,1464076544029098741,,4.66637992859,-11.0934829712,-135.716842651,0.00129599997308,1.0,0.0,0.0,0.0,1.0,0.0,0.0,0.0,1.0,3.53658556938,-3.53658556938,-1.15853655338,1.0,0.0,0.0,0.0,1.0,0.0,0.0,0.0,1.0,0.0861912597656,-1.57538469238,9.91678327637,1.0,0.0,0.0,0.0,1.0,0.0,0.0,0.0,1.0
1464076544053275395,378,1464076544050395279,,4.47893095016,-10.9804763794,-135.820785522,0.00117399997544,1.0,0.0,0.0,0.0,1.0,0.0,0.0,0.0,1.0,4.75609779358,-1.40243899822,-5.97560977936,1.0,0.0,0.0,0.0,1.0,0.0,0.0,0.0,1.0,-0.0143652099609,-1.75255561523,10.2711251221,1.0,0.0,0.0,0.0,1.0,0.0,0.0,0.0,1.0
1464076544078538702,379,1464076544071609139,,4.43138647079,-10.883682251,-135.948883057,0.00116400001571,1.0,0.0,0.0,0.0,1.0,0.0,0.0,0.0,1.0,4.39024400711,2.13414645195,-3.71951246262,1.0,0.0,0.0,0.0,1.0,0.0,0.0,0.0,1.0,-0.244208569336,-1.80522805176,9.90720646973,1.0,0.0,0.0,0.0,1.0,0.0,0.0,0.0,1.0
1464076544125706007,380,1464076544105907381,,4.47216939926,-10.7336854935,-136.103347778,0.0142999999225,1.0,0.0,0.0,0.0,1.0,0.0,0.0,0.0,1.0,3.96341490746,3.23170733452,-3.59756112099,1.0,0.0,0.0,0.0,1.0,0.0,0.0,0.0,1.0,0.0191536132812,-1.81959326172,10.1035310059,1.0,0.0,0.0,0.0,1.0,0.0,0.0,0.0,1.0
1464076544137204797,381,1464076544126797662,,4.52003145218,-10.6323404312,-136.221893311,0.00145099998917,1.0,0.0,0.0,0.0,1.0,0.0,0.0,0.0,1.0,4.2682929039,2.92682933807,-4.32926845551,1.0,0.0,0.0,0.0,1.0,0.0,0.0,0.0,1.0,-0.603338854892,-1.7908628418,10.2567599121,1.0,0.0,0.0,0.0,1.0,0.0,0.0,0.0,1.0
1464076544151130765,382,1464076544148526403,,4.5629734993,-10.5557956696,-136.32800293,0.00133200001437,1.0,0.0,0.0,0.0,1.0,0.0,0.0,0.0,1.0,2.80487799644,2.25609779358,-3.04878044128,1.0,0.0,0.0,0.0,1.0,0.0,0.0,0.0,1.0,-0.3064578125,-1.81959326172,10.2184526855,1.0,0.0,0.0,0.0,1.0,0.0,0.0,0.0,1.0
1464076544179360670,383,1464076544169339787,,4.58853292465,-10.4958467484,-136.40574646,0.00115300004836,1.0,0.0,0.0,0.0,1.0,0.0,0.0,0.0,1.0,1.52439022064,2.86585378647,-2.80487799644,1.0,0.0,0.0,0.0,1.0,0.0,0.0,0.0,1.0,-0.143652099609,-1.59932670898,9.8305920166,1.0,0.0,0.0,0.0,1.0,0.0,0.0,0.0,1.0
1464076544195686831,384,1464076544190643620,,4.57801532745,-10.4582529068,-136.502410889,0.00166599999648,1.0,0.0,0.0,0.0,1.0,0.0,0.0,0.0,1.0,0.731707334518,2.43902444839,-3.53658556938,1.0,0.0,0.0,0.0,1.0,0.0,0.0,0.0,1.0,-0.229843359375,-1.75734401855,10.1131078125,1.0,0.0,0.0,0.0,1.0,0.0,0.0,0.0,1.0
1464076544227521426,385,1464076544211526086,,4.60432100296,-10.4376449585,-136.59677124,0.00137499999255,1.0,0.0,0.0,0.0,1.0,0.0,0.0,0.0,1.0,1.8292683363,3.29268312454,-2.43902444839,1.0,0.0,0.0,0.0,1.0,0.0,0.0,0.0,1.0,-0.359130249023,-1.95845695801,10.1131078125,1.0,0.0,0.0,0.0,1.0,0.0,0.0,0.0,1.0
1464076544247850042,386,1464076544234199931,,4.63243293762,-10.3999185562,-136.670700073,0.00153100001626,1.0,0.0,0.0,0.0,1.0,0.0,0.0,0.0,1.0,2.92682933807,2.86585378647,-2.01219511032,1.0,0.0,0.0,0.0,1.0,0.0,0.0,0.0,1.0,-0.320823022461,-1.87705410156,10.0843773926,1.0,0.0,0.0,0.0,1.0,0.0,0.0,0.0,1.0
1464076544269886836,387,1464076544256236881,,4.61113977432,-10.3533420563,-136.751464844,0.0022680000402,1.0,0.0,0.0,0.0,1.0,0.0,0.0,0.0,1.0,1.64634156227,0.792682945728,-3.47560977936,1.0,0.0,0.0,0.0,1.0,0.0,0.0,0.0,1.0,0.067037651051,-1.7908628418,9.83538041992,1.0,0.0,0.0,0.0,1.0,0.0,0.0,0.0,1.0
1464076544284234483,388,1464076544276441505,,4.58304834366,-10.3218889236,-136.853286743,0.00154299999122,1.0,0.0,0.0,0.0,1.0,0.0,0.0,0.0,1.0,2.92682933807,2.86585378647,-2.43902444839,1.0,0.0,0.0,0.0,1.0,0.0,0.0,0.0,1.0,-0.138863696289,-1.84353527832,10.0795889893,1.0,0.0,0.0,0.0,1.0,0.0,0.0,0.0,1.0
1464076544302068871,389,1464076544298250789,,4.6905579567,-10.2753038406,-136.889160156,0.00159999995958,1.0,0.0,0.0,0.0,1.0,0.0,0.0,0.0,1.0,2.92682933807,5.0,1.70731711388,1.0,0.0,0.0,0.0,1.0,0.0,0.0,0.0,1.0,-0.330399829102,-2.02070620117,9.89762966309,1.0,0.0,0.0,0.0,1.0,0.0,0.0,0.0,1.0
1464076544323999125,390,1464076544319040417,,4.78332853317,-10.2061195374,-136.869415283,0.00139800005127,1.0,0.0,0.0,0.0,1.0,0.0,0.0,0.0,1.0,3.90243911743,4.81707286835,3.23170733452,1.0,0.0,0.0,0.0,1.0,0.0,0.0,0.0,1.0,-0.603338854892,-2.34631748082,10.5009684814,1.0,0.0,0.0,0.0,1.0,0.0,0.0,0.0,1.0
1464076544349685518,391,1464076544339469112,,4.87513875961,-10.1168880463,-136.824234009,0.00159799994435,1.0,0.0,0.0,0.0,1.0,0.0,0.0,0.0,1.0,4.45121955872,3.41463422775,4.20731735229,1.0,0.0,0.0,0.0,1.0,0.0,0.0,0.0,1.0,-0.507570751953,-1.75255561523,10.2807019287,1.0,0.0,0.0,0.0,1.0,0.0,0.0,0.0,1.0
1464076544364949459,392,1464076544360256657,,4.93508625031,-10.0291309357,-136.765548706,0.00148300000001,1.0,0.0,0.0,0.0,1.0,0.0,0.0,0.0,1.0,2.07317066193,1.52439022064,2.31707310677,1.0,0.0,0.0,0.0,1.0,0.0,0.0,0.0,1.0,-0.253785375977,-1.44609780273,9.7827079834,1.0,0.0,0.0,0.0,1.0,0.0,0.0,0.0,1.0
1464076544385959668,393,1464076544384065866,,4.85547828674,-9.98069763184,-136.774002075,0.00196100003086,1.0,0.0,0.0,0.0,1.0,0.0,0.0,0.0,1.0,1.8902438879,0.975609779358,0.0,1.0,0.0,0.0,0.0,1.0,0.0,0.0,0.0,1.0,0.076614453125,-1.78607443848,10.3668931885,1.0,0.0,0.0,0.0,1.0,0.0,0.0,0.0,1.0
1464076544415620488,394,1464076544402958982,,4.80718564987,-9.95289516449,-136.820877075,0.00187499995809,1.0,0.0,0.0,0.0,1.0,0.0,0.0,0.0,1.0,1.15853655338,0.487804889679,-2.13414645195,1.0,0.0,0.0,0.0,1.0,0.0,0.0,0.0,1.0,-0.0143652099609,-1.63284553223,9.95509050293,1.0,0.0,0.0,0.0,1.0,0.0,0.0,0.0,1.0
1464076544427700792,395,1464076544424056768,,4.77443408966,-9.95729351044,-136.883422852,0.00129399995785,1.0,0.0,0.0,0.0,1.0,0.0,0.0,0.0,1.0,-0.670731723309,2.80487799644,-1.8902438879,1.0,0.0,0.0,0.0,1.0,0.0,0.0,0.0,1.0,-0.220266552734,-1.77649763184,10.4147772217,1.0,0.0,0.0,0.0,1.0,0.0,0.0,0.0,1.0
1464076544455141574,396,1464076544445250414,,4.83230066299,-9.9845161438,-136.937820435,0.00210899999365,1.0,0.0,0.0,0.0,1.0,0.0,0.0,0.0,1.0,-0.243902444839,7.31707334518,1.34146344662,1.0,0.0,0.0,0.0,1.0,0.0,0.0,0.0,1.0,-0.225054956055,-2.05422502441,10.4482960449,1.0,0.0,0.0,0.0,1.0,0.0,0.0,0.0,1.0
1464076544478746039,397,1464076544467456317,,5.00371694565,-9.9881439209,-136.920623779,0.00176999997348,1.0,0.0,0.0,0.0,1.0,0.0,0.0,0.0,1.0,0.731707334518,6.28048801422,3.47560977936,1.0,0.0,0.0,0.0,1.0,0.0,0.0,0.0,1.0,-0.397437475586,-1.54186586914,10.1562034424,1.0,0.0,0.0,0.0,1.0,0.0,0.0,0.0,1.0
1464076544505222441,398,1464076544488214166,,5.09989118576,-9.97735404968,-136.888534546,0.00120599998627,1.0,0.0,0.0,0.0,1.0,0.0,0.0,0.0,1.0,-0.548780500889,4.2682929039,1.8292683363,1.0,0.0,0.0,0.0,1.0,0.0,0.0,0.0,1.0,-0.00478840332031,-1.74776721191,9.8545340332,1.0,0.0,0.0,0.0,1.0,0.0,0.0,0.0,1.0
1464076544521653682,399,1464076544510221004,,5.07984781265,-9.99485015869,-136.90196228,0.00164200004656,1.0,0.0,0.0,0.0,1.0,0.0,0.0,0.0,1.0,-2.13414645195,1.52439022064,-0.914634168148,1.0,0.0,0.0,0.0,1.0,0.0,0.0,0.0,1.0,0.445321508789,-1.82917006836,10.1370498291,1.0,0.0,0.0,0.0,1.0,0.0,0.0,0.0,1.0
1464076544539981956,400,1464076544531497173,,5.11599588394,-10.0270271301,-136.930160522,0.00192800001241,1.0,0.0,0.0,0.0,1.0,0.0,0.0,0.0,1.0,-1.09756100178,4.63414621353,1.15853655338,1.0,0.0,0.0,0.0,1.0,0.0,0.0,0.0,1.0,-0.402225878906,-1.92972653809,10.1370498291,1.0,0.0,0.0,0.0,1.0,0.0,0.0,0.0,1.0
1464076544564281925,401,1464076544552006567,,5.16403150558,-10.0530757904,-136.904678345,0.00144000002183,1.0,0.0,0.0,0.0,1.0,0.0,0.0,0.0,1.0,-0.243902444839,4.75609779358,3.65853667259,1.0,0.0,0.0,0.0,1.0,0.0,0.0,0.0,1.0,-0.349553442383,-1.43173259277,9.99818613281,1.0,0.0,0.0,0.0,1.0,0.0,0.0,0.0,1.0
1464076544584639143,402,1464076544574184338,,5.23802471161,-10.0562133789,-136.848770142,0.00182899995707,1.0,0.0,0.0,0.0,1.0,0.0,0.0,0.0,1.0,-0.487804889679,1.70731711388,3.71951246262,1.0,0.0,0.0,0.0,1.0,0.0,0.0,0.0,1.0,-0.656011254883,-1.81959326172,9.97424411621,1.0,0.0,0.0,0.0,1.0,0.0,0.0,0.0,1.0
1464076544597127476,403,1464076544594064237,,5.15954828262,-10.054060936,-136.835128784,0.00165600003675,1.0,0.0,0.0,0.0,1.0,0.0,0.0,0.0,1.0,0.487804889679,-3.10975623131,-0.426829278469,1.0,0.0,0.0,0.0,1.0,0.0,0.0,0.0,1.0,0.842758984375,-1.80043964844,10.3573163818,1.0,0.0,0.0,0.0,1.0,0.0,0.0,0.0,1.0
1464076544625812246,404,1464076544614883977,,5.06876277924,-10.0482387543,-136.881896973,0.00187899998855,1.0,0.0,0.0,0.0,1.0,0.0,0.0,0.0,1.0,0.18292683363,-0.487804889679,-2.68292689323,1.0,0.0,0.0,0.0,1.0,0.0,0.0,0.0,1.0,0.0383072265625,-1.62805712891,9.82580361328,1.0,0.0,0.0,0.0,1.0,0.0,0.0,0.0,1.0
1464076544637768245,405,1464076544636422926,,5.02922439575,-10.0527238846,-136.930419922,0.0023199999705,1.0,0.0,0.0,0.0,1.0,0.0,0.0,0.0,1.0,-1.2804877758,3.17073178291,-0.304878056049,1.0,0.0,0.0,0.0,1.0,0.0,0.0,0.0,1.0,-0.363918652344,-1.63284553223,10.1562034424,1.0,0.0,0.0,0.0,1.0,0.0,0.0,0.0,1.0
1464076544660125909,406,1464076544657856378,,5.04065847397,-10.0612001419,-136.978134155,0.00279700011015,1.0,0.0,0.0,0.0,1.0,0.0,0.0,0.0,1.0,-0.243902444839,2.86585378647,-1.2195122242,1.0,0.0,0.0,0.0,1.0,0.0,0.0,0.0,1.0,-0.129286889648,-1.74776721191,10.060435376,1.0,0.0,0.0,0.0,1.0,0.0,0.0,0.0,1.0
1464076544682445958,407,1464076544677891319,,5.05237627029,-10.0646848679,-137.032958984,0.00121400004718,1.0,0.0,0.0,0.0,1.0,0.0,0.0,0.0,1.0,-0.914634168148,1.8292683363,-1.8902438879,1.0,0.0,0.0,0.0,1.0,0.0,0.0,0.0,1.0,-0.205901342773,-1.51313544922,9.81622680664,1.0,0.0,0.0,0.0,1.0,0.0,0.0,0.0,1.0
1464076544725545685,408,1464076544700308999,,5.01574230194,-10.0947742462,-137.107208252,0.00121200003196,1.0,0.0,0.0,0.0,1.0,0.0,0.0,0.0,1.0,-2.5,0.304878056049,-3.7804877758,1.0,0.0,0.0,0.0,1.0,0.0,0.0,0.0,1.0,0.0526724365234,-1.57059628906,9.99818613281,1.0,0.0,0.0,0.0,1.0,0.0,0.0,0.0,1.0
1464076544725844309,409,1464076544721840915,,4.93211698532,-10.1418619156,-137.219192505,0.0014159999555,1.0,0.0,0.0,0.0,1.0,0.0,0.0,0.0,1.0,-2.5,1.58536589146,-3.71951246262,1.0,0.0,0.0,0.0,1.0,0.0,0.0,0.0,1.0,0.0239420166016,-1.74776721191,10.1418382324,1.0,0.0,0.0,0.0,1.0,0.0,0.0,0.0,1.0
1464076544764255297,410,1464076544742611840,,4.98341083527,-10.2050218582,-137.288024902,0.00134800001979,1.0,0.0,0.0,0.0,1.0,0.0,0.0,0.0,1.0,-3.23170733452,3.35365867615,-0.365853667259,1.0,0.0,0.0,0.0,1.0,0.0,0.0,0.0,1.0,-0.397437475586,-1.63284553223,10.0843773926,1.0,0.0,0.0,0.0,1.0,0.0,0.0,0.0,1.0
1464076544766240740,411,1464076544764772784,,5.01196098328,-10.2636651993,-137.320983887,0.00174400000833,1.0,0.0,0.0,0.0,1.0,0.0,0.0,0.0,1.0,-2.86585378647,2.01219511032,-0.670731723309,1.0,0.0,0.0,0.0,1.0,0.0,0.0,0.0,1.0,-0.119710083008,-1.84353527832,10.1370498291,1.0,0.0,0.0,0.0,1.0,0.0,0.0,0.0,1.0
1464076544851785743,412,1464076544786040981,,5.01089668274,-10.3113889694,-137.352722168,0.00257500004955,1.0,0.0,0.0,0.0,1.0,0.0,0.0,0.0,1.0,-2.80487799644,1.34146344662,-0.0609756112099,1.0,0.0,0.0,0.0,1.0,0.0,0.0,0.0,1.0,-0.31124621582,-1.71903679199,10.3477395752,1.0,0.0,0.0,0.0,1.0,0.0,0.0,0.0,1.0
1464076544852426440,413,1464076544812999703,,4.99923086166,-10.3469686508,-137.362716675,0.0130169996992,1.0,0.0,0.0,0.0,1.0,0.0,0.0,0.0,1.0,-2.74390244484,1.40243899822,0.853658556938,1.0,0.0,0.0,0.0,1.0,0.0,0.0,0.0,1.0,-0.205901342773,-1.68551796875,10.1322614258,1.0,0.0,0.0,0.0,1.0,0.0,0.0,0.0,1.0
1464076544852858642,414,1464076544833699567,,4.99235343933,-10.3986101151,-137.344955444,0.00654100021347,1.0,0.0,0.0,0.0,1.0,0.0,0.0,0.0,1.0,-2.62195134163,1.58536589146,2.13414645195,1.0,0.0,0.0,0.0,1.0,0.0,0.0,0.0,1.0,-0.134075302102,-1.77649763184,10.165780249,1.0,0.0,0.0,0.0,1.0,0.0,0.0,0.0,1.0
1464076544901322398,415,1464076544854053763,,4.99561405182,-10.4335021973,-137.310943604,0.00158699997701,1.0,0.0,0.0,0.0,1.0,0.0,0.0,0.0,1.0,-1.8902438879,1.46341466904,2.56097555161,1.0,0.0,0.0,0.0,1.0,0.0,0.0,0.0,1.0,-0.225054956055,-1.73340200195,10.165780249,1.0,0.0,0.0,0.0,1.0,0.0,0.0,0.0,1.0
1464076544901770490,416,1464076544875062566,,4.98960113525,-10.4600467682,-137.272994995,0.00135999999475,1.0,0.0,0.0,0.0,1.0,0.0,0.0,0.0,1.0,-1.8902438879,1.46341466904,2.74390244484,1.0,0.0,0.0,0.0,1.0,0.0,0.0,0.0,1.0,-0.15322890625,-1.67594116211,10.1897222656,1.0,0.0,0.0,0.0,1.0,0.0,0.0,0.0,1.0
1464076544902210819,417,1464076544896406670,,4.99703121185,-10.4793024063,-137.230484009,0.00142400001641,1.0,0.0,0.0,0.0,1.0,0.0,0.0,0.0,1.0,-1.8902438879,2.37804889679,3.65853667259,1.0,0.0,0.0,0.0,1.0,0.0,0.0,0.0,1.0,-0.316034619141,-1.56580788574,10.1370498291,1.0,0.0,0.0,0.0,1.0,0.0,0.0,0.0,1.0
1464076544967908484,418,1464076544917358790,,5.02952194214,-10.4854698181,-137.17376709,0.00128800002858,1.0,0.0,0.0,0.0,1.0,0.0,0.0,0.0,1.0,-1.58536589146,3.41463422775,4.14634132385,1.0,0.0,0.0,0.0,1.0,0.0,0.0,0.0,1.0,-0.148440512063,-1.68551796875,10.299855542,1.0,0.0,0.0,0.0,1.0,0.0,0.0,0.0,1.0
1464076544968410758,419,1464076544939206939,,5.03303384781,-10.5040111542,-137.133468628,0.00120900000911,1.0,0.0,0.0,0.0,1.0,0.0,0.0,0.0,1.0,-1.70731711388,0.792682945728,1.15853655338,1.0,0.0,0.0,0.0,1.0,0.0,0.0,0.0,1.0,0.143652099609,-1.65199914551,10.3716815918,1.0,0.0,0.0,0.0,1.0,0.0,0.0,0.0,1.0
1464076544968788362,420,1464076544959850485,,4.97287225723,-10.5227270126,-137.162521362,0.00129599997308,1.0,0.0,0.0,0.0,1.0,0.0,0.0,0.0,1.0,-2.25609779358,2.25609779358,-0.609756112099,1.0,0.0,0.0,0.0,1.0,0.0,0.0,0.0,1.0,-0.067037651051,-1.59932670898,10.1274730225,1.0,0.0,0.0,0.0,1.0,0.0,0.0,0.0,1.0
1464076545038471030,421,1464076544981164008,,5.02395915985,-10.5710334778,-137.173843384,0.00164100003894,1.0,0.0,0.0,0.0,1.0,0.0,0.0,0.0,1.0,-3.04878044128,4.32926845551,2.5,1.0,0.0,0.0,0.0,1.0,0.0,0.0,0.0,1.0,-0.129286889648,-2.02549460449,10.3333743652,1.0,0.0,0.0,0.0,1.0,0.0,0.0,0.0,1.0
1464076545038969136,422,1464076545002049287,,5.1069521904,-10.6044664383,-137.132629395,0.00155000004452,1.0,0.0,0.0,0.0,1.0,0.0,0.0,0.0,1.0,-1.52439022064,3.23170733452,3.65853667259,1.0,0.0,0.0,0.0,1.0,0.0,0.0,0.0,1.0,-0.148440512063,-1.89141931152,10.165780249,1.0,0.0,0.0,0.0,1.0,0.0,0.0,0.0,1.0
1464076545039400453,423,1464076545023353432,,5.10667085648,-10.6145124435,-137.118362427,0.00136100000236,1.0,0.0,0.0,0.0,1.0,0.0,0.0,0.0,1.0,-1.03658533096,1.15853655338,0.426829278469,1.0,0.0,0.0,0.0,1.0,0.0,0.0,0.0,1.0,0.0574608398438,-1.52750065918,10.1514150391,1.0,0.0,0.0,0.0,1.0,0.0,0.0,0.0,1.0
1464076545088222640,424,1464076545045012779,,5.07874441147,-10.6417655945,-137.141448975,0.00163199997041,1.0,0.0,0.0,0.0,1.0,0.0,0.0,0.0,1.0,-1.58536589146,2.13414645195,-0.243902444839,1.0,0.0,0.0,0.0,1.0,0.0,0.0,0.0,1.0,-0.0861912597656,-1.81001645508,10.0843773926,1.0,0.0,0.0,0.0,1.0,0.0,0.0,0.0,1.0
1464076545088714442,425,1464076545066130466,,5.05806303024,-10.6433000565,-137.167907715,0.00160199997481,1.0,0.0,0.0,0.0,1.0,0.0,0.0,0.0,1.0,-0.304878056049,2.74390244484,-1.15853655338,1.0,0.0,0.0,0.0,1.0,0.0,0.0,0.0,1.0,0.067037651051,-1.78607443848,10.0939541992,1.0,0.0,0.0,0.0,1.0,0.0,0.0,0.0,1.0
1464076545090088987,426,1464076545086144777,,5.04940700531,-10.6422958374,-137.215866089,0.00313200009987,1.0,0.0,0.0,0.0,1.0,0.0,0.0,0.0,1.0,-1.2195122242,4.02439022064,-0.731707334518,1.0,0.0,0.0,0.0,1.0,0.0,0.0,0.0,1.0,-0.0239420166016,-1.61848032227,10.0891657959,1.0,0.0,0.0,0.0,1.0,0.0,0.0,0.0,1.0
1464076545135044746,427,1464076545107833559,,5.1243853569,-10.658121109,-137.237762451,0.00167000002693,1.0,0.0,0.0,0.0,1.0,0.0,0.0,0.0,1.0,-1.64634156227,3.84146332741,1.2195122242,1.0,0.0,0.0,0.0,1.0,0.0,0.0,0.0,1.0,-0.320823022461,-1.64721074219,10.0939541992,1.0,0.0,0.0,0.0,1.0,0.0,0.0,0.0,1.0
1464076545136659722,428,1464076545128266474,,5.13851451874,-10.6734027863,-137.243118286,0.00249699992128,1.0,0.0,0.0,0.0,1.0,0.0,0.0,0.0,1.0,-2.07317066193,1.95121955872,0.304878056049,1.0,0.0,0.0,0.0,1.0,0.0,0.0,0.0,1.0,-0.196324536133,-1.5562310791,10.1131078125,1.0,0.0,0.0,0.0,1.0,0.0,0.0,0.0,1.0
1464076545189393871,429,1464076545150221840,,5.13137388229,-10.6984882355,-137.250595093,0.00153000000864,1.0,0.0,0.0,0.0,1.0,0.0,0.0,0.0,1.0,-2.86585378647,1.8902438879,0.731707334518,1.0,0.0,0.0,0.0,1.0,0.0,0.0,0.0,1.0,-0.196324536133,-1.66636435547,10.0939541992,1.0,0.0,0.0,0.0,1.0,0.0,0.0,0.0,1.0
1464076545189867908,430,1464076545171979339,,5.1126332283,-10.7329101562,-137.249710083,0.00150999997277,1.0,0.0,0.0,0.0,1.0,0.0,0.0,0.0,1.0,-2.86585378647,2.56097555161,1.46341466904,1.0,0.0,0.0,0.0,1.0,0.0,0.0,0.0,1.0,-0.0957680664062,-1.69509477539,10.1753570557,1.0,0.0,0.0,0.0,1.0,0.0,0.0,0.0,1.0
1464076545235146724,431,1464076545193698806,,5.13501024246,-10.7721633911,-137.225631714,0.00166499998886,1.0,0.0,0.0,0.0,1.0,0.0,0.0,0.0,1.0,-2.68292689323,3.47560977936,2.92682933807,1.0,0.0,0.0,0.0,1.0,0.0,0.0,0.0,1.0,-0.134075302102,-1.93930334473,10.0269165527,1.0,0.0,0.0,0.0,1.0,0.0,0.0,0.0,1.0
1464076545237133625,432,1464076545215335074,,5.19335508347,-10.8115301132,-137.168106079,0.00265999999829,1.0,0.0,0.0,0.0,1.0,0.0,0.0,0.0,1.0,-1.76829278469,2.01219511032,4.87804889679,1.0,0.0,0.0,0.0,1.0,0.0,0.0,0.0,1.0,-0.378283862305,-1.80522805176,9.8545340332,1.0,0.0,0.0,0.0,1.0,0.0,0.0,0.0,1.0
1464076545237617144,433,1464076545236000084,,5.11858558655,-10.8331327438,-137.149597168,0.00263900007121,1.0,0.0,0.0,0.0,1.0,0.0,0.0,0.0,1.0,-1.46341466904,-1.52439022064,-0.792682945728,1.0,0.0,0.0,0.0,1.0,0.0,0.0,0.0,1.0,0.742202514648,-1.59932670898,10.0748005859,1.0,0.0,0.0,0.0,1.0,0.0,0.0,0.0,1.0
1464076545271436712,434,1464076545257234522,,5.04757499695,-10.8531980515,-137.185501099,0.00184299994726,1.0,0.0,0.0,0.0,1.0,0.0,0.0,0.0,1.0,-2.68292689323,0.0609756112099,-1.8902438879,1.0,0.0,0.0,0.0,1.0,0.0,0.0,0.0,1.0,0.210689746094,-1.85311208496,10.2711251221,1.0,0.0,0.0,0.0,1.0,0.0,0.0,0.0,1.0
1464076545300947178,435,1464076545278199459,,4.98172426224,-10.8705644608,-137.249923706,0.00155000004452,1.0,0.0,0.0,0.0,1.0,0.0,0.0,0.0,1.0,-0.243902444839,2.5,-2.19512200356,1.0,0.0,0.0,0.0,1.0,0.0,0.0,0.0,1.0,0.335188232422,-1.8626888916,10.1514150391,1.0,0.0,0.0,0.0,1.0,0.0,0.0,0.0,1.0
1464076545311522797,436,1464076545299713557,,4.99064731598,-10.8713169098,-137.331924438,0.00156899995636,1.0,0.0,0.0,0.0,1.0,0.0,0.0,0.0,1.0,0.0609756112099,3.7804877758,-1.64634156227,1.0,0.0,0.0,0.0,1.0,0.0,0.0,0.0,1.0,-0.263362164351,-1.8148048584,10.0221281494,1.0,0.0,0.0,0.0,1.0,0.0,0.0,0.0,1.0
1464076545324913566,437,1464076545321030102,,5.10427570343,-10.8628349304,-137.352386475,0.00174700003117,1.0,0.0,0.0,0.0,1.0,0.0,0.0,0.0,1.0,-0.0609756112099,4.81707286835,1.40243899822,1.0,0.0,0.0,0.0,1.0,0.0,0.0,0.0,1.0,-0.541089611728,-2.01591779785,10.0700121826,1.0,0.0,0.0,0.0,1.0,0.0,0.0,0.0,1.0
1464076545344893076,438,1464076545341600711,,5.15189170837,-10.8327760696,-137.340942383,0.00151099998038,1.0,0.0,0.0,0.0,1.0,0.0,0.0,0.0,1.0,1.15853655338,2.31707310677,1.95121955872,1.0,0.0,0.0,0.0,1.0,0.0,0.0,0.0,1.0,-0.282515795898,-1.81001645508,10.3190091553,1.0,0.0,0.0,0.0,1.0,0.0,0.0,0.0,1.0
1464076545365418412,439,1464076545363310280,,5.12489366531,-10.7945404053,-137.34564209,0.00137600000016,1.0,0.0,0.0,0.0,1.0,0.0,0.0,0.0,1.0,0.548780500889,0.12195122242,-0.18292683363,1.0,0.0,0.0,0.0,1.0,0.0,0.0,0.0,1.0,-0.00957680664062,-1.45567460937,10.0364933594,1.0,0.0,0.0,0.0,1.0,0.0,0.0,0.0,1.0
1464076545390048212,440,1464076545385182550,,5.07239246368,-10.7942419052,-137.358917236,0.00208900007419,1.0,0.0,0.0,0.0,1.0,0.0,0.0,0.0,1.0,-2.01219511032,0.670731723309,0.487804889679,1.0,0.0,0.0,0.0,1.0,0.0,0.0,0.0,1.0,-0.0478840332031,-1.69988317871,10.0508585693,1.0,0.0,0.0,0.0,1.0,0.0,0.0,0.0,1.0
1464076545410245021,441,1464076545405421975,,5.03296661377,-10.8205938339,-137.367004395,0.00193100003526,1.0,0.0,0.0,0.0,1.0,0.0,0.0,0.0,1.0,-2.19512200356,0.426829278469,0.426829278469,1.0,0.0,0.0,0.0,1.0,0.0,0.0,0.0,1.0,-0.0526724365234,-1.79565124512,10.0939541992,1.0,0.0,0.0,0.0,1.0,0.0,0.0,0.0,1.0
1464076545428849516,442,1464076545426507830,,4.99584722519,-10.8544988632,-137.380477905,0.0013119999785,1.0,0.0,0.0,0.0,1.0,0.0,0.0,0.0,1.0,-2.19512200356,0.243902444839,0.0,1.0,0.0,0.0,0.0,1.0,0.0,0.0,0.0,1.0,-0.215478149414,-1.71903679199,9.88805285645,1.0,0.0,0.0,0.0,1.0,0.0,0.0,0.0,1.0
1464076545451540345,443,1464076545449136558,,4.94455814362,-10.9095029831,-137.401641846,0.00236900011078,1.0,0.0,0.0,0.0,1.0,0.0,0.0,0.0,1.0,-3.04878044128,0.731707334518,0.12195122242,1.0,0.0,0.0,0.0,1.0,0.0,0.0,0.0,1.0,0.0861912597656,-1.85311208496,9.8784760498,1.0,0.0,0.0,0.0,1.0,0.0,0.0,0.0,1.0
1464076545480968861,444,1464076545469609902,,4.93418931961,-10.9517745972,-137.414428711,0.00137199996971,1.0,0.0,0.0,0.0,1.0,0.0,0.0,0.0,1.0,-2.74390244484,1.8292683363,1.09756100178,1.0,0.0,0.0,0.0,1.0,0.0,0.0,0.0,1.0,-0.110133276367,-1.87226569824,10.4004120117,1.0,0.0,0.0,0.0,1.0,0.0,0.0,0.0,1.0
1464076545493040152,445,1464076545491091022,,4.98795461655,-10.9981374741,-137.406143188,0.0012300000526,1.0,0.0,0.0,0.0,1.0,0.0,0.0,0.0,1.0,-3.29268312454,2.25609779358,2.37804889679,1.0,0.0,0.0,0.0,1.0,0.0,0.0,0.0,1.0,-0.263362164351,-1.8866309082,10.0221281494,1.0,0.0,0.0,0.0,1.0,0.0,0.0,0.0,1.0
1464076545517415611,446,1464076545514947745,,4.94949293137,-11.0615797043,-137.420425415,0.00129399995785,1.0,0.0,0.0,0.0,1.0,0.0,0.0,0.0,1.0,-3.59756112099,-3.65853667259,-3.35365867615,1.0,0.0,0.0,0.0,1.0,0.0,0.0,0.0,1.0,0.0574608398438,-1.64721074219,10.2902787354,1.0,0.0,0.0,0.0,1.0,0.0,0.0,0.0,1.0
1464076545540142231,447,1464076545533937815,,4.83601665497,-11.1266975403,-137.523864746,0.00155799998902,1.0,0.0,0.0,0.0,1.0,0.0,0.0,0.0,1.0,-4.57317066193,0.0,-4.57317066193,1.0,0.0,0.0,0.0,1.0,0.0,0.0,0.0,1.0,-0.162805712891,-1.78128603516,10.1083194092,1.0,0.0,0.0,0.0,1.0,0.0,0.0,0.0,1.0
1464076545560400723,448,1464076545555571061,,4.7850112915,-11.2311267853,-137.626434326,0.00256699998863,1.0,0.0,0.0,0.0,1.0,0.0,0.0,0.0,1.0,-5.36585378647,2.19512200356,-3.10975623131,1.0,0.0,0.0,0.0,1.0,0.0,0.0,0.0,1.0,0.0718260498047,-1.89141931152,10.1131078125,1.0,0.0,0.0,0.0,1.0,0.0,0.0,0.0,1.0
1464076545583194549,449,1464076545576913289,,4.78323602676,-11.3269891739,-137.727874756,0.00152299995534,1.0,0.0,0.0,0.0,1.0,0.0,0.0,0.0,1.0,-4.20731735229,2.92682933807,-3.59756112099,1.0,0.0,0.0,0.0,1.0,0.0,0.0,0.0,1.0,-0.186747729492,-1.92014973145,10.0795889893,1.0,0.0,0.0,0.0,1.0,0.0,0.0,0.0,1.0
1464076545599914515,450,1464076545597580488,,4.79871845245,-11.3969717026,-137.837982178,0.0012300000526,1.0,0.0,0.0,0.0,1.0,0.0,0.0,0.0,1.0,-3.59756112099,2.98780488968,-4.20731735229,1.0,0.0,0.0,0.0,1.0,0.0,0.0,0.0,1.0,-0.253785375977,-1.8148048584,10.2184526855,1.0,0.0,0.0,0.0,1.0,0.0,0.0,0.0,1.0
1464076545620382961,451,1464076545618354278,,4.79796600342,-11.4524030685,-137.943435669,0.00165500002913,1.0,0.0,0.0,0.0,1.0,0.0,0.0,0.0,1.0,-2.92682933807,2.74390244484,-3.84146332741,1.0,0.0,0.0,0.0,1.0,0.0,0.0,0.0,1.0,-0.067037651051,-1.89141931152,10.3764699951,1.0,0.0,0.0,0.0,1.0,0.0,0.0,0.0,1.0
1464076545641756657,452,1464076545640184297,,4.8011174202,-11.5041828156,-138.037490845,0.00154700002167,1.0,0.0,0.0,0.0,1.0,0.0,0.0,0.0,1.0,-2.86585378647,2.62195134163,-2.5,1.0,0.0,0.0,0.0,1.0,0.0,0.0,0.0,1.0,-0.105344873047,-1.838746875,10.2232410889,1.0,0.0,0.0,0.0,1.0,0.0,0.0,0.0,1.0
1464076545663521032,453,1464076545661050561,,4.81357526779,-11.5506515503,-138.106506348,0.00146699999459,1.0,0.0,0.0,0.0,1.0,0.0,0.0,0.0,1.0,-2.86585378647,2.25609779358,-1.76829278469,1.0,0.0,0.0,0.0,1.0,0.0,0.0,0.0,1.0,-0.296881024126,-1.9105729248,10.1274730225,1.0,0.0,0.0,0.0,1.0,0.0,0.0,0.0,1.0
1464076545685001788,454,1464076545681933183,,4.81403875351,-11.5924377441,-138.155090332,0.00162600004114,1.0,0.0,0.0,0.0,1.0,0.0,0.0,0.0,1.0,-2.07317066193,0.914634168148,-0.670731723309,1.0,0.0,0.0,0.0,1.0,0.0,0.0,0.0,1.0,-0.3064578125,-1.99676418457,9.95509050293,1.0,0.0,0.0,0.0,1.0,0.0,0.0,0.0,1.0
1464076545705721501,455,1464076545703819207,,4.78511953354,-11.6198759079,-138.181350708,0.00153100001626,1.0,0.0,0.0,0.0,1.0,0.0,0.0,0.0,1.0,-0.731707334518,-0.304878056049,0.0609756112099,1.0,0.0,0.0,0.0,1.0,0.0,0.0,0.0,1.0,-0.0814028564453,-2.02549460449,10.0891657959,1.0,0.0,0.0,0.0,1.0,0.0,0.0,0.0,1.0
1464076545732566025,456,1464076545725315280,,4.74611568451,-11.6151485443,-138.187835693,0.00193000002764,1.0,0.0,0.0,0.0,1.0,0.0,0.0,0.0,1.0,0.365853667259,0.609756112099,0.670731723309,1.0,0.0,0.0,0.0,1.0,0.0,0.0,0.0,1.0,-0.100556469727,-1.89141931152,10.046070166,1.0,0.0,0.0,0.0,1.0,0.0,0.0,0.0,1.0
1464076545752922253,457,1464076545746483449,,4.70956707001,-11.5826940536,-138.19442749,0.00128099997528,1.0,0.0,0.0,0.0,1.0,0.0,0.0,0.0,1.0,1.76829278469,0.0609756112099,-0.243902444839,1.0,0.0,0.0,0.0,1.0,0.0,0.0,0.0,1.0,0.105344873047,-1.84832368164,10.3381627686,1.0,0.0,0.0,0.0,1.0,0.0,0.0,0.0,1.0
1464076545777171062,458,1464076545767532628,,4.6350479126,-11.5266876221,-138.237548828,0.00116700003855,1.0,0.0,0.0,0.0,1.0,0.0,0.0,0.0,1.0,1.8902438879,0.853658556938,-1.40243899822,1.0,0.0,0.0,0.0,1.0,0.0,0.0,0.0,1.0,0.162805712891,-1.86747729492,10.3573163818,1.0,0.0,0.0,0.0,1.0,0.0,0.0,0.0,1.0
1464076545805386953,459,1464076545788284434,,4.59905099869,-11.4852724075,-138.283355713,0.00145199999679,1.0,0.0,0.0,0.0,1.0,0.0,0.0,0.0,1.0,2.5,1.52439022064,-0.304878056049,1.0,0.0,0.0,0.0,1.0,0.0,0.0,0.0,1.0,-0.143652099609,-1.84353527832,10.3333743652,1.0,0.0,0.0,0.0,1.0,0.0,0.0,0.0,1.0
1464076545813105744,460,1464076545809501836,,4.66207408905,-11.436091423,-138.291046143,0.00153500004672,1.0,0.0,0.0,0.0,1.0,0.0,0.0,0.0,1.0,2.5,3.84146332741,2.13414645195,1.0,0.0,0.0,0.0,1.0,0.0,0.0,0.0,1.0,-0.282515795898,-1.90099611816,9.86411083984,1.0,0.0,0.0,0.0,1.0,0.0,0.0,0.0,1.0
1464076545839360575,461,1464076545830608635,,4.73473930359,-11.3688011169,-138.275192261,0.00150599994231,1.0,0.0,0.0,0.0,1.0,0.0,0.0,0.0,1.0,2.31707310677,3.04878044128,1.58536589146,1.0,0.0,0.0,0.0,1.0,0.0,0.0,0.0,1.0,-0.220266552734,-2.03028300781,10.2567599121,1.0,0.0,0.0,0.0,1.0,0.0,0.0,0.0,1.0
1464076545885136090,462,1464076545852268554,,4.77401781082,-11.300031662,-138.276412964,0.00146299996413,1.0,0.0,0.0,0.0,1.0,0.0,0.0,0.0,1.0,3.47560977936,3.04878044128,1.40243899822,1.0,0.0,0.0,0.0,1.0,0.0,0.0,0.0,1.0,-0.320823022461,-1.87705410156,10.1562034424,1.0,0.0,0.0,0.0,1.0,0.0,0.0,0.0,1.0
1464076545885479570,463,1464076545874082996,,4.7743935585,-11.2226953506,-138.291702271,0.00185899995267,1.0,0.0,0.0,0.0,1.0,0.0,0.0,0.0,1.0,1.46341466904,1.8902438879,-1.03658533096,1.0,0.0,0.0,0.0,1.0,0.0,0.0,0.0,1.0,0.119710083008,-1.63284553223,9.96466730957,1.0,0.0,0.0,0.0,1.0,0.0,0.0,0.0,1.0
1464076545924902764,464,1464076545895724577,,4.7007651329,-11.1665525436,-138.381271362,0.00138799997512,1.0,0.0,0.0,0.0,1.0,0.0,0.0,0.0,1.0,0.487804889679,0.670731723309,-5.36585378647,1.0,0.0,0.0,0.0,1.0,0.0,0.0,0.0,1.0,0.344765039063,-1.60890351563,10.1370498291,1.0,0.0,0.0,0.0,1.0,0.0,0.0,0.0,1.0
1464076545925283494,465,1464076545918512568,,4.62855243683,-11.1640310287,-138.560577393,0.00212699989788,1.0,0.0,0.0,0.0,1.0,0.0,0.0,0.0,1.0,-0.731707334518,3.90243911743,-6.89024400711,1.0,0.0,0.0,0.0,1.0,0.0,0.0,0.0,1.0,0.0526724365234,-1.68072956543,9.92636008301,1.0,0.0,0.0,0.0,1.0,0.0,0.0,0.0,1.0
1464076545950982703,466,1464076545939398212,,4.69365978241,-11.1862382889,-138.713729858,0.00134800001979,1.0,0.0,0.0,0.0,1.0,0.0,0.0,0.0,1.0,-0.243902444839,5.48780488968,-4.2682929039,1.0,0.0,0.0,0.0,1.0,0.0,0.0,0.0,1.0,-0.196324536133,-1.72861359863,9.55765361187,1.0,0.0,0.0,0.0,1.0,0.0,0.0,0.0,1.0
1464076545966437581,467,1464076545960120687,,4.73092889786,-11.1910295486,-138.862808228,0.00110100000165,1.0,0.0,0.0,0.0,1.0,0.0,0.0,0.0,1.0,-0.975609779358,5.12195110321,-6.64634132385,1.0,0.0,0.0,0.0,1.0,0.0,0.0,0.0,1.0,-0.0143652099609,-1.89620771484,9.8784760498,1.0,0.0,0.0,0.0,1.0,0.0,0.0,0.0,1.0
1464076545986458613,468,1464076545981735542,,4.72304821014,-11.1996612549,-139.057693481,0.00116999994498,1.0,0.0,0.0,0.0,1.0,0.0,0.0,0.0,1.0,-0.18292683363,3.47560977936,-8.41463470459,1.0,0.0,0.0,0.0,1.0,0.0,0.0,0.0,1.0,0.100556469727,-1.86747729492,9.95987890625,1.0,0.0,0.0,0.0,1.0,0.0,0.0,0.0,1.0
1464076546008867436,469,1464076546002228370,,4.712849617,-11.2318496704,-139.266921997,0.00113099999726,1.0,0.0,0.0,0.0,1.0,0.0,0.0,0.0,1.0,-0.365853667259,4.32926845551,-8.5365858078,1.0,0.0,0.0,0.0,1.0,0.0,0.0,0.0,1.0,-0.0191536132812,-1.99676418457,9.7587659668,1.0,0.0,0.0,0.0,1.0,0.0,0.0,0.0,1.0
1464076546028934209,470,1464076546023792899,,4.72375917435,-11.249045372,-139.475646973,0.00132499996107,1.0,0.0,0.0,0.0,1.0,0.0,0.0,0.0,1.0,-1.46341466904,4.57317066193,-8.04878044128,1.0,0.0,0.0,0.0,1.0,0.0,0.0,0.0,1.0,-0.138863696289,-1.73819040527,9.92636008301,1.0,0.0,0.0,0.0,1.0,0.0,0.0,0.0,1.0
1464076546047205488,471,1464076546045192799,,4.70315551758,-11.2881278992,-139.680435181,0.00156100001186,1.0,0.0,0.0,0.0,1.0,0.0,0.0,0.0,1.0,-2.92682933807,1.70731711388,-8.84146404266,1.0,0.0,0.0,0.0,1.0,0.0,0.0,0.0,1.0,-0.0191536132812,-1.71424838867,9.83538041992,1.0,0.0,0.0,0.0,1.0,0.0,0.0,0.0,1.0
1464076546069681518,472,1464076546066761339,,4.63919687271,-11.3619832993,-139.893417358,0.00137399998493,1.0,0.0,0.0,0.0,1.0,0.0,0.0,0.0,1.0,-5.91463422775,3.59756112099,-9.14634132385,1.0,0.0,0.0,0.0,1.0,0.0,0.0,0.0,1.0,0.373495458984,-1.68072956543,9.64384487163,1.0,0.0,0.0,0.0,1.0,0.0,0.0,0.0,1.0
1464076546099706813,473,1464076546087953370,,4.64700078964,-11.4983940125,-140.104537964,0.00139600003604,1.0,0.0,0.0,0.0,1.0,0.0,0.0,0.0,1.0,-8.17073154449,6.34146356583,-6.82926845551,1.0,0.0,0.0,0.0,1.0,0.0,0.0,0.0,1.0,0.354341845703,-1.89141931152,9.71567033691,1.0,0.0,0.0,0.0,1.0,0.0,0.0,0.0,1.0
1464076546113115347,474,1464076546108692724,,4.80323028564,-11.6506700516,-140.206893921,0.00142400001641,1.0,0.0,0.0,0.0,1.0,0.0,0.0,0.0,1.0,-10.2439022064,6.09756088257,-1.8292683363,1.0,0.0,0.0,0.0,1.0,0.0,0.0,0.0,1.0,-0.469263525391,-1.87705410156,10.0317049561,1.0,0.0,0.0,0.0,1.0,0.0,0.0,0.0,1.0
1464076546166707129,475,1464076546129770713,,4.88865089417,-11.8334684372,-140.249084473,0.00140499998815,1.0,0.0,0.0,0.0,1.0,0.0,0.0,0.0,1.0,-10.8536586761,4.57317066193,0.914634168148,1.0,0.0,0.0,0.0,1.0,0.0,0.0,0.0,1.0,-0.344765039063,-1.51792385254,9.7587659668,1.0,0.0,0.0,0.0,1.0,0.0,0.0,0.0,1.0
1464076546171692876,476,1464076546151547696,,4.84580850601,-12.0572595596,-140.290115356,0.00433900021017,1.0,0.0,0.0,0.0,1.0,0.0,0.0,0.0,1.0,-13.7195129395,-3.41463422775,-3.53658556938,1.0,0.0,0.0,0.0,1.0,0.0,0.0,0.0,1.0,0.0239420166016,-1.4604630127,9.57201882183,1.0,0.0,0.0,0.0,1.0,0.0,0.0,0.0,1.0
1464076546181907354,477,1464076546172026301,,4.64537191391,-12.3181209564,-140.420272827,0.00128900003619,1.0,0.0,0.0,0.0,1.0,0.0,0.0,0.0,1.0,-16.158536911,-2.13414645195,-7.19512224197,1.0,0.0,0.0,0.0,1.0,0.0,0.0,0.0,1.0,0.258573779297,-1.56580788574,9.28950185688,1.0,0.0,0.0,0.0,1.0,0.0,0.0,0.0,1.0
1464076546210036659,478,1464076546193272774,,4.55606651306,-12.6652841568,-140.533584595,0.00200000009499,1.0,0.0,0.0,0.0,1.0,0.0,0.0,0.0,1.0,-19.9390239716,2.56097555161,-2.62195134163,1.0,0.0,0.0,0.0,1.0,0.0,0.0,0.0,1.0,-0.0383072265625,-1.8866309082,9.7827079834,1.0,0.0,0.0,0.0,1.0,0.0,0.0,0.0,1.0
1464076546229727339,479,1464076546214453135,,4.62055063248,-13.0430936813,-140.566574097,0.00190999999177,1.0,0.0,0.0,0.0,1.0,0.0,0.0,0.0,1.0,-18.7804889679,4.2682929039,1.2804877758,1.0,0.0,0.0,0.0,1.0,0.0,0.0,0.0,1.0,-0.220266552734,-2.05901342773,9.89762966309,1.0,0.0,0.0,0.0,1.0,0.0,0.0,0.0,1.0
1464076546266184248,480,1464076546235287358,,4.64107561111,-13.3841333389,-140.589447021,0.0012969999807,1.0,0.0,0.0,0.0,1.0,0.0,0.0,0.0,1.0,-18.1097564697,3.35365867615,0.12195122242,1.0,0.0,0.0,0.0,1.0,0.0,0.0,0.0,1.0,0.15322890625,-1.57059628906,9.89762966309,1.0,0.0,0.0,0.0,1.0,0.0,0.0,0.0,1.0
1464076546266617804,481,1464076546256822921,,4.66450929642,-13.7281637192,-140.60295105,0.00129100005142,1.0,0.0,0.0,0.0,1.0,0.0,0.0,0.0,1.0,-21.0365848541,1.34146344662,0.853658556938,1.0,0.0,0.0,0.0,1.0,0.0,0.0,0.0,1.0,-0.196324536133,-1.66636435547,9.97903251953,1.0,0.0,0.0,0.0,1.0,0.0,0.0,0.0,1.0
1464076546280325536,482,1464076546278123992,,4.63966798782,-14.1069097519,-140.605041504,0.00132200005464,1.0,0.0,0.0,0.0,1.0,0.0,0.0,0.0,1.0,-21.2804889679,0.0609756112099,0.548780500889,1.0,0.0,0.0,0.0,1.0,0.0,0.0,0.0,1.0,-0.713472094727,-2.13083962367,10.0412817627,1.0,0.0,0.0,0.0,1.0,0.0,0.0,0.0,1.0
1464076546309481685,483,1464076546304536418,,4.53519773483,-14.5658378601,-140.576156616,0.0115149999037,1.0,0.0,0.0,0.0,1.0,0.0,0.0,0.0,1.0,-21.7073173523,-3.7804877758,1.52439022064,1.0,0.0,0.0,0.0,1.0,0.0,0.0,0.0,1.0,-0.282515795898,-1.90578452148,10.3860468018,1.0,0.0,0.0,0.0,1.0,0.0,0.0,0.0,1.0
1464076546334310967,484,1464076546325748506,,4.42944097519,-14.92329216,-140.529220581,0.00176500005182,1.0,0.0,0.0,0.0,1.0,0.0,0.0,0.0,1.0,-21.8902435303,-7.62195110321,0.0609756112099,1.0,0.0,0.0,0.0,1.0,0.0,0.0,0.0,1.0,-0.0143652099609,-1.68072956543,9.61990285503,1.0,0.0,0.0,0.0,1.0,0.0,0.0,0.0,1.0
1464076546352051006,485,1464076546347897154,,4.0993347168,-15.2775793076,-140.582168579,0.00146599998698,1.0,0.0,0.0,0.0,1.0,0.0,0.0,0.0,1.0,-23.2317085266,-8.47560977936,-6.21951246262,1.0,0.0,0.0,0.0,1.0,0.0,0.0,0.0,1.0,0.488417138672,-1.40300217285,9.7827079834,1.0,0.0,0.0,0.0,1.0,0.0,0.0,0.0,1.0
1464076546374845196,486,1464076546369239278,,3.87470316887,-15.6308412552,-140.674514771,0.00141400005668,1.0,0.0,0.0,0.0,1.0,0.0,0.0,0.0,1.0,-23.0487823486,-4.45121955872,-5.0,1.0,0.0,0.0,0.0,1.0,0.0,0.0,0.0,1.0,0.129286889648,-1.50355864258,10.165780249,1.0,0.0,0.0,0.0,1.0,0.0,0.0,0.0,1.0
1464076546406968569,487,1464076546393632190,,3.80525398254,-16.0211639404,-140.737136841,0.00437200022861,1.0,0.0,0.0,0.0,1.0,0.0,0.0,0.0,1.0,-25.5487804413,3.41463422775,0.975609779358,1.0,0.0,0.0,0.0,1.0,0.0,0.0,0.0,1.0,-0.272938989258,-1.06302561017,9.46188437642,1.0,0.0,0.0,0.0,1.0,0.0,0.0,0.0,1.0
1464076546420623004,488,1464076546415841792,,3.90307474136,-16.4059772491,-140.705078125,0.00198900001124,1.0,0.0,0.0,0.0,1.0,0.0,0.0,0.0,1.0,-26.8292694092,3.04878044128,3.71951246262,1.0,0.0,0.0,0.0,1.0,0.0,0.0,0.0,1.0,-0.440533105469,-1.21625444336,8.98304462891,1.0,0.0,0.0,0.0,1.0,0.0,0.0,0.0,1.0
1464076546444558185,489,1464076546437429661,,3.97502756119,-16.7678565979,-140.606079102,0.00149900000542,1.0,0.0,0.0,0.0,1.0,0.0,0.0,0.0,1.0,-27.8658542633,-0.0609756112099,6.52439069748,1.0,0.0,0.0,0.0,1.0,0.0,0.0,0.0,1.0,-0.339976635742,-0.718260498047,9.1458503418,1.0,0.0,0.0,0.0,1.0,0.0,0.0,0.0,1.0
1464076546473402062,490,1464076546457877372,,3.94290447235,-17.1091594696,-140.456192017,0.00160600000527,1.0,0.0,0.0,0.0,1.0,0.0,0.0,0.0,1.0,-30.4268321991,-5.12195110321,6.52439069748,1.0,0.0,0.0,0.0,1.0,0.0,0.0,0.0,1.0,0.0909796630859,-0.703895288086,9.20331118164,1.0,0.0,0.0,0.0,1.0,0.0,0.0,0.0,1.0
1464076546501241495,491,1464076546479161928,,3.85693907738,-17.4906139374,-140.252090454,0.00130700005684,1.0,0.0,0.0,0.0,1.0,0.0,0.0,0.0,1.0,-30.7317066193,-6.82926845551,9.45121955872,1.0,0.0,0.0,0.0,1.0,0.0,0.0,0.0,1.0,-0.292092584273,-0.861912597656,9.27034882812,1.0,0.0,0.0,0.0,1.0,0.0,0.0,0.0,1.0
1464076546530688766,492,1464076546500364222,,3.73793292046,-17.8778781891,-139.986236572,0.0013269999763,1.0,0.0,0.0,0.0,1.0,0.0,0.0,0.0,1.0,-28.475610733,-9.39024448395,12.3170728683,1.0,0.0,0.0,0.0,1.0,0.0,0.0,0.0,1.0,-0.258573779297,-1.20188930646,9.01177504883,1.0,0.0,0.0,0.0,1.0,0.0,0.0,0.0,1.0
1464076546531127116,493,1464076546521379589,,3.63455247879,-18.1766395569,-139.620285034,0.00129499996547,1.0,0.0,0.0,0.0,1.0,0.0,0.0,0.0,1.0,-23.7195129395,-10.7926826477,18.5975627899,1.0,0.0,0.0,0.0,1.0,0.0,0.0,0.0,1.0,-0.330399829102,-1.26892687988,9.56723041851,1.0,0.0,0.0,0.0,1.0,0.0,0.0,0.0,1.0
1464076546563202611,494,1464076546542891552,,3.62432122231,-18.3114204407,-139.086364746,0.00160399999004,1.0,0.0,0.0,0.0,1.0,0.0,0.0,0.0,1.0,-18.5365848541,-11.2804880142,25.7926845551,1.0,0.0,0.0,0.0,1.0,0.0,0.0,0.0,1.0,-0.775721337891,-0.780509741211,9.49061596538,1.0,0.0,0.0,0.0,1.0,0.0,0.0,0.0,1.0
1464076546573797923,495,1464076546563711866,,3.57414340973,-18.3241558075,-138.441955566,0.00128800002858,1.0,0.0,0.0,0.0,1.0,0.0,0.0,0.0,1.0,-14.3292694092,-14.5121955872,29.1463413239,1.0,0.0,0.0,0.0,1.0,0.0,0.0,0.0,1.0,-0.258573779297,-0.560243188477,9.43794235981,1.0,0.0,0.0,0.0,1.0,0.0,0.0,0.0,1.0
1464076546599366731,496,1464076546584586205,,3.48510813713,-18.2348995209,-137.740737915,0.00196300004609,1.0,0.0,0.0,0.0,1.0,0.0,0.0,0.0,1.0,-8.96341514587,-19.0243911743,29.3292694092,1.0,0.0,0.0,0.0,1.0,0.0,0.0,0.0,1.0,-0.986411083984,-0.651222851562,9.57680722515,1.0,0.0,0.0,0.0,1.0,0.0,0.0,0.0,1.0
1464076546607881731,497,1464076546606232058,,3.31475782394,-17.9749298096,-136.967666626,0.00171300000511,1.0,0.0,0.0,0.0,1.0,0.0,0.0,0.0,1.0,-3.53658556938,-24.9390239716,30.5487804413,1.0,0.0,0.0,0.0,1.0,0.0,0.0,0.0,1.0,-0.871489404297,-0.210689746094,9.59117243511,1.0,0.0,0.0,0.0,1.0,0.0,0.0,0.0,1.0
1464076546631458064,498,1464076546626986885,,3.07986545563,-17.6056957245,-136.160583496,0.00117399997544,1.0,0.0,0.0,0.0,1.0,0.0,0.0,0.0,1.0,-1.03658533096,-24.1463432312,32.682926178,1.0,0.0,0.0,0.0,1.0,0.0,0.0,0.0,1.0,-0.402225878906,0.191536132812,9.41878874653,1.0,0.0,0.0,0.0,1.0,0.0,0.0,0.0,1.0
1464076546651260285,499,1464076546648026530,,2.7984817028,-17.1708698273,-135.399963379,0.00162899994757,1.0,0.0,0.0,0.0,1.0,0.0,0.0,0.0,1.0,3.35365867615,-20.2439022064,30.2439022064,1.0,0.0,0.0,0.0,1.0,0.0,0.0,0.0,1.0,-0.100556469727,0.282515795898,10.2280294922,1.0,0.0,0.0,0.0,1.0,0.0,0.0,0.0,1.0
1464076546672868576,500,1464076546670831400,,2.5783803463,-16.6246910095,-134.729705811,0.00626900000498,1.0,0.0,0.0,0.0,1.0,0.0,0.0,0.0,1.0,4.87804889679,-17.8048782349,24.817073822,1.0,0.0,0.0,0.0,1.0,0.0,0.0,0.0,1.0,-0.320823022461,1.0534486574,10.4435076416,1.0,0.0,0.0,0.0,1.0,0.0,0.0,0.0,1.0
1464076546728920201,501,1464076546691465725,,2.43949437141,-16.0350933075,-134.124465942,0.00292000011541,1.0,0.0,0.0,0.0,1.0,0.0,0.0,0.0,1.0,3.23170733452,-11.8902444839,24.2073173523,1.0,0.0,0.0,0.0,1.0,0.0,0.0,0.0,1.0,-0.292092584273,1.21146604004,10.6829278076,1.0,0.0,0.0,0.0,1.0,0.0,0.0,0.0,1.0
1464076546731906543,502,1464076546713707993,,2.4267718792,-15.4972391129,-133.59185791,0.00287099997513,1.0,0.0,0.0,0.0,1.0,0.0,0.0,0.0,1.0,5.36585378647,-4.2682929039,22.0731716156,1.0,0.0,0.0,0.0,1.0,0.0,0.0,0.0,1.0,-0.105344873047,0.986411083984,11.3149970459,1.0,0.0,0.0,0.0,1.0,0.0,0.0,0.0,1.0
1464076546758078382,503,1464076546734747013,,2.49880123138,-14.8758487701,-133.197189331,0.00233100005426,1.0,0.0,0.0,0.0,1.0,0.0,0.0,0.0,1.0,9.08536529541,-3.41463422775,13.841463089,1.0,0.0,0.0,0.0,1.0,0.0,0.0,0.0,1.0,-0.483628735352,1.76213242187,11.3437274658,1.0,0.0,0.0,0.0,1.0,0.0,0.0,0.0,1.0
1464076546795795742,504,1464076546757782103,,2.37769150734,-14.0640659332,-133.05090332,0.00350899994373,1.0,0.0,0.0,0.0,1.0,0.0,0.0,0.0,1.0,7.92682981491,-10.9146347046,-3.29268312454,1.0,0.0,0.0,0.0,1.0,0.0,0.0,0.0,1.0,0.296881024126,2.86825358887,11.4203419189,1.0,0.0,0.0,0.0,1.0,0.0,0.0,0.0,1.0
1464076546796330681,505,1464076546779915434,,2.15631318092,-13.2853956223,-133.130172729,0.00222999998368,1.0,0.0,0.0,0.0,1.0,0.0,0.0,0.0,1.0,28.5975608826,5.97560977936,1.40243899822,1.0,0.0,0.0,0.0,1.0,0.0,0.0,0.0,1.0,-0.296881024126,7.86255825195,10.2471831055,1.0,0.0,0.0,0.0,1.0,0.0,0.0,0.0,1.0
1464076546863646761,506,1464076546802166402,,2.11814546585,-12.9879331589,-133.297729492,0.00209499988705,1.0,0.0,0.0,0.0,1.0,0.0,0.0,0.0,1.0,0.0,13.1097564697,-9.87804889679,1.0,0.0,0.0,0.0,1.0,0.0,0.0,0.0,1.0,-0.0478840332031,1.32159931641,10.5440641113,1.0,0.0,0.0,0.0,1.0,0.0,0.0,0.0,1.0
1464076546864445731,507,1464076546822535081,,2.22833275795,-12.0038166046,-133.626312256,0.00743900006637,1.0,0.0,0.0,0.0,1.0,0.0,0.0,0.0,1.0,22.5,3.7804877758,-16.9512195587,1.0,0.0,0.0,0.0,1.0,0.0,0.0,0.0,1.0,-0.632069238281,4.07971962891,12.7227876221,1.0,0.0,0.0,0.0,1.0,0.0,0.0,0.0,1.0
1464076546867427645,508,1464076546842731421,,2.33105039597,-10.9596767426,-133.995315552,0.00271899998188,1.0,0.0,0.0,0.0,1.0,0.0,0.0,0.0,1.0,15.975610733,4.14634132385,-17.6219520569,1.0,0.0,0.0,0.0,1.0,0.0,0.0,0.0,1.0,-3.61045610352,4.76924999929,13.1010714844,1.0,0.0,0.0,0.0,1.0,0.0,0.0,0.0,1.0
1464076546867974410,509,1464076546865455592,,2.33379936218,-10.0537672043,-134.245773315,0.00214400002733,1.0,0.0,0.0,0.0,1.0,0.0,0.0,0.0,1.0,17.0121955872,1.76829278469,-4.45121955872,1.0,0.0,0.0,0.0,1.0,0.0,0.0,0.0,1.0,4.63038601074,1.02471831055,13.9198884521,1.0,0.0,0.0,0.0,1.0,0.0,0.0,0.0,1.0
1464076546983900952,510,1464076546885140645,,2.52507305145,-8.97130489349,-134.321777344,0.00378399994224,1.0,0.0,0.0,0.0,1.0,0.0,0.0,0.0,1.0,31.0365867615,0.670731723309,-1.2804877758,1.0,0.0,0.0,0.0,1.0,0.0,0.0,0.0,1.0,-0.181959326172,1.99676418457,12.4785790527,1.0,0.0,0.0,0.0,1.0,0.0,0.0,0.0,1.0
1464076546985495297,511,1464076546906895539,,2.62273144722,-7.78062772751,-134.301193237,0.0034610000439,1.0,0.0,0.0,0.0,1.0,0.0,0.0,0.0,1.0,35.4268302917,-5.12195110321,2.19512200356,1.0,0.0,0.0,0.0,1.0,0.0,0.0,0.0,1.0,-2.01591779785,4.77882680593,10.0221281494,1.0,0.0,0.0,0.0,1.0,0.0,0.0,0.0,1.0
1464076546985808613,512,1464076546928080589,,2.44225621223,-6.45175886154,-134.200546265,0.00127899996005,1.0,0.0,0.0,0.0,1.0,0.0,0.0,0.0,1.0,16.7682933807,-19.4512195587,6.15853643417,1.0,0.0,0.0,0.0,1.0,0.0,0.0,0.0,1.0,2.03028300781,6.34463439941,7.93438430176,1.0,0.0,0.0,0.0,1.0,0.0,0.0,0.0,1.0
1464076546986128284,513,1464076546948210712,,2.04485940933,-5.52532339096,-133.889953613,0.00145500001963,1.0,0.0,0.0,0.0,1.0,0.0,0.0,0.0,1.0,7.37804937363,-15.2439022064,16.2804889679,1.0,0.0,0.0,0.0,1.0,0.0,0.0,0.0,1.0,-4.10366164551,2.64319863281,14.5184388672,1.0,0.0,0.0,0.0,1.0,0.0,0.0,0.0,1.0
1464076547159525644,514,1464076546969734814,,1.80593979359,-4.72124004364,-133.510772705,0.00154299999122,1.0,0.0,0.0,0.0,1.0,0.0,0.0,0.0,1.0,26.158536911,-14.8780498505,14.6951217651,1.0,0.0,0.0,0.0,1.0,0.0,0.0,0.0,1.0,-2.92571442871,0.991199487305,12.138602417,1.0,0.0,0.0,0.0,1.0,0.0,0.0,0.0,1.0
1464076547159943050,515,1464076546990809312,,1.42196345329,-3.56013989449,-133.218383789,0.00115000002552,1.0,0.0,0.0,0.0,1.0,0.0,0.0,0.0,1.0,43.4146347046,-7.01219511032,12.1341466904,1.0,0.0,0.0,0.0,1.0,0.0,0.0,0.0,1.0,-0.225054956055,3.19386501465,14.949395166,1.0,0.0,0.0,0.0,1.0,0.0,0.0,0.0,1.0
1464076547159993429,516,1464076547011761224,,1.31331646442,-2.07443094254,-133.02633667,0.00121200003196,1.0,0.0,0.0,0.0,1.0,0.0,0.0,0.0,1.0,51.2195129395,-4.75609779358,9.51219558716,1.0,0.0,0.0,0.0,1.0,0.0,0.0,0.0,1.0,4.92247861328,6.6702458252,9.53849999858,1.0,0.0,0.0,0.0,1.0,0.0,0.0,0.0,1.0
1464076547160341702,517,1464076547035298744,,1.30428278446,-0.620155870914,-132.867889404,0.00154299999122,1.0,0.0,0.0,0.0,1.0,0.0,0.0,0.0,1.0,65.4268341064,-5.91463422775,7.19512224197,1.0,0.0,0.0,0.0,1.0,0.0,0.0,0.0,1.0,0.718260498047,5.55454785156,14.2454998779,1.0,0.0,0.0,0.0,1.0,0.0,0.0,0.0,1.0
1464076547160662780,518,1464076547054926594,,1.07263886929,1.22195780277,-132.66973877,0.00165600003675,1.0,0.0,0.0,0.0,1.0,0.0,0.0,0.0,1.0,53.9024391174,-11.2804880142,10.6097564697,1.0,0.0,0.0,0.0,1.0,0.0,0.0,0.0,1.0,5.2816088623,8.14986245117,3.57214887695,1.0,0.0,0.0,0.0,1.0,0.0,0.0,0.0,1.0
1464076547160953485,519,1464076547075997706,,0.951574385166,2.9544479847,-132.660675049,0.00291600008495,1.0,0.0,0.0,0.0,1.0,0.0,0.0,0.0,1.0,70.2439041138,-4.14634132385,1.64634156227,1.0,0.0,0.0,0.0,1.0,0.0,0.0,0.0,1.0,2.95923325195,6.52180532227,13.0579758545,1.0,0.0,0.0,0.0,1.0,0.0,0.0,0.0,1.0
1464076547161235020,520,1464076547097858202,,0.985337495804,4.85044336319,-132.610519409,0.00310999993235,1.0,0.0,0.0,0.0,1.0,0.0,0.0,0.0,1.0,39.2682914734,9.14634132385,1.70731711388,1.0,0.0,0.0,0.0,1.0,0.0,0.0,0.0,1.0,3.6296097168,5.10443793945,8.69095202637,1.0,0.0,0.0,0.0,1.0,0.0,0.0,0.0,1.0
1464076547161543386,521,1464076547119168182,,0.739400863647,8.09226322174,-133.019836426,0.00189399998635,1.0,0.0,0.0,0.0,1.0,0.0,0.0,0.0,1.0,139.085357666,-37.682926178,-36.7682952881,1.0,0.0,0.0,0.0,1.0,0.0,0.0,0.0,1.0,40.6535441895,81.3693376221,2.51870014648,1.0,0.0,0.0,0.0,1.0,0.0,0.0,0.0,1.0
1464076547262258971,522,1464076547139929677,,2.33824515343,9.50883483887,-133.212371826,0.00238199997693,1.0,0.0,0.0,0.0,1.0,0.0,0.0,0.0,1.0,210.426834106,-14.0243902206,-61.707321167,1.0,0.0,0.0,0.0,1.0,0.0,0.0,0.0,1.0,-2.13562802699,56.5558316162,81.4842593018,1.0,0.0,0.0,0.0,1.0,0.0,0.0,0.0,1.0
1464076547263914010,523,1464076547160543059,,3.28647613525,12.7435998917,-132.984069824,0.00221000006422,1.0,0.0,0.0,0.0,1.0,0.0,0.0,0.0,1.0,273.414642334,2.07317066193,-22.9878044128,1.0,0.0,0.0,0.0,1.0,0.0,0.0,0.0,1.0,2.11647412145,27.5237422852,2.81558115234,1.0,0.0,0.0,0.0,1.0,0.0,0.0,0.0,1.0
1464076547264346837,524,1464076547181965987,,2.61853098869,12.7354211807,-132.223968506,0.00202100002207,1.0,0.0,0.0,0.0,1.0,0.0,0.0,0.0,1.0,128.17074585,14.3292694092,27.3780498505,1.0,0.0,0.0,0.0,1.0,0.0,0.0,0.0,1.0,-0.067037651051,3.77326181641,-4.3622354248,1.0,0.0,0.0,0.0,1.0,0.0,0.0,0.0,1.0
1464076547264719127,525,1464076547204934756,,2.49535536766,13.3197460175,-131.95149231,0.00155799998902,1.0,0.0,0.0,0.0,1.0,0.0,0.0,0.0,1.0,2.43902444839,-87.9878082275,19.9390239716,1.0,0.0,0.0,0.0,1.0,0.0,0.0,0.0,1.0,0.818816967773,-13.8863696289,-12.3205617432,1.0,0.0,0.0,0.0,1.0,0.0,0.0,0.0,1.0
1464076547265056772,526,1464076547225863121,,3.26699662209,14.8005609512,-131.353622437,0.00165200000629,1.0,0.0,0.0,0.0,1.0,0.0,0.0,0.0,1.0,-107.804878235,34.5121955872,45.5487823486,1.0,0.0,0.0,0.0,1.0,0.0,0.0,0.0,1.0,11.4347071289,12.9478425781,3.68228215332,1.0,0.0,0.0,0.0,1.0,0.0,0.0,0.0,1.0
1464076547291801790,527,1464076547246889845,,3.71780443192,14.0909891129,-131.724533081,0.00348900002427,1.0,0.0,0.0,0.0,1.0,0.0,0.0,0.0,1.0,4.69512224197,-22.3170719147,-22.1341457367,1.0,0.0,0.0,0.0,1.0,0.0,0.0,0.0,1.0,3.49553442383,29.5875441162,4.68784655832,1.0,0.0,0.0,0.0,1.0,0.0,0.0,0.0,1.0
1464076547293032024,528,1464076547268593058,,3.41960978508,13.0797929764,-131.98274231,0.00326399994083,1.0,0.0,0.0,0.0,1.0,0.0,0.0,0.0,1.0,184.268295288,36.2195129395,-31.0975627899,1.0,0.0,0.0,0.0,1.0,0.0,0.0,0.0,1.0,0.378283862305,15.1313544922,1.80522805176,1.0,0.0,0.0,0.0,1.0,0.0,0.0,0.0,1.0
1464076547323725472,529,1464076547289449319,,3.46713161469,10.3187026978,-131.758666992,0.00147899996955,1.0,0.0,0.0,0.0,1.0,0.0,0.0,0.0,1.0,51.6463432312,-65.1219558716,7.50000047684,1.0,0.0,0.0,0.0,1.0,0.0,0.0,0.0,1.0,-2.86825358887,-22.3809971191,1.94409174805,1.0,0.0,0.0,0.0,1.0,0.0,0.0,0.0,1.0
1464076547323807474,530,1464076547311451781,,3.21402978897,9.35484409332,-131.726104736,0.00179000000935,1.0,0.0,0.0,0.0,1.0,0.0,0.0,0.0,1.0,-45.365852356,33.1097564697,-10.548781395,1.0,0.0,0.0,0.0,1.0,0.0,0.0,0.0,1.0,-8.12592043457,-24.4447989502,22.3953623291,1.0,0.0,0.0,0.0,1.0,0.0,0.0,0.0,1.0
1464076547365657221,531,1464076547331866775,,2.33257031441,9.36732959747,-131.626998901,0.00168300000951,1.0,0.0,0.0,0.0,1.0,0.0,0.0,0.0,1.0,-121.219512939,124.024383545,4.93902444839,1.0,0.0,0.0,0.0,1.0,0.0,0.0,0.0,1.0,-3.81635744629,-3.69185895996,32.202009991,1.0,0.0,0.0,0.0,1.0,0.0,0.0,0.0,1.0
1464076547365698587,532,1464076547355256129,,2.69242835045,9.1293888092,-130.914993286,0.00445700017735,1.0,0.0,0.0,0.0,1.0,0.0,0.0,0.0,1.0,-132.439025879,159.939025879,64.9390258789,1.0,0.0,0.0,0.0,1.0,0.0,0.0,0.0,1.0,-29.927520752,-8.56166572124,0.359130249023,1.0,0.0,0.0,0.0,1.0,0.0,0.0,0.0,1.0
1464076547408352045,533,1464076547376750795,,3.05923271179,9.48913383484,-130.275421143,0.0027429999318,1.0,0.0,0.0,0.0,1.0,0.0,0.0,0.0,1.0,-326.707336426,5.24390268326,17.5609760284,1.0,0.0,0.0,0.0,1.0,0.0,0.0,0.0,1.0,1.95845695801,17.7984939726,-7.94874951172,1.0,0.0,0.0,0.0,1.0,0.0,0.0,0.0,1.0
1464076547410028809,534,1464076547398469846,,3.16463923454,9.55912780762,-129.902160645,0.00243599992245,1.0,0.0,0.0,0.0,1.0,0.0,0.0,0.0,1.0,240.426818848,40.6707344055,-2.62195134163,1.0,0.0,0.0,0.0,1.0,0.0,0.0,0.0,1.0,-7.97747993164,14.350844751,33.442206451,1.0,0.0,0.0,0.0,1.0,0.0,0.0,0.0,1.0
1464076547444038169,535,1464076547420404581,,4.15719890594,9.090508461,-129.384872437,0.00136800005566,1.0,0.0,0.0,0.0,1.0,0.0,0.0,0.0,1.0,139.756103516,23.0487823486,29.5731697083,1.0,0.0,0.0,0.0,1.0,0.0,0.0,0.0,1.0,-0.541089611728,-4.11323845215,26.5181775879,1.0,0.0,0.0,0.0,1.0,0.0,0.0,0.0,1.0
1464076547444091778,536,1464076547440570340,,4.81625032425,10.176776886,-129.075683594,0.00104300002567,1.0,0.0,0.0,0.0,1.0,0.0,0.0,0.0,1.0,-33.9024391174,26.2804889679,17.317073822,1.0,0.0,0.0,0.0,1.0,0.0,0.0,0.0,1.0,-3.48116921387,10.6925046143,10.4099888184,1.0,0.0,0.0,0.0,1.0,0.0,0.0,0.0,1.0
1464076547483215410,537,1464076547461689850,,5.55135917664,10.2979421616,-128.760070801,0.00113300001249,1.0,0.0,0.0,0.0,1.0,0.0,0.0,0.0,1.0,0.670731723309,38.1097564697,11.6463422775,1.0,0.0,0.0,0.0,1.0,0.0,0.0,0.0,1.0,7.13950935059,19.62766521,0.435744702148,1.0,0.0,0.0,0.0,1.0,0.0,0.0,0.0,1.0
1464076547486973945,538,1464076547483185037,,6.64919042587,9.21683216095,-128.508758545,0.00113099999726,1.0,0.0,0.0,0.0,1.0,0.0,0.0,0.0,1.0,81.5243911743,46.8292694092,11.0365858078,1.0,0.0,0.0,0.0,1.0,0.0,0.0,0.0,1.0,0.474051928711,-9.25598361816,15.5240035645,1.0,0.0,0.0,0.0,1.0,0.0,0.0,0.0,1.0
1464076547510094892,539,1464076547504294285,,7.61582279205,8.8098115921,-128.33215332,0.00122800003737,1.0,0.0,0.0,0.0,1.0,0.0,0.0,0.0,1.0,125.548774719,20.6707324982,-17.4390239716,1.0,0.0,0.0,0.0,1.0,0.0,0.0,0.0,1.0,-1.20667770978,-6.16267507324,9.99818613281,1.0,0.0,0.0,0.0,1.0,0.0,0.0,0.0,1.0
1464076547534820290,540,1464076547525114286,,8.28415584564,8.29762554169,-128.220932007,0.00115899997763,1.0,0.0,0.0,0.0,1.0,0.0,0.0,0.0,1.0,31.6463413239,-30.1219520569,6.28048801422,1.0,0.0,0.0,0.0,1.0,0.0,0.0,0.0,1.0,-3.36145913086,-24.1527063477,-10.6877162109,1.0,0.0,0.0,0.0,1.0,0.0,0.0,0.0,1.0
1464076547557487310,541,1464076547546186023,,9.00017642975,8.47484207153,-128.31880188,0.00138000003062,1.0,0.0,0.0,0.0,1.0,0.0,0.0,0.0,1.0,-83.7195129395,46.2195129395,-0.0609756112099,1.0,0.0,0.0,0.0,1.0,0.0,0.0,0.0,1.0,-22.8550490479,-20.4369053711,-15.442600708,1.0,0.0,0.0,0.0,1.0,0.0,0.0,0.0,1.0
1464076547574022018,542,1464076547567840212,,8.43294525146,9.40310955048,-128.826370239,0.00154800002929,1.0,0.0,0.0,0.0,1.0,0.0,0.0,0.0,1.0,-297.682922363,35.0609741211,-42.8658561707,1.0,0.0,0.0,0.0,1.0,0.0,0.0,0.0,1.0,7.58483085937,5.61679709473,34.8356318172,1.0,0.0,0.0,0.0,1.0,0.0,0.0,0.0,1.0
1464076547638085379,543,1464076547588743934,,8.52196979523,9.48426246643,-129.142471313,0.0012009999482,1.0,0.0,0.0,0.0,1.0,0.0,0.0,0.0,1.0,76.0975646973,-15.975610733,13.5975618362,1.0,0.0,0.0,0.0,1.0,0.0,0.0,0.0,1.0,7.73805976562,3.71580097656,-8.09719001465,1.0,0.0,0.0,0.0,1.0,0.0,0.0,0.0,1.0
1464076547638690181,544,1464076547610106793,,8.36845111847,7.36086177826,-129.347640991,0.00156500004232,1.0,0.0,0.0,0.0,1.0,0.0,0.0,0.0,1.0,-88.841468811,34.3292694092,-6.34146356583,1.0,0.0,0.0,0.0,1.0,0.0,0.0,0.0,1.0,-0.727837304687,-19.5462623535,14.6764561768,1.0,0.0,0.0,0.0,1.0,0.0,0.0,0.0,1.0
1464076547639123581,545,1464076547630860213,,7.79015827179,8.08761024475,-129.596221924,0.00116300000809,1.0,0.0,0.0,0.0,1.0,0.0,0.0,0.0,1.0,-122.439033508,-37.5,-26.5243911743,1.0,0.0,0.0,0.0,1.0,0.0,0.0,0.0,1.0,0.780509741211,5.08528432617,-0.368707055664,1.0,0.0,0.0,0.0,1.0,0.0,0.0,0.0,1.0
1464076547722920395,546,1464076547654130055,,6.21342372894,8.49133396149,-130.340087891,0.0118019999936,1.0,0.0,0.0,0.0,1.0,0.0,0.0,0.0,1.0,74.8170776367,-124.085365295,-8.23170757294,1.0,0.0,0.0,0.0,1.0,0.0,0.0,0.0,1.0,-6.06211860352,9.92157167969,12.8281324951,1.0,0.0,0.0,0.0,1.0,0.0,0.0,0.0,1.0
1464076547724832171,547,1464076547675547721,,4.91360378265,8.19900989532,-131.092941284,0.00199300004169,1.0,0.0,0.0,0.0,1.0,0.0,0.0,0.0,1.0,59.207321167,-168.10975647,0.365853667259,1.0,0.0,0.0,0.0,1.0,0.0,0.0,0.0,1.0,8.05409438477,20.1687547852,6.89051237793,1.0,0.0,0.0,0.0,1.0,0.0,0.0,0.0,1.0
1464076547724889322,548,1464076547695975166,,3.97917222977,8.25864887238,-131.798049927,0.00188899994828,1.0,0.0,0.0,0.0,1.0,0.0,0.0,0.0,1.0,351.829284668,-121.34147644,-25.8536586761,1.0,0.0,0.0,0.0,1.0,0.0,0.0,0.0,1.0,-5.94719692383,12.6030775391,12.1098719971,1.0,0.0,0.0,0.0,1.0,0.0,0.0,0.0,1.0
1464076547725530801,549,1464076547717707398,,2.47132277489,6.50952529907,-132.054473877,0.00162800005637,1.0,0.0,0.0,0.0,1.0,0.0,0.0,0.0,1.0,63.2926826477,-113.963417053,-3.35365867615,1.0,0.0,0.0,0.0,1.0,0.0,0.0,0.0,1.0,13.2399351807,-25.2875579346,2.64798703613,1.0,0.0,0.0,0.0,1.0,0.0,0.0,0.0,1.0
1464076548105587331,550,1464076547738141042,,0.626553833485,8.3563041687,-132.206665039,0.001511999988,1.0,0.0,0.0,0.0,1.0,0.0,0.0,0.0,1.0,142.560974121,-108.231712341,24.6951236725,1.0,0.0,0.0,0.0,1.0,0.0,0.0,0.0,1.0,-13.8863696289,35.8507756592,16.8982753174,1.0,0.0,0.0,0.0,1.0,0.0,0.0,0.0,1.0
1464076548105846361,551,1464076547759710312,,-0.492683619261,7.75709247589,-131.939437866,0.0013190000318,1.0,0.0,0.0,0.0,1.0,0.0,0.0,0.0,1.0,152.987808228,-58.5365867615,37.317073822,1.0,0.0,0.0,0.0,1.0,0.0,0.0,0.0,1.0,4.99430466309,-9.43794235981,2.37025978969,1.0,0.0,0.0,0.0,1.0,0.0,0.0,0.0,1.0
1464076548105896791,552,1464076547784081916,,-3.13759255409,8.599401474,-131.407989502,0.0115409996361,1.0,0.0,0.0,0.0,1.0,0.0,0.0,0.0,1.0,172.987808228,-101.402442932,36.2804908752,1.0,0.0,0.0,0.0,1.0,0.0,0.0,0.0,1.0,12.6126543457,-13.2590887939,16.8839089384,1.0,0.0,0.0,0.0,1.0,0.0,0.0,0.0,1.0
1464076548106288566,553,1464076547805181786,,-3.76374149323,10.2205848694,-131.201980591,0.00198199995793,1.0,0.0,0.0,0.0,1.0,0.0,0.0,0.0,1.0,-118.963417053,-12.0731716156,27.9268302917,1.0,0.0,0.0,0.0,1.0,0.0,0.0,0.0,1.0,8.61912656108,1.80043964844,25.1103870117,1.0,0.0,0.0,0.0,1.0,0.0,0.0,0.0,1.0
1464076548110144367,554,1464076547826746836,,-4.47611188889,10.7752828598,-130.827575684,0.00158100004774,1.0,0.0,0.0,0.0,1.0,0.0,0.0,0.0,1.0,24.2682933807,-111.036590576,36.7073173523,1.0,0.0,0.0,0.0,1.0,0.0,0.0,0.0,1.0,13.8624276123,3.50989963379,-17.9229924589,1.0,0.0,0.0,0.0,1.0,0.0,0.0,0.0,1.0
1464076548110215376,555,1464076547848487507,,-4.60519313812,9.04477214813,-130.439331055,0.00237799994648,1.0,0.0,0.0,0.0,1.0,0.0,0.0,0.0,1.0,104.451217651,-71.4634170532,37.682926178,1.0,0.0,0.0,0.0,1.0,0.0,0.0,0.0,1.0,0.215478149414,-2.01591779785,7.30231506348,1.0,0.0,0.0,0.0,1.0,0.0,0.0,0.0,1.0
1464076548110258304,556,1464076547870429171,,-4.98921918869,9.1877746582,-129.883972168,0.0019349999493,1.0,0.0,0.0,0.0,1.0,0.0,0.0,0.0,1.0,-142.256103516,22.3780498505,16.0975608826,1.0,0.0,0.0,0.0,1.0,0.0,0.0,0.0,1.0,-0.598550451572,2.18830031738,11.1138841064,1.0,0.0,0.0,0.0,1.0,0.0,0.0,0.0,1.0
1464076548110663259,557,1464076547891819173,,-5.14988279343,9.1356306076,-129.228408813,0.00176100002136,1.0,0.0,0.0,0.0,1.0,0.0,0.0,0.0,1.0,-3.65853667259,21.6463432312,24.2682933807,1.0,0.0,0.0,0.0,1.0,0.0,0.0,0.0,1.0,6.11957944336,-2.1930887207,4.88417138672,1.0,0.0,0.0,0.0,1.0,0.0,0.0,0.0,1.0
1464076548110903690,558,1464076547917265760,,-4.70177030563,7.84408140182,-128.488739014,0.00194500002544,1.0,0.0,0.0,0.0,1.0,0.0,0.0,0.0,1.0,-108.719512939,42.2560958862,35.1829299927,1.0,0.0,0.0,0.0,1.0,0.0,0.0,0.0,1.0,-9.01656345215,-17.4249996826,-3.9360675293,1.0,0.0,0.0,0.0,1.0,0.0,0.0,0.0,1.0
1464076548111139693,559,1464076547941138632,,-4.07822465897,11.4922113419,-127.807167053,0.00768900010735,1.0,0.0,0.0,0.0,1.0,0.0,0.0,0.0,1.0,6.89024400711,29.3292694092,4.63414621353,1.0,0.0,0.0,0.0,1.0,0.0,0.0,0.0,1.0,-7.36935270996,-9.03571706543,0.828393774414,1.0,0.0,0.0,0.0,1.0,0.0,0.0,0.0,1.0
1464076548118090199,560,1464076547964201803,,-3.93776297569,10.6225881577,-127.353439331,0.00161399994977,1.0,0.0,0.0,0.0,1.0,0.0,0.0,0.0,1.0,245.487808228,39.634147644,19.6951236725,1.0,0.0,0.0,0.0,1.0,0.0,0.0,0.0,1.0,5.516240625,-4.85065256348,7.70454094238,1.0,0.0,0.0,0.0,1.0,0.0,0.0,0.0,1.0
1464076548118149018,561,1464076547985029514,,-3.59062886238,11.0088214874,-127.087333679,0.00169499998447,1.0,0.0,0.0,0.0,1.0,0.0,0.0,0.0,1.0,-40.9756088257,20.2439022064,19.3902435303,1.0,0.0,0.0,0.0,1.0,0.0,0.0,0.0,1.0,0.713472094727,-19.7569520996,4.08450803223,1.0,0.0,0.0,0.0,1.0,0.0,0.0,0.0,1.0
1464076548118189393,562,1464076548006986391,,-3.33241915703,13.2491006851,-126.806037903,0.00285600009374,1.0,0.0,0.0,0.0,1.0,0.0,0.0,0.0,1.0,11.4634151459,23.475610733,4.20731735229,1.0,0.0,0.0,0.0,1.0,0.0,0.0,0.0,1.0,12.0907183838,14.8057430664,-4.0078935791,1.0,0.0,0.0,0.0,1.0,0.0,0.0,0.0,1.0
1464076548118222632,563,1464076548028337267,,-2.40824961662,9.01229095459,-125.827720642,0.00180399999954,1.0,0.0,0.0,0.0,1.0,0.0,0.0,0.0,1.0,31.7682914734,38.9634132385,80.9146347046,1.0,0.0,0.0,0.0,1.0,0.0,0.0,0.0,1.0,-1.15879360352,-30.152575708,34.9792862549,1.0,0.0,0.0,0.0,1.0,0.0,0.0,0.0,1.0
1464076548118503386,564,1464076548049190611,,-2.04586434364,11.6891202927,-125.007041931,0.00164999999106,1.0,0.0,0.0,0.0,1.0,0.0,0.0,0.0,1.0,-182.256103516,111.402442932,17.2560977936,1.0,0.0,0.0,0.0,1.0,0.0,0.0,0.0,1.0,-4.88417138672,9.36611631001,3.86424147949,1.0,0.0,0.0,0.0,1.0,0.0,0.0,0.0,1.0
1464076548118769032,565,1464076548070474021,,-0.766263365746,10.9475717545,-124.310958862,0.00201099994592,1.0,0.0,0.0,0.0,1.0,0.0,0.0,0.0,1.0,-37.4390220642,59.2682914734,33.1097564697,1.0,0.0,0.0,0.0,1.0,0.0,0.0,0.0,1.0,-2.24097275391,-4.39096584473,9.53371159526,1.0,0.0,0.0,0.0,1.0,0.0,0.0,0.0,1.0
1464076548380062146,566,1464076548093086026,,0.798013031483,10.6286201477,-123.704071045,0.0017340000486,1.0,0.0,0.0,0.0,1.0,0.0,0.0,0.0,1.0,-120.182937622,100.609764099,26.4024391174,1.0,0.0,0.0,0.0,1.0,0.0,0.0,0.0,1.0,3.03584770508,-19.2733233643,53.3715434082,1.0,0.0,0.0,0.0,1.0,0.0,0.0,0.0,1.0
1464076548380395467,567,1464076548112888195,,1.6579375267,12.4675312042,-123.342887878,0.00145099998917,1.0,0.0,0.0,0.0,1.0,0.0,0.0,0.0,1.0,-130.426834106,75.5487823486,-2.43902444839,1.0,0.0,0.0,0.0,1.0,0.0,0.0,0.0,1.0,6.33984599609,-0.804451757813,-3.41413156738,1.0,0.0,0.0,0.0,1.0,0.0,0.0,0.0,1.0
1464076548380711075,568,1464076548135038875,,3.02228689194,12.0042285919,-123.15398407,0.00195199996233,1.0,0.0,0.0,0.0,1.0,0.0,0.0,0.0,1.0,16.4024391174,80.6097564697,3.10975623131,1.0,0.0,0.0,0.0,1.0,0.0,0.0,0.0,1.0,-0.172382519531,-4.91290180664,14.3843635742,1.0,0.0,0.0,0.0,1.0,0.0,0.0,0.0,1.0
1464076548380761140,569,1464076548156403505,,4.14235544205,12.246096611,-122.657417297,0.00206799991429,1.0,0.0,0.0,0.0,1.0,0.0,0.0,0.0,1.0,-60.6707382202,81.9512176514,7.07317113876,1.0,0.0,0.0,0.0,1.0,0.0,0.0,0.0,1.0,-6.40209523926,-4.14196887207,22.0266552734,1.0,0.0,0.0,0.0,1.0,0.0,0.0,0.0,1.0
1464076548380800839,570,1464076548186634950,,6.0167517662,10.0099420547,-122.356956482,0.0135700004175,1.0,0.0,0.0,0.0,1.0,0.0,0.0,0.0,1.0,-218.414642334,48.5365867615,-13.7804880142,1.0,0.0,0.0,0.0,1.0,0.0,0.0,0.0,1.0,-5.40131894531,12.1960632568,-9.1697923584,1.0,0.0,0.0,0.0,1.0,0.0,0.0,0.0,1.0
1464076548381100921,571,1464076548206885420,,6.92914485931,9.51071929932,-122.252967834,0.00270799989812,1.0,0.0,0.0,0.0,1.0,0.0,0.0,0.0,1.0,274.573181152,45.0609779358,-12.3780488968,1.0,0.0,0.0,0.0,1.0,0.0,0.0,0.0,1.0,-11.4586491455,35.6592418645,53.7258852539,1.0,0.0,0.0,0.0,1.0,0.0,0.0,0.0,1.0
1464076548381155155,572,1464076548228241298,,7.7425494194,8.24936103821,-122.28553009,0.00269800005481,1.0,0.0,0.0,0.0,1.0,0.0,0.0,0.0,1.0,17.0731716156,-39.817073822,-20.4268302917,1.0,0.0,0.0,0.0,1.0,0.0,0.0,0.0,1.0,-5.88494768066,-17.9708788302,7.78115539551,1.0,0.0,0.0,0.0,1.0,0.0,0.0,0.0,1.0
1464076548381193239,573,1464076548249941593,,7.89957284927,9.70249557495,-122.633903503,0.00168700003996,1.0,0.0,0.0,0.0,1.0,0.0,0.0,0.0,1.0,-79.7560958862,-21.5243911743,-34.6951217651,1.0,0.0,0.0,0.0,1.0,0.0,0.0,0.0,1.0,-2.9927520752,12.4163298096,-5.92804331055,1.0,0.0,0.0,0.0,1.0,0.0,0.0,0.0,1.0
1464076548383532424,574,1464076548271124559,,7.68596172333,8.90419101715,-122.987930298,0.00188100000378,1.0,0.0,0.0,0.0,1.0,0.0,0.0,0.0,1.0,-41.5243911743,-8.47560977936,3.90243911743,1.0,0.0,0.0,0.0,1.0,0.0,0.0,0.0,1.0,-1.70945998535,-1.58496149902,-0.823605371094,1.0,0.0,0.0,0.0,1.0,0.0,0.0,0.0,1.0
1464076548383897108,575,1464076548293440440,,7.36160707474,8.45121765137,-123.136489868,0.00167499994859,1.0,0.0,0.0,0.0,1.0,0.0,0.0,0.0,1.0,-86.9512252808,-6.15853643417,-10.9756097794,1.0,0.0,0.0,0.0,1.0,0.0,0.0,0.0,1.0,-4.20900622629,-8.85854614258,-8.08282480469,1.0,0.0,0.0,0.0,1.0,0.0,0.0,0.0,1.0
1464076548384170047,576,1464076548318328540,,7.48602342606,8.83351230621,-123.821388245,0.0123239997774,1.0,0.0,0.0,0.0,1.0,0.0,0.0,0.0,1.0,146.707321167,-27.1951236725,-25.6097564697,1.0,0.0,0.0,0.0,1.0,0.0,0.0,0.0,1.0,-7.74284816895,-24.5357786133,6.94318481445,1.0,0.0,0.0,0.0,1.0,0.0,0.0,0.0,1.0
1464076548384422877,577,1464076548339365580,,7.29516839981,7.37495470047,-123.758552551,0.00271999998949,1.0,0.0,0.0,0.0,1.0,0.0,0.0,0.0,1.0,-72.6219558716,-2.80487799644,1.76829278469,1.0,0.0,0.0,0.0,1.0,0.0,0.0,0.0,1.0,-4.81234562918,-31.3688301514,25.0433493652,1.0,0.0,0.0,0.0,1.0,0.0,0.0,0.0,1.0
1464076548386165440,578,1464076548360614606,,6.88968372345,11.7751550674,-124.075683594,0.0027499999851,1.0,0.0,0.0,0.0,1.0,0.0,0.0,0.0,1.0,127.56098175,-123.841461182,-21.0975627899,1.0,0.0,0.0,0.0,1.0,0.0,0.0,0.0,1.0,-0.148440512063,34.8260573486,29.8556947021,1.0,0.0,0.0,0.0,1.0,0.0,0.0,0.0,1.0
1464076548796930944,579,1464076548380959685,,7.43381214142,6.10523033142,-124.007980347,0.00210099993274,1.0,0.0,0.0,0.0,1.0,0.0,0.0,0.0,1.0,-148.719512939,-25.4878044128,-28.9634151459,1.0,0.0,0.0,0.0,1.0,0.0,0.0,0.0,1.0,-10.5823713379,-62.3210692139,-3.65834013672,1.0,0.0,0.0,0.0,1.0,0.0,0.0,0.0,1.0
1464076548797242592,580,1464076548401394059,,6.10987281799,9.69107437134,-123.811485291,0.00139800005127,1.0,0.0,0.0,0.0,1.0,0.0,0.0,0.0,1.0,-140.304885864,-24.2682933807,-14.3292694092,1.0,0.0,0.0,0.0,1.0,0.0,0.0,0.0,1.0,-3.93127912598,51.4657588867,-17.8128603516,1.0,0.0,0.0,0.0,1.0,0.0,0.0,0.0,1.0
1464076548798675747,581,1464076548423794651,,6.33991003036,6.30136966705,-123.561683655,0.00145800004248,1.0,0.0,0.0,0.0,1.0,0.0,0.0,0.0,1.0,273.17074585,6.95121955872,-27.8658542633,1.0,0.0,0.0,0.0,1.0,0.0,0.0,0.0,1.0,9.91678327637,-12.9813614014,-10.5105452881,1.0,0.0,0.0,0.0,1.0,0.0,0.0,0.0,1.0
1464076548799022978,582,1464076548444225847,,6.2482047081,5.7807226181,-123.575172424,0.00178399996366,1.0,0.0,0.0,0.0,1.0,0.0,0.0,0.0,1.0,49.5731735229,6.21951246262,33.9634132385,1.0,0.0,0.0,0.0,1.0,0.0,0.0,0.0,1.0,-10.8936175537,-21.8590611572,-9.93593688965,1.0,0.0,0.0,0.0,1.0,0.0,0.0,0.0,1.0
1464076548799341086,583,1464076548465543694,,5.57143592834,7.3938164711,-123.667442322,0.00227999989875,1.0,0.0,0.0,0.0,1.0,0.0,0.0,0.0,1.0,35.4268302917,-46.4024391174,-8.35365867615,1.0,0.0,0.0,0.0,1.0,0.0,0.0,0.0,1.0,-6.52659372559,8.93994899902,8.06845959473,1.0,0.0,0.0,0.0,1.0,0.0,0.0,0.0,1.0
1464076548800553659,584,1464076548486204849,,5.06968450546,6.72099304199,-124.28818512,0.00148500001524,1.0,0.0,0.0,0.0,1.0,0.0,0.0,0.0,1.0,72.0121994019,-105.365859985,-8.59756088257,1.0,0.0,0.0,0.0,1.0,0.0,0.0,0.0,1.0,-2.39899020961,10.046070166,3.78762702637,1.0,0.0,0.0,0.0,1.0,0.0,0.0,0.0,1.0
1464076548801232075,585,1464076548507367549,,4.16430902481,6.85265350342,-124.774307251,0.00159899995197,1.0,0.0,0.0,0.0,1.0,0.0,0.0,0.0,1.0,-1.58536589146,-64.0853729248,-5.67073154449,1.0,0.0,0.0,0.0,1.0,0.0,0.0,0.0,1.0,-3.01190568848,-1.8148048584,1.98239897461,1.0,0.0,0.0,0.0,1.0,0.0,0.0,0.0,1.0
1464076548801515695,586,1464076548528055170,,3.14255237579,6.80041837692,-124.994499207,0.00145700003486,1.0,0.0,0.0,0.0,1.0,0.0,0.0,0.0,1.0,82.5609817505,-58.1097564697,-8.35365867615,1.0,0.0,0.0,0.0,1.0,0.0,0.0,0.0,1.0,-2.44208569336,-1.83395847168,11.7986257812,1.0,0.0,0.0,0.0,1.0,0.0,0.0,0.0,1.0
1464076548804250875,587,1464076548549782191,,1.92805624008,5.43487644196,-125.053382874,0.00160299998242,1.0,0.0,0.0,0.0,1.0,0.0,0.0,0.0,1.0,-132.804870605,14.8780498505,-14.2073173523,1.0,0.0,0.0,0.0,1.0,0.0,0.0,0.0,1.0,7.9439611084,-27.6051451416,28.2707332031,1.0,0.0,0.0,0.0,1.0,0.0,0.0,0.0,1.0
1464076548804617903,588,1464076548570590679,,0.935726523399,6.52319002151,-124.411506653,0.00150100002065,1.0,0.0,0.0,0.0,1.0,0.0,0.0,0.0,1.0,-65.6707305908,2.74390244484,19.4512195587,1.0,0.0,0.0,0.0,1.0,0.0,0.0,0.0,1.0,5.06134230957,4.24731403738,0.746990917969,1.0,0.0,0.0,0.0,1.0,0.0,0.0,0.0,1.0
1464076548804913193,589,1464076548591915402,,1.00030708313,6.34957361221,-123.729492188,0.00155299995095,1.0,0.0,0.0,0.0,1.0,0.0,0.0,0.0,1.0,-48.6585388184,30.3658542633,14.0853662491,1.0,0.0,0.0,0.0,1.0,0.0,0.0,0.0,1.0,0.928950244141,-4.30956328054,21.0258789795,1.0,0.0,0.0,0.0,1.0,0.0,0.0,0.0,1.0
1464076548807076913,590,1464076548613970223,,0.666198790073,5.4007101059,-123.498596191,0.00166599999648,1.0,0.0,0.0,0.0,1.0,0.0,0.0,0.0,1.0,-181.219512939,16.0975608826,1.70731711388,1.0,0.0,0.0,0.0,1.0,0.0,0.0,0.0,1.0,7.3310454834,-24.6315466797,57.7146252197,1.0,0.0,0.0,0.0,1.0,0.0,0.0,0.0,1.0
1464076548807397731,591,1464076548634203864,,0.6388438344,6.99704313278,-123.070999146,0.0018609999679,1.0,0.0,0.0,0.0,1.0,0.0,0.0,0.0,1.0,-105.426834106,-5.60975599289,11.0365858078,1.0,0.0,0.0,0.0,1.0,0.0,0.0,0.0,1.0,10.7978494873,11.4155535156,18.6029468994,1.0,0.0,0.0,0.0,1.0,0.0,0.0,0.0,1.0
1464076548807693854,592,1464076548654567386,,0.657978534698,6.51124572754,-123.04322052,0.0018680000212,1.0,0.0,0.0,0.0,1.0,0.0,0.0,0.0,1.0,42.8048782349,-1.40243899822,4.45121955872,1.0,0.0,0.0,0.0,1.0,0.0,0.0,0.0,1.0,2.69587106934,5.48751020508,-9.24640681152,1.0,0.0,0.0,0.0,1.0,0.0,0.0,0.0,1.0
1464076548808068801,593,1464076548676261898,,0.686949074268,5.66528081894,-122.960365295,0.00123699998949,1.0,0.0,0.0,0.0,1.0,0.0,0.0,0.0,1.0,175.487808228,-17.0121955872,19.817073822,1.0,0.0,0.0,0.0,1.0,0.0,0.0,0.0,1.0,-13.7331407227,32.992098877,30.8468941895,1.0,0.0,0.0,0.0,1.0,0.0,0.0,0.0,1.0
1464076548808849484,594,1464076548697434653,,1.01967024803,5.16014480591,-122.546829224,0.00151700002607,1.0,0.0,0.0,0.0,1.0,0.0,0.0,0.0,1.0,237.865859985,-87.2561035156,3.84146332741,1.0,0.0,0.0,0.0,1.0,0.0,0.0,0.0,1.0,2.48518132324,-16.9030625517,24.4208569336,1.0,0.0,0.0,0.0,1.0,0.0,0.0,0.0,1.0
1464076548809264390,595,1464076548717993697,,0.687133312225,5.47213840485,-122.408729553,0.001304000034,1.0,0.0,0.0,0.0,1.0,0.0,0.0,0.0,1.0,-376.463439941,28.1707324982,12.2560977936,1.0,0.0,0.0,0.0,1.0,0.0,0.0,0.0,1.0,13.2926076172,4.60165559082,11.0707884766,1.0,0.0,0.0,0.0,1.0,0.0,0.0,0.0,1.0
1464076548809557700,596,1464076548738311529,,0.64797103405,5.64596939087,-122.233673096,0.00156500004232,1.0,0.0,0.0,0.0,1.0,0.0,0.0,0.0,1.0,153.17074585,-60.9146347046,16.8292694092,1.0,0.0,0.0,0.0,1.0,0.0,0.0,0.0,1.0,-1.96324536133,40.2273762939,-6.24886633301,1.0,0.0,0.0,0.0,1.0,0.0,0.0,0.0,1.0
1464076548815121836,597,1464076548758800345,,0.567884266376,5.1613702774,-122.381629944,0.00127899996005,1.0,0.0,0.0,0.0,1.0,0.0,0.0,0.0,1.0,58.2317085266,-38.6585388184,-5.54878091812,1.0,0.0,0.0,0.0,1.0,0.0,0.0,0.0,1.0,3.88339509277,-6.11000263672,23.7887876953,1.0,0.0,0.0,0.0,1.0,0.0,0.0,0.0,1.0
1464076548815749144,598,1464076548779286712,,-0.292608290911,5.47118711472,-122.627845764,0.00158200005535,1.0,0.0,0.0,0.0,1.0,0.0,0.0,0.0,1.0,-177.5,-40.9756088257,-15.2439022064,1.0,0.0,0.0,0.0,1.0,0.0,0.0,0.0,1.0,5.8226984375,-3.07894333496,-7.6614453125,1.0,0.0,0.0,0.0,1.0,0.0,0.0,0.0,1.0
1464076548816153109,599,1464076548802072463,,-0.664093434811,4.27113437653,-122.939956665,0.011322000064,1.0,0.0,0.0,0.0,1.0,0.0,0.0,0.0,1.0,-3.7804877758,-43.9634170532,-6.58536624908,1.0,0.0,0.0,0.0,1.0,0.0,0.0,0.0,1.0,2.93050283203,30.5883204102,-20.3555025146,1.0,0.0,0.0,0.0,1.0,0.0,0.0,0.0,1.0
1464076549439132176,600,1464076548823153473,,-1.42807376385,3.42604589462,-122.857215881,0.00125199998729,1.0,0.0,0.0,0.0,1.0,0.0,0.0,0.0,1.0,123.841461182,-66.9512252808,-8.90243911743,1.0,0.0,0.0,0.0,1.0,0.0,0.0,0.0,1.0,4.86980617676,9.07402429199,24.5214134033,1.0,0.0,0.0,0.0,1.0,0.0,0.0,0.0,1.0
1464076549439406158,601,1464076548844294344,,-1.78877615929,3.6337723732,-122.652153015,0.00150799995754,1.0,0.0,0.0,0.0,1.0,0.0,0.0,0.0,1.0,-171.280502319,28.5365848541,22.8658542633,1.0,0.0,0.0,0.0,1.0,0.0,0.0,0.0,1.0,8.77714328613,-18.9237687528,61.7368840088,1.0,0.0,0.0,0.0,1.0,0.0,0.0,0.0,1.0
1464076549439454036,602,1464076548865546235,,-2.01975727081,5.39390611649,-122.075805664,0.00221999990754,1.0,0.0,0.0,0.0,1.0,0.0,0.0,0.0,1.0,-60.8536643982,16.8292694092,33.5365867615,1.0,0.0,0.0,0.0,1.0,0.0,0.0,0.0,1.0,8.89685336914,16.3811277588,3.0166940918,1.0,0.0,0.0,0.0,1.0,0.0,0.0,0.0,1.0
