%time,field.header.seq,field.header.stamp,field.header.frame_id,field.orientation.x,field.orientation.y,field.orientation.z,field.orientation.w,field.orientation_covariance0,field.orientation_covariance1,field.orientation_covariance2,field.orientation_covariance3,field.orientation_covariance4,field.orientation_covariance5,field.orientation_covariance6,field.orientation_covariance7,field.orientation_covariance8,field.angular_velocity.x,field.angular_velocity.y,field.angular_velocity.z,field.angular_velocity_covariance0,field.angular_velocity_covariance1,field.angular_velocity_covariance2,field.angular_velocity_covariance3,field.angular_velocity_covariance4,field.angular_velocity_covariance5,field.angular_velocity_covariance6,field.angular_velocity_covariance7,field.angular_velocity_covariance8,field.linear_acceleration.x,field.linear_acceleration.y,field.linear_acceleration.z,field.linear_acceleration_covariance0,field.linear_acceleration_covariance1,field.linear_acceleration_covariance2,field.linear_acceleration_covariance3,field.linear_acceleration_covariance4,field.linear_acceleration_covariance5,field.linear_acceleration_covariance6,field.linear_acceleration_covariance7,field.linear_acceleration_covariance8
1463935342993672179,217,1463935342737299629,,9.44827079773,-11.6046743393,163.946014404,0.00137700000778,1.0,0.0,0.0,0.0,1.0,0.0,0.0,0.0,1.0,-14.6341466904,-0.731707334518,3.47560977936,1.0,0.0,0.0,0.0,1.0,0.0,0.0,0.0,1.0,0.31124621582,-2.92571442871,12.3061965332,1.0,0.0,0.0,0.0,1.0,0.0,0.0,0.0,1.0
1463935342994021553,218,1463935342763839620,,9.3466501236,-11.8431777954,164.222625732,0.0130559997633,1.0,0.0,0.0,0.0,1.0,0.0,0.0,0.0,1.0,-1.46341466904,-3.96341490746,5.67073154449,1.0,0.0,0.0,0.0,1.0,0.0,0.0,0.0,1.0,-0.794874951172,-4.19942941965,13.7666595459,1.0,0.0,0.0,0.0,1.0,0.0,0.0,0.0,1.0
1463935342994062021,219,1463935342785665881,,9.13585853577,-11.7087440491,164.593322754,0.00463799992576,1.0,0.0,0.0,0.0,1.0,0.0,0.0,0.0,1.0,11.6463422775,-9.02439117432,8.29268264771,1.0,0.0,0.0,0.0,1.0,0.0,0.0,0.0,1.0,-0.292092584273,-2.63841022949,14.3125375244,1.0,0.0,0.0,0.0,1.0,0.0,0.0,0.0,1.0
1463935342994098427,220,1463935342807710943,,8.88521671295,-11.3337373734,164.994949341,0.00190200004727,1.0,0.0,0.0,0.0,1.0,0.0,0.0,0.0,1.0,8.10975551605,-13.4756097794,8.29268264771,1.0,0.0,0.0,0.0,1.0,0.0,0.0,0.0,1.0,-0.248996972656,-0.450109912109,13.4745669434,1.0,0.0,0.0,0.0,1.0,0.0,0.0,0.0,1.0
1463935342994191239,221,1463935342828716791,,8.5952091217,-11.0532808304,165.382034302,0.00208200002089,1.0,0.0,0.0,0.0,1.0,0.0,0.0,0.0,1.0,-4.08536577225,-12.0731716156,7.13414621353,1.0,0.0,0.0,0.0,1.0,0.0,0.0,0.0,1.0,-0.354341845703,0.186747729492,11.8704518311,1.0,0.0,0.0,0.0,1.0,0.0,0.0,0.0,1.0
1463935342994319624,222,1463935342856168340,,8.08658218384,-11.1519098282,165.686584473,0.00807899981737,1.0,0.0,0.0,0.0,1.0,0.0,0.0,0.0,1.0,-12.0731716156,-22.682926178,-7.07317113876,1.0,0.0,0.0,0.0,1.0,0.0,0.0,0.0,1.0,-0.565031591797,-1.39821376953,10.2567599121,1.0,0.0,0.0,0.0,1.0,0.0,0.0,0.0,1.0
1463935342994410666,223,1463935342877422207,,7.50717306137,-11.3945074081,165.687927246,0.00212899991311,1.0,0.0,0.0,0.0,1.0,0.0,0.0,0.0,1.0,-8.35365867615,-23.1097564697,-13.5365858078,1.0,0.0,0.0,0.0,1.0,0.0,0.0,0.0,1.0,0.268150604204,-2.14041643031,9.92636008301,1.0,0.0,0.0,0.0,1.0,0.0,0.0,0.0,1.0
1463935342994448999,224,1463935342900056486,,6.98687458038,-11.5939683914,165.657745361,0.00265199993737,1.0,0.0,0.0,0.0,1.0,0.0,0.0,0.0,1.0,-0.792682945728,-11.341463089,-8.29268264771,1.0,0.0,0.0,0.0,1.0,0.0,0.0,0.0,1.0,0.488417138672,-2.84909997559,10.5105452881,1.0,0.0,0.0,0.0,1.0,0.0,0.0,0.0,1.0
1463935342994559884,225,1463935342922048527,,6.7751955986,-11.5933427811,165.72064209,0.00425799982622,1.0,0.0,0.0,0.0,1.0,0.0,0.0,0.0,1.0,10.1829271317,0.914634168148,-1.2804877758,1.0,0.0,0.0,0.0,1.0,0.0,0.0,0.0,1.0,0.31124621582,-3.03105930176,10.793061084,1.0,0.0,0.0,0.0,1.0,0.0,0.0,0.0,1.0
1463935342994595769,226,1463935342960580185,,7.05964326859,-10.9796199799,166.079910278,0.0179650001228,1.0,0.0,0.0,0.0,1.0,0.0,0.0,0.0,1.0,17.8048782349,9.08536529541,6.52439069748,1.0,0.0,0.0,0.0,1.0,0.0,0.0,0.0,1.0,-0.699106884766,-1.39821376953,10.3333743652,1.0,0.0,0.0,0.0,1.0,0.0,0.0,0.0,1.0
1463935342994642956,227,1463935342981785876,,7.28681564331,-10.5349960327,166.356384277,0.00202700006776,1.0,0.0,0.0,0.0,1.0,0.0,0.0,0.0,1.0,15.1829271317,5.30487823486,6.52439069748,1.0,0.0,0.0,0.0,1.0,0.0,0.0,0.0,1.0,-1.01514150391,-0.684741674805,9.36611631001,1.0,0.0,0.0,0.0,1.0,0.0,0.0,0.0,1.0
1463935343005427181,228,1463935343003147659,,7.36786174774,-10.1228017807,166.620635986,0.00211300002411,1.0,0.0,0.0,0.0,1.0,0.0,0.0,0.0,1.0,8.17073154449,-2.19512200356,3.04878044128,1.0,0.0,0.0,0.0,1.0,0.0,0.0,0.0,1.0,-0.708683691406,-0.397437475586,8.84418093262,1.0,0.0,0.0,0.0,1.0,0.0,0.0,0.0,1.0
1463935343030640875,229,1463935343026131676,,7.26965045929,-9.88873100281,166.821609497,0.00238800002262,1.0,0.0,0.0,0.0,1.0,0.0,0.0,0.0,1.0,-0.487804889679,-7.43902492523,-1.03658533096,1.0,0.0,0.0,0.0,1.0,0.0,0.0,0.0,1.0,-0.258573779297,-0.397437475586,8.54730051128,1.0,0.0,0.0,0.0,1.0,0.0,0.0,0.0,1.0
1463935343048253092,230,1463935343046480183,,7.03610372543,-9.86691856384,166.973205566,0.0017419999931,1.0,0.0,0.0,0.0,1.0,0.0,0.0,0.0,1.0,-5.91463422775,-3.7804877758,-1.2804877758,1.0,0.0,0.0,0.0,1.0,0.0,0.0,0.0,1.0,0.411802685547,-0.713472094727,8.18338127441,1.0,0.0,0.0,0.0,1.0,0.0,0.0,0.0,1.0
1463935343072650644,231,1463935343070787006,,6.92821264267,-9.97786140442,167.148040771,0.00339099997655,1.0,0.0,0.0,0.0,1.0,0.0,0.0,0.0,1.0,-9.20731735229,4.87804889679,2.01219511032,1.0,0.0,0.0,0.0,1.0,0.0,0.0,0.0,1.0,0.483628735352,-0.77093293457,7.80030900879,1.0,0.0,0.0,0.0,1.0,0.0,0.0,0.0,1.0
1463935343093095869,232,1463935343091144314,,7.02120828629,-10.1695709229,167.336166382,0.00117399997544,1.0,0.0,0.0,0.0,1.0,0.0,0.0,0.0,1.0,-11.8292684555,10.7926826477,3.47560977936,1.0,0.0,0.0,0.0,1.0,0.0,0.0,0.0,1.0,0.15322890625,-1.04866025408,7.71890615234,1.0,0.0,0.0,0.0,1.0,0.0,0.0,0.0,1.0
1463935343113744530,233,1463935343111662300,,7.21303415298,-10.3960905075,167.497634888,0.00207699998282,1.0,0.0,0.0,0.0,1.0,0.0,0.0,0.0,1.0,-11.4634151459,9.63414573669,1.70731711388,1.0,0.0,0.0,0.0,1.0,0.0,0.0,0.0,1.0,-0.234631762695,-1.35032973633,7.79073220215,1.0,0.0,0.0,0.0,1.0,0.0,0.0,0.0,1.0
1463935343138535674,234,1463935343135434281,,7.37098789215,-10.63489151,167.625320435,0.00258399988525,1.0,0.0,0.0,0.0,1.0,0.0,0.0,0.0,1.0,-8.47560977936,7.62195110321,-0.243902444839,1.0,0.0,0.0,0.0,1.0,0.0,0.0,0.0,1.0,-0.148440512063,-1.16358193377,7.64229169922,1.0,0.0,0.0,0.0,1.0,0.0,0.0,0.0,1.0
1463935343163685723,235,1463935343160339539,,7.46435594559,-10.8124294281,167.706268311,0.00117800000589,1.0,0.0,0.0,0.0,1.0,0.0,0.0,0.0,1.0,-5.73170757294,2.13414645195,-3.41463422775,1.0,0.0,0.0,0.0,1.0,0.0,0.0,0.0,1.0,-0.263362164351,-1.64242233887,8.52335849468,1.0,0.0,0.0,0.0,1.0,0.0,0.0,0.0,1.0
1463935343209292976,236,1463935343176577595,,7.36783456802,-10.9394216537,167.682830811,0.00776599999517,1.0,0.0,0.0,0.0,1.0,0.0,0.0,0.0,1.0,-2.98780488968,-4.81707286835,-10.7317075729,1.0,0.0,0.0,0.0,1.0,0.0,0.0,0.0,1.0,-0.196324536133,-1.67594116211,8.74841286621,1.0,0.0,0.0,0.0,1.0,0.0,0.0,0.0,1.0
1463935343209591777,237,1463935343198080941,,7.10981321335,-11.038269043,167.563949585,0.00145800004248,1.0,0.0,0.0,0.0,1.0,0.0,0.0,0.0,1.0,-1.15853655338,-10.4878053665,-15.975610733,1.0,0.0,0.0,0.0,1.0,0.0,0.0,0.0,1.0,-0.325611425781,-2.02549460449,9.65342167827,1.0,0.0,0.0,0.0,1.0,0.0,0.0,0.0,1.0
1463935343220682250,238,1463935343218884445,,6.76053142548,-11.1028871536,167.372817993,0.00151099998038,1.0,0.0,0.0,0.0,1.0,0.0,0.0,0.0,1.0,2.13414645195,-14.7560987473,-19.5731716156,1.0,0.0,0.0,0.0,1.0,0.0,0.0,0.0,1.0,-0.3064578125,-2.33195227086,10.8505219238,1.0,0.0,0.0,0.0,1.0,0.0,0.0,0.0,1.0
1463935343245626102,239,1463935343239192015,,6.33585643768,-11.1035194397,167.146560669,0.00112300005276,1.0,0.0,0.0,0.0,1.0,0.0,0.0,0.0,1.0,5.48780488968,-16.0365848541,-21.7073173523,1.0,0.0,0.0,0.0,1.0,0.0,0.0,0.0,1.0,-0.0957680664062,-2.64319863281,12.0141039307,1.0,0.0,0.0,0.0,1.0,0.0,0.0,0.0,1.0
1463935343265581329,240,1463935343260896974,,5.88060331345,-11.0466451645,166.848876953,0.00128199998289,1.0,0.0,0.0,0.0,1.0,0.0,0.0,0.0,1.0,9.5731716156,-15.8536596298,-25.0,1.0,0.0,0.0,0.0,1.0,0.0,0.0,0.0,1.0,-0.210689746094,-2.72938989258,12.018892334,1.0,0.0,0.0,0.0,1.0,0.0,0.0,0.0,1.0
1463935343381727083,241,1463935343282297195,,5.42347431183,-10.8783121109,166.504074097,0.00133200001437,1.0,0.0,0.0,0.0,1.0,0.0,0.0,0.0,1.0,10.7926826477,-13.1097564697,-26.2195129395,1.0,0.0,0.0,0.0,1.0,0.0,0.0,0.0,1.0,0.445321508789,-2.00634099121,12.2678893066,1.0,0.0,0.0,0.0,1.0,0.0,0.0,0.0,1.0
1463935343382002811,242,1463935343303708770,,5.05720567703,-10.7411432266,166.133132935,0.00116099999286,1.0,0.0,0.0,0.0,1.0,0.0,0.0,0.0,1.0,9.69512176514,-6.09756088257,-27.5,1.0,0.0,0.0,0.0,1.0,0.0,0.0,0.0,1.0,0.526724328702,-3.03105930176,12.124237207,1.0,0.0,0.0,0.0,1.0,0.0,0.0,0.0,1.0
1463935343383099368,243,1463935343325601385,,4.83332872391,-10.6245718002,165.671279907,0.00176200002898,1.0,0.0,0.0,0.0,1.0,0.0,0.0,0.0,1.0,18.7804889679,0.304878056049,-27.7439041138,1.0,0.0,0.0,0.0,1.0,0.0,0.0,0.0,1.0,0.253785375977,-3.91691391602,12.8041904785,1.0,0.0,0.0,0.0,1.0,0.0,0.0,0.0,1.0
1463935343383460304,244,1463935343347110095,,4.86936998367,-10.2402200699,165.297515869,0.00147400004789,1.0,0.0,0.0,0.0,1.0,0.0,0.0,0.0,1.0,25.6707324982,9.51219558716,-20.7317085266,1.0,0.0,0.0,0.0,1.0,0.0,0.0,0.0,1.0,0.00478840332031,-2.55221896973,12.4163298096,1.0,0.0,0.0,0.0,1.0,0.0,0.0,0.0,1.0
1463935343383758011,245,1463935343368909794,,4.97083950043,-9.71213912964,164.95249939,0.00158100004774,1.0,0.0,0.0,0.0,1.0,0.0,0.0,0.0,1.0,21.7682933807,12.0121955872,-22.8658542633,1.0,0.0,0.0,0.0,1.0,0.0,0.0,0.0,1.0,0.440533105469,-0.584185168546,11.3676694824,1.0,0.0,0.0,0.0,1.0,0.0,0.0,0.0,1.0
1463935343422584147,246,1463935343394040103,,5.03215074539,-9.28239536285,164.484313965,0.00152599997818,1.0,0.0,0.0,0.0,1.0,0.0,0.0,0.0,1.0,8.10975551605,10.0,-35.8536605835,1.0,0.0,0.0,0.0,1.0,0.0,0.0,0.0,1.0,0.392649072266,-0.0287304199219,9.92636008301,1.0,0.0,0.0,0.0,1.0,0.0,0.0,0.0,1.0
1463935343422922844,247,1463935343410591334,,5.03318977356,-9.1497964859,163.774246216,0.00118999998085,1.0,0.0,0.0,0.0,1.0,0.0,0.0,0.0,1.0,1.40243899822,8.10975551605,-41.8292694092,1.0,0.0,0.0,0.0,1.0,0.0,0.0,0.0,1.0,0.378283862305,-0.876277807617,9.50498117534,1.0,0.0,0.0,0.0,1.0,0.0,0.0,0.0,1.0
1463935343451696315,248,1463935343431243329,,5.0078959465,-9.25946998596,162.963668823,0.00145199999679,1.0,0.0,0.0,0.0,1.0,0.0,0.0,0.0,1.0,1.2804877758,9.5731716156,-45.7926826477,1.0,0.0,0.0,0.0,1.0,0.0,0.0,0.0,1.0,0.675164868164,-2.06859023437,9.73961235352,1.0,0.0,0.0,0.0,1.0,0.0,0.0,0.0,1.0
1463935343457635456,249,1463935343453285162,,5.07895755768,-9.37455844879,162.091918945,0.00163700000849,1.0,0.0,0.0,0.0,1.0,0.0,0.0,0.0,1.0,7.19512224197,18.2317085266,-42.2560958862,1.0,0.0,0.0,0.0,1.0,0.0,0.0,0.0,1.0,0.526724328702,-2.67192905273,10.5057568848,1.0,0.0,0.0,0.0,1.0,0.0,0.0,0.0,1.0
1463935343509783775,250,1463935343473908407,,5.32185840607,-9.33840370178,161.303314209,0.00168900005519,1.0,0.0,0.0,0.0,1.0,0.0,0.0,0.0,1.0,11.5243911743,25.3658542633,-38.1097564697,1.0,0.0,0.0,0.0,1.0,0.0,0.0,0.0,1.0,0.708683691406,-2.35589428746,11.0133276367,1.0,0.0,0.0,0.0,1.0,0.0,0.0,0.0,1.0
1463935343509835077,251,1463935343495269462,,5.79143953323,-9.21965122223,160.627716064,0.00124899996445,1.0,0.0,0.0,0.0,1.0,0.0,0.0,0.0,1.0,12.4390249252,32.134147644,-30.0609760284,1.0,0.0,0.0,0.0,1.0,0.0,0.0,0.0,1.0,-0.100556469727,-1.93930334473,10.8457335205,1.0,0.0,0.0,0.0,1.0,0.0,0.0,0.0,1.0
1463935343529111869,252,1463935343517171556,,6.36589574814,-9.00581073761,160.110900879,0.00148400000762,1.0,0.0,0.0,0.0,1.0,0.0,0.0,0.0,1.0,10.6707315445,30.1219520569,-22.682926178,1.0,0.0,0.0,0.0,1.0,0.0,0.0,0.0,1.0,-0.426167895508,-0.550666381836,9.77791958008,1.0,0.0,0.0,0.0,1.0,0.0,0.0,0.0,1.0
1463935343540556195,253,1463935343538417194,,6.84013319016,-8.80360889435,159.744659424,0.00138699996751,1.0,0.0,0.0,0.0,1.0,0.0,0.0,0.0,1.0,2.37804889679,17.3780498505,-21.341463089,1.0,0.0,0.0,0.0,1.0,0.0,0.0,0.0,1.0,-0.368707055664,0.210689746094,8.82023891602,1.0,0.0,0.0,0.0,1.0,0.0,0.0,0.0,1.0
1463935343588608438,254,1463935343561501001,,7.05114650726,-8.75863647461,159.387619019,0.00284099997953,1.0,0.0,0.0,0.0,1.0,0.0,0.0,0.0,1.0,-8.84146404266,9.32926845551,-21.5853652954,1.0,0.0,0.0,0.0,1.0,0.0,0.0,0.0,1.0,-0.335188232422,0.105344873047,8.19295808105,1.0,0.0,0.0,0.0,1.0,0.0,0.0,0.0,1.0
1463935343589192810,255,1463935343582068570,,7.19937515259,-8.95182704926,159.139953613,0.00318300002255,1.0,0.0,0.0,0.0,1.0,0.0,0.0,0.0,1.0,-14.6341466904,10.0609760284,-13.4146347046,1.0,0.0,0.0,0.0,1.0,0.0,0.0,0.0,1.0,-0.890643017578,-0.272938989258,7.92480749512,1.0,0.0,0.0,0.0,1.0,0.0,0.0,0.0,1.0
1463935343616976181,256,1463935343604730869,,7.24997472763,-9.22405719757,159.100784302,0.00327400001697,1.0,0.0,0.0,0.0,1.0,0.0,0.0,0.0,1.0,-17.6829280853,3.47560977936,-8.10975551605,1.0,0.0,0.0,0.0,1.0,0.0,0.0,0.0,1.0,0.368707055664,-0.354341845703,6.90008918457,1.0,0.0,0.0,0.0,1.0,0.0,0.0,0.0,1.0
1463935343640370300,257,1463935343626025048,,7.15674877167,-9.5728225708,159.101593018,0.00333300000057,1.0,0.0,0.0,0.0,1.0,0.0,0.0,0.0,1.0,-20.0,2.68292689323,-6.28048801422,1.0,0.0,0.0,0.0,1.0,0.0,0.0,0.0,1.0,1.09654436035,-0.421379492187,7.05810649414,1.0,0.0,0.0,0.0,1.0,0.0,0.0,0.0,1.0
1463935343652965923,258,1463935343651519939,,7.20191049576,-9.94039154053,159.205184937,0.00207899999805,1.0,0.0,0.0,0.0,1.0,0.0,0.0,0.0,1.0,-21.2195129395,11.2195119858,2.98780488968,1.0,0.0,0.0,0.0,1.0,0.0,0.0,0.0,1.0,0.239420166016,-0.890643017578,7.91523068848,1.0,0.0,0.0,0.0,1.0,0.0,0.0,0.0,1.0
1463935343671557562,259,1463935343667255445,,7.44396448135,-10.2933330536,159.471221924,0.00149299995974,1.0,0.0,0.0,0.0,1.0,0.0,0.0,0.0,1.0,-18.9024391174,15.548781395,11.4634151459,1.0,0.0,0.0,0.0,1.0,0.0,0.0,0.0,1.0,-0.0335188255255,-1.14442839355,8.3270327895,1.0,0.0,0.0,0.0,1.0,0.0,0.0,0.0,1.0
1463935343692752263,260,1463935343688625458,,7.80932092667,-10.5914363861,159.880493164,0.00131600000896,1.0,0.0,0.0,0.0,1.0,0.0,0.0,0.0,1.0,-16.2195110321,15.7317075729,16.7682933807,1.0,0.0,0.0,0.0,1.0,0.0,0.0,0.0,1.0,-0.292092584273,-1.16358193377,8.78193168945,1.0,0.0,0.0,0.0,1.0,0.0,0.0,0.0,1.0
1463935343715882216,261,1463935343710383542,,8.07043266296,-10.7926387787,160.356781006,0.00128800002858,1.0,0.0,0.0,0.0,1.0,0.0,0.0,0.0,1.0,-14.0243902206,8.96341514587,17.5609760284,1.0,0.0,0.0,0.0,1.0,0.0,0.0,0.0,1.0,-0.258573779297,-0.76135612793,8.94952580566,1.0,0.0,0.0,0.0,1.0,0.0,0.0,0.0,1.0
1463935343758236723,262,1463935343731955950,,8.09727191925,-10.9483385086,160.809768677,0.001511999988,1.0,0.0,0.0,0.0,1.0,0.0,0.0,0.0,1.0,-13.9634151459,0.731707334518,11.1585359573,1.0,0.0,0.0,0.0,1.0,0.0,0.0,0.0,1.0,0.344765039063,-0.91458503418,9.70609353027,1.0,0.0,0.0,0.0,1.0,0.0,0.0,0.0,1.0
1463935343768454648,263,1463935343761356501,,8.02073287964,-11.1389598846,161.243713379,0.00475300010294,1.0,0.0,0.0,0.0,1.0,0.0,0.0,0.0,1.0,-14.5731706619,0.914634168148,12.6829271317,1.0,0.0,0.0,0.0,1.0,0.0,0.0,0.0,1.0,-0.0814028564453,-1.29286889648,10.1992990723,1.0,0.0,0.0,0.0,1.0,0.0,0.0,0.0,1.0
1463935343792754909,264,1463935343776874872,,8.02347660065,-11.3245067596,161.662384033,0.00263700005598,1.0,0.0,0.0,0.0,1.0,0.0,0.0,0.0,1.0,-12.3780488968,-0.0609756112099,12.8658542633,1.0,0.0,0.0,0.0,1.0,0.0,0.0,0.0,1.0,-0.258573779297,-1.4604630127,10.3285859619,1.0,0.0,0.0,0.0,1.0,0.0,0.0,0.0,1.0
1463935343822770562,265,1463935343798079105,,8.02631378174,-11.457362175,162.086425781,0.0014009999577,1.0,0.0,0.0,0.0,1.0,0.0,0.0,0.0,1.0,-10.0,-2.25609779358,12.0121955872,1.0,0.0,0.0,0.0,1.0,0.0,0.0,0.0,1.0,-0.100556469727,-1.68551796875,10.793061084,1.0,0.0,0.0,0.0,1.0,0.0,0.0,0.0,1.0
1463935343822814520,266,1463935343818877818,,7.91866827011,-11.5591812134,162.476501465,0.00148400000762,1.0,0.0,0.0,0.0,1.0,0.0,0.0,0.0,1.0,-6.82926845551,-6.70731735229,9.26829242706,1.0,0.0,0.0,0.0,1.0,0.0,0.0,0.0,1.0,-0.167594116211,-2.08295529821,11.5304751953,1.0,0.0,0.0,0.0,1.0,0.0,0.0,0.0,1.0
1463935343861230241,267,1463935343839577052,,7.75316667557,-11.62296772,162.82093811,0.00120399997104,1.0,0.0,0.0,0.0,1.0,0.0,0.0,0.0,1.0,-0.670731723309,-10.1829271317,8.71951198578,1.0,0.0,0.0,0.0,1.0,0.0,0.0,0.0,1.0,-0.569819995117,-3.10767375488,12.5647703125,1.0,0.0,0.0,0.0,1.0,0.0,0.0,0.0,1.0
1463935343871865768,268,1463935343863503981,,7.54203653336,-11.5636978149,163.247650146,0.00285600009374,1.0,0.0,0.0,0.0,1.0,0.0,0.0,0.0,1.0,13.5365858078,-12.2560977936,15.1829271317,1.0,0.0,0.0,0.0,1.0,0.0,0.0,0.0,1.0,-0.45489831543,-4.12760366211,14.2838071045,1.0,0.0,0.0,0.0,1.0,0.0,0.0,0.0,1.0
1463935343896220247,269,1463935343884699099,,7.3998208046,-11.1884021759,163.884552002,0.00162100000307,1.0,0.0,0.0,0.0,1.0,0.0,0.0,0.0,1.0,17.6829280853,-9.26829242706,24.8780498505,1.0,0.0,0.0,0.0,1.0,0.0,0.0,0.0,1.0,0.0574608398438,-3.07894333496,14.6764561768,1.0,0.0,0.0,0.0,1.0,0.0,0.0,0.0,1.0
1463935343945336183,270,1463935343905372344,,7.20722436905,-10.6742401123,164.623382568,0.00292799994349,1.0,0.0,0.0,0.0,1.0,0.0,0.0,0.0,1.0,10.7926826477,-13.2317075729,21.158536911,1.0,0.0,0.0,0.0,1.0,0.0,0.0,0.0,1.0,0.344765039063,-1.00556469727,14.4753432373,1.0,0.0,0.0,0.0,1.0,0.0,0.0,0.0,1.0
1463935343945430714,271,1463935343925885589,,6.99514579773,-10.2974557877,165.261642456,0.00292699993588,1.0,0.0,0.0,0.0,1.0,0.0,0.0,0.0,1.0,1.58536589146,-12.3780488968,19.9390239716,1.0,0.0,0.0,0.0,1.0,0.0,0.0,0.0,1.0,-0.746990917969,-0.0478840332031,12.1625444336,1.0,0.0,0.0,0.0,1.0,0.0,0.0,0.0,1.0
1463935343957447538,272,1463935343947746642,,6.82286787033,-10.1337423325,165.895172119,0.00155599997379,1.0,0.0,0.0,0.0,1.0,0.0,0.0,0.0,1.0,-9.14634132385,-12.1951217651,18.2926826477,1.0,0.0,0.0,0.0,1.0,0.0,0.0,0.0,1.0,-0.478840332031,-0.110133276367,9.95509050293,1.0,0.0,0.0,0.0,1.0,0.0,0.0,0.0,1.0
1463935343971606383,273,1463935343968419574,,6.63455629349,-10.2464904785,166.435119629,0.00119199999608,1.0,0.0,0.0,0.0,1.0,0.0,0.0,0.0,1.0,-13.7195129395,-8.96341514587,15.4878053665,1.0,0.0,0.0,0.0,1.0,0.0,0.0,0.0,1.0,-0.0287304199219,-1.12527478027,8.82023891602,1.0,0.0,0.0,0.0,1.0,0.0,0.0,0.0,1.0
1463935344025024228,274,1463935343989940263,,6.52930307388,-10.5083599091,166.975097656,0.00143699999899,1.0,0.0,0.0,0.0,1.0,0.0,0.0,0.0,1.0,-10.1829271317,-2.07317066193,20.3658542633,1.0,0.0,0.0,0.0,1.0,0.0,0.0,0.0,1.0,0.162805712891,-2.24097275391,9.22725319824,1.0,0.0,0.0,0.0,1.0,0.0,0.0,0.0,1.0
1463935344025317560,275,1463935344018094935,,6.65664243698,-10.6895771027,167.87071228,0.00832500029355,1.0,0.0,0.0,0.0,1.0,0.0,0.0,0.0,1.0,4.20731735229,9.51219558716,34.5121955872,1.0,0.0,0.0,0.0,1.0,0.0,0.0,0.0,1.0,0.31124621582,-3.45243879395,10.5296989014,1.0,0.0,0.0,0.0,1.0,0.0,0.0,0.0,1.0
1463935344043711752,276,1463935344039307136,,7.03863859177,-10.5111789703,168.849456787,0.00138599995989,1.0,0.0,0.0,0.0,1.0,0.0,0.0,0.0,1.0,14.1463422775,15.3658533096,48.3536567688,1.0,0.0,0.0,0.0,1.0,0.0,0.0,0.0,1.0,-0.148440512063,-2.4756045166,10.3621047852,1.0,0.0,0.0,0.0,1.0,0.0,0.0,0.0,1.0
1463935344091087748,277,1463935344060802044,,7.5240020752,-10.0631666183,170.060577393,0.00122199999169,1.0,0.0,0.0,0.0,1.0,0.0,0.0,0.0,1.0,17.4390239716,8.23170757294,54.5731735229,1.0,0.0,0.0,0.0,1.0,0.0,0.0,0.0,1.0,-1.13006318359,-1.82917006836,10.7212350342,1.0,0.0,0.0,0.0,1.0,0.0,0.0,0.0,1.0
1463935344091140716,278,1463935344083109709,,7.76526212692,-9.54190731049,171.299285889,0.00130300002638,1.0,0.0,0.0,0.0,1.0,0.0,0.0,0.0,1.0,17.3780498505,-11.5853662491,50.6097564697,1.0,0.0,0.0,0.0,1.0,0.0,0.0,0.0,1.0,-1.10612116699,-1.39821376953,10.3621047852,1.0,0.0,0.0,0.0,1.0,0.0,0.0,0.0,1.0
1463935344118155861,279,1463935344103258008,,7.61707019806,-8.99490261078,172.574508667,0.0015040000435,1.0,0.0,0.0,0.0,1.0,0.0,0.0,0.0,1.0,11.5853662491,-27.0121955872,46.5853691101,1.0,0.0,0.0,0.0,1.0,0.0,0.0,0.0,1.0,-0.727837304687,-0.373495458984,10.4099888184,1.0,0.0,0.0,0.0,1.0,0.0,0.0,0.0,1.0
1463935344180769968,280,1463935344124261512,,7.16405391693,-8.57513904572,173.819824219,0.00162800005637,1.0,0.0,0.0,0.0,1.0,0.0,0.0,0.0,1.0,4.45121955872,-30.975610733,44.2682914734,1.0,0.0,0.0,0.0,1.0,0.0,0.0,0.0,1.0,-0.134075302102,-0.751779321289,9.41400034321,1.0,0.0,0.0,0.0,1.0,0.0,0.0,0.0,1.0
1463935344181401997,281,1463935344145242881,,6.58284711838,-8.3684129715,174.933746338,0.00150500005111,1.0,0.0,0.0,0.0,1.0,0.0,0.0,0.0,1.0,0.243902444839,-34.3292694092,36.1585350037,1.0,0.0,0.0,0.0,1.0,0.0,0.0,0.0,1.0,0.162805712891,-0.991199487305,9.77791958008,1.0,0.0,0.0,0.0,1.0,0.0,0.0,0.0,1.0
1463935344182060640,282,1463935344165970084,,5.90457630157,-8.25696468353,175.842056274,0.00203599990346,1.0,0.0,0.0,0.0,1.0,0.0,0.0,0.0,1.0,2.25609779358,-23.658536911,33.2317085266,1.0,0.0,0.0,0.0,1.0,0.0,0.0,0.0,1.0,0.972045874023,-1.0534486574,8.69095202637,1.0,0.0,0.0,0.0,1.0,0.0,0.0,0.0,1.0
1463935344247331715,283,1463935344186611975,,5.60374546051,-8.18356895447,176.750701904,0.00127899996005,1.0,0.0,0.0,0.0,1.0,0.0,0.0,0.0,1.0,2.5,-8.04878044128,35.1219520569,1.0,0.0,0.0,0.0,1.0,0.0,0.0,0.0,1.0,-0.00957680664062,-1.24019645996,8.02057556152,1.0,0.0,0.0,0.0,1.0,0.0,0.0,0.0,1.0
1463935344247388382,284,1463935344207312407,,5.53614997864,-8.08846664429,177.602890015,0.00154099997599,1.0,0.0,0.0,0.0,1.0,0.0,0.0,0.0,1.0,2.80487799644,-0.18292683363,32.317073822,1.0,0.0,0.0,0.0,1.0,0.0,0.0,0.0,1.0,0.603338854892,-1.26892687988,8.11155522461,1.0,0.0,0.0,0.0,1.0,0.0,0.0,0.0,1.0
1463935344247430829,285,1463935344227889819,,5.5310792923,-7.96725893021,178.299179077,0.00132499996107,1.0,0.0,0.0,0.0,1.0,0.0,0.0,0.0,1.0,6.21951246262,1.8902438879,23.475610733,1.0,0.0,0.0,0.0,1.0,0.0,0.0,0.0,1.0,0.818816967773,-1.2737152832,8.07324799805,1.0,0.0,0.0,0.0,1.0,0.0,0.0,0.0,1.0
1463935344282269534,286,1463935344248674782,,5.59038686752,-7.79967594147,178.847549438,0.00119199999608,1.0,0.0,0.0,0.0,1.0,0.0,0.0,0.0,1.0,7.37804937363,7.92682981491,18.5975627899,1.0,0.0,0.0,0.0,1.0,0.0,0.0,0.0,1.0,0.363918652344,-1.04866025408,8.49462807476,1.0,0.0,0.0,0.0,1.0,0.0,0.0,0.0,1.0
1463935344282862136,287,1463935344269674588,,5.79970645905,-7.62104415894,179.354400635,0.00143199996091,1.0,0.0,0.0,0.0,1.0,0.0,0.0,0.0,1.0,7.56097555161,13.048781395,19.0853652954,1.0,0.0,0.0,0.0,1.0,0.0,0.0,0.0,1.0,0.258573779297,-0.780509741211,8.53772370464,1.0,0.0,0.0,0.0,1.0,0.0,0.0,0.0,1.0
1463935344294567294,288,1463935344290896841,,6.09491205215,-7.43294143677,179.849777222,0.0014609999489,1.0,0.0,0.0,0.0,1.0,0.0,0.0,0.0,1.0,6.58536624908,9.93902492523,17.5000019073,1.0,0.0,0.0,0.0,1.0,0.0,0.0,0.0,1.0,-0.445321508789,-0.967257470703,8.99262143555,1.0,0.0,0.0,0.0,1.0,0.0,0.0,0.0,1.0
1463935344327875798,289,1463935344312583363,,6.3449382782,-7.25921106339,-179.652862549,0.00179400003981,1.0,0.0,0.0,0.0,1.0,0.0,0.0,0.0,1.0,5.12195110321,0.12195122242,14.8170728683,1.0,0.0,0.0,0.0,1.0,0.0,0.0,0.0,1.0,-1.15879360352,-0.857124194336,8.87291135254,1.0,0.0,0.0,0.0,1.0,0.0,0.0,0.0,1.0
1463935344373828414,290,1463935344333265358,,6.32049274445,-7.15941286087,-179.2084198,0.00237599993125,1.0,0.0,0.0,0.0,1.0,0.0,0.0,0.0,1.0,0.609756112099,-12.7439022064,12.7439022064,1.0,0.0,0.0,0.0,1.0,0.0,0.0,0.0,1.0,-0.430956298828,-0.833182177734,9.57680722515,1.0,0.0,0.0,0.0,1.0,0.0,0.0,0.0,1.0
1463935344375324918,291,1463935344353863603,,5.97580957413,-7.16131210327,-178.797454834,0.00183900003321,1.0,0.0,0.0,0.0,1.0,0.0,0.0,0.0,1.0,-2.62195134163,-22.6219520569,7.37804937363,1.0,0.0,0.0,0.0,1.0,0.0,0.0,0.0,1.0,0.526724328702,-1.24498486328,10.6446205811,1.0,0.0,0.0,0.0,1.0,0.0,0.0,0.0,1.0
1463935344393167394,292,1463935344374584817,,5.46032476425,-7.2211894989,-178.436798096,0.00130899995565,1.0,0.0,0.0,0.0,1.0,0.0,0.0,0.0,1.0,-4.57317066193,-23.7195129395,8.23170757294,1.0,0.0,0.0,0.0,1.0,0.0,0.0,0.0,1.0,0.0957680664062,-1.4844050293,11.0276928467,1.0,0.0,0.0,0.0,1.0,0.0,0.0,0.0,1.0
1463935344398858567,293,1463935344395034052,,5.01959943771,-7.33875226974,-178.051589966,0.00193699996453,1.0,0.0,0.0,0.0,1.0,0.0,0.0,0.0,1.0,-3.65853667259,-21.9512195587,10.0609760284,1.0,0.0,0.0,0.0,1.0,0.0,0.0,0.0,1.0,-0.3064578125,-1.96803376465,11.4490723389,1.0,0.0,0.0,0.0,1.0,0.0,0.0,0.0,1.0
1463935344422306332,294,1463935344416507086,,4.65647983551,-7.4437918663,-177.587356567,0.00122400000691,1.0,0.0,0.0,0.0,1.0,0.0,0.0,0.0,1.0,0.243902444839,-18.0487823486,14.2682924271,1.0,0.0,0.0,0.0,1.0,0.0,0.0,0.0,1.0,-0.119710083008,-2.29843359375,11.4538607422,1.0,0.0,0.0,0.0,1.0,0.0,0.0,0.0,1.0
1463935344448258825,295,1463935344437736786,,4.36262464523,-7.46360492706,-177.088851929,0.00119800004177,1.0,0.0,0.0,0.0,1.0,0.0,0.0,0.0,1.0,3.04878044128,-15.3048791885,14.6341466904,1.0,0.0,0.0,0.0,1.0,0.0,0.0,0.0,1.0,-0.330399829102,-2.20266552734,10.9606552002,1.0,0.0,0.0,0.0,1.0,0.0,0.0,0.0,1.0
1463935344470347637,296,1463935344459397111,,4.08696460724,-7.45287227631,-176.610733032,0.0013269999763,1.0,0.0,0.0,0.0,1.0,0.0,0.0,0.0,1.0,9.20731735229,-15.6097564697,12.6829271317,1.0,0.0,0.0,0.0,1.0,0.0,0.0,0.0,1.0,-0.205901342773,-3.1124621582,12.124237207,1.0,0.0,0.0,0.0,1.0,0.0,0.0,0.0,1.0
1463935344490687029,297,1463935344481356704,,3.82243156433,-7.27588748932,-176.152481079,0.00221400009468,1.0,0.0,0.0,0.0,1.0,0.0,0.0,0.0,1.0,17.7439022064,-10.2439022064,14.2682924271,1.0,0.0,0.0,0.0,1.0,0.0,0.0,0.0,1.0,0.15322890625,-2.74375510254,12.6509615723,1.0,0.0,0.0,0.0,1.0,0.0,0.0,0.0,1.0
1463935344517235092,298,1463935344504110721,,3.73616576195,-6.89716005325,-175.623687744,0.0018680000212,1.0,0.0,0.0,0.0,1.0,0.0,0.0,0.0,1.0,16.8902435303,-1.46341466904,18.475610733,1.0,0.0,0.0,0.0,1.0,0.0,0.0,0.0,1.0,0.196324536133,-1.17794714373,11.9805851074,1.0,0.0,0.0,0.0,1.0,0.0,0.0,0.0,1.0
1463935344551682237,299,1463935344523333608,,3.71536779404,-6.53482198715,-175.117660522,0.00146199995652,1.0,0.0,0.0,0.0,1.0,0.0,0.0,0.0,1.0,8.59756088257,-2.92682933807,14.6341466904,1.0,0.0,0.0,0.0,1.0,0.0,0.0,0.0,1.0,0.785298144531,0.344765039063,11.5975128418,1.0,0.0,0.0,0.0,1.0,0.0,0.0,0.0,1.0
1463935344552630618,300,1463935344544342529,,3.55991029739,-6.31182956696,-174.789352417,0.00131299998611,1.0,0.0,0.0,0.0,1.0,0.0,0.0,0.0,1.0,-3.84146332741,-2.19512200356,3.10975623131,1.0,0.0,0.0,0.0,1.0,0.0,0.0,0.0,1.0,1.22583125,0.799663354492,9.50498117534,1.0,0.0,0.0,0.0,1.0,0.0,0.0,0.0,1.0
1463935344606467107,301,1463935344565221710,,3.47455453873,-6.38402938843,-174.641159058,0.00242700008675,1.0,0.0,0.0,0.0,1.0,0.0,0.0,0.0,1.0,-15.6707315445,4.51219558716,-0.975609779358,1.0,0.0,0.0,0.0,1.0,0.0,0.0,0.0,1.0,0.598550451572,-0.0574608398438,8.68616362305,1.0,0.0,0.0,0.0,1.0,0.0,0.0,0.0,1.0
1463935344610401934,302,1463935344588567235,,3.59340620041,-6.75934123993,-174.552825928,0.00122400000691,1.0,0.0,0.0,0.0,1.0,0.0,0.0,0.0,1.0,-17.9878044128,7.86585378647,-3.41463422775,1.0,0.0,0.0,0.0,1.0,0.0,0.0,0.0,1.0,0.421379492187,-1.30723410645,8.72925925293,1.0,0.0,0.0,0.0,1.0,0.0,0.0,0.0,1.0
1463935344612197759,303,1463935344608803138,,3.77768301964,-7.23808479309,-174.498336792,0.00222199992277,1.0,0.0,0.0,0.0,1.0,0.0,0.0,0.0,1.0,-14.2073173523,12.6829271317,-1.58536589146,1.0,0.0,0.0,0.0,1.0,0.0,0.0,0.0,1.0,0.474051928711,-2.36068269078,9.96466730957,1.0,0.0,0.0,0.0,1.0,0.0,0.0,0.0,1.0
1463935344715679400,304,1463935344629346696,,4.03542709351,-7.58982086182,-174.402526855,0.00144499994349,1.0,0.0,0.0,0.0,1.0,0.0,0.0,0.0,1.0,-4.81707286835,16.2804889679,2.25609779358,1.0,0.0,0.0,0.0,1.0,0.0,0.0,0.0,1.0,0.325611425781,-2.88261879883,10.8936175537,1.0,0.0,0.0,0.0,1.0,0.0,0.0,0.0,1.0
1463935344715740910,305,1463935344649892077,,4.36836433411,-7.72247457504,-174.205276489,0.00132299994584,1.0,0.0,0.0,0.0,1.0,0.0,0.0,0.0,1.0,3.65853667259,18.7195110321,8.47560977936,1.0,0.0,0.0,0.0,1.0,0.0,0.0,0.0,1.0,0.646434448242,-2.37025978969,11.1138841064,1.0,0.0,0.0,0.0,1.0,0.0,0.0,0.0,1.0
1463935344715806171,306,1463935344671181830,,4.78803443909,-7.65044498444,-173.838973999,0.00127400003839,1.0,0.0,0.0,0.0,1.0,0.0,0.0,0.0,1.0,5.42682933807,20.6097564697,16.7073173523,1.0,0.0,0.0,0.0,1.0,0.0,0.0,0.0,1.0,0.191536132812,-1.21625444336,10.5727945312,1.0,0.0,0.0,0.0,1.0,0.0,0.0,0.0,1.0
1463935344717207206,307,1463935344691857367,,5.20393037796,-7.48767232895,-173.362228394,0.00138200004585,1.0,0.0,0.0,0.0,1.0,0.0,0.0,0.0,1.0,2.19512200356,13.4146347046,17.7439022064,1.0,0.0,0.0,0.0,1.0,0.0,0.0,0.0,1.0,-0.210689746094,-0.335188232422,9.87368764648,1.0,0.0,0.0,0.0,1.0,0.0,0.0,0.0,1.0
1463935344719283447,308,1463935344713218577,,5.44929790497,-7.36877202988,-172.859390259,0.00133200001437,1.0,0.0,0.0,0.0,1.0,0.0,0.0,0.0,1.0,-4.2682929039,5.18292713165,17.2560977936,1.0,0.0,0.0,0.0,1.0,0.0,0.0,0.0,1.0,-0.555454785156,-0.105344873047,9.22246479492,1.0,0.0,0.0,0.0,1.0,0.0,0.0,0.0,1.0
1463935344794189221,309,1463935344733815416,,5.50700616837,-7.39697980881,-172.3699646,0.00131299998611,1.0,0.0,0.0,0.0,1.0,0.0,0.0,0.0,1.0,-7.25609779358,-5.12195110321,15.975610733,1.0,0.0,0.0,0.0,1.0,0.0,0.0,0.0,1.0,-0.0335188255255,-0.651222851562,8.78672009277,1.0,0.0,0.0,0.0,1.0,0.0,0.0,0.0,1.0
1463935344794387501,310,1463935344755472980,,5.37979984283,-7.51711845398,-171.82800293,0.00129499996547,1.0,0.0,0.0,0.0,1.0,0.0,0.0,0.0,1.0,-6.70731735229,-6.89024400711,18.7195110321,1.0,0.0,0.0,0.0,1.0,0.0,0.0,0.0,1.0,0.15801730957,-1.10133276367,8.42758925923,1.0,0.0,0.0,0.0,1.0,0.0,0.0,0.0,1.0
1463935344794528699,311,1463935344776518515,,5.23666238785,-7.63299369812,-171.244720459,0.00123900000472,1.0,0.0,0.0,0.0,1.0,0.0,0.0,0.0,1.0,-4.32926845551,-4.93902444839,22.3780498505,1.0,0.0,0.0,0.0,1.0,0.0,0.0,0.0,1.0,0.392649072266,-1.37906015625,8.21690009766,1.0,0.0,0.0,0.0,1.0,0.0,0.0,0.0,1.0
1463935344853176729,312,1463935344798446390,,5.14997243881,-7.67784357071,-170.562026978,0.00124100001995,1.0,0.0,0.0,0.0,1.0,0.0,0.0,0.0,1.0,-0.792682945728,-1.8902438879,26.158536911,1.0,0.0,0.0,0.0,1.0,0.0,0.0,0.0,1.0,0.488417138672,-1.34554133301,8.53293530132,1.0,0.0,0.0,0.0,1.0,0.0,0.0,0.0,1.0
1463935344853358968,313,1463935344825910283,,5.16109704971,-7.61594629288,-169.642852783,0.0069539998658,1.0,0.0,0.0,0.0,1.0,0.0,0.0,0.0,1.0,3.84146332741,2.31707310677,31.4024391174,1.0,0.0,0.0,0.0,1.0,0.0,0.0,0.0,1.0,0.325611425781,-1.26413847656,8.5999729478,1.0,0.0,0.0,0.0,1.0,0.0,0.0,0.0,1.0
1463935344853512873,314,1463935344843861821,,5.24602842331,-7.47395324707,-168.830108643,0.00139600003604,1.0,0.0,0.0,0.0,1.0,0.0,0.0,0.0,1.0,6.52439069748,3.10975623131,33.2926826477,1.0,0.0,0.0,0.0,1.0,0.0,0.0,0.0,1.0,0.483628735352,-1.11569797363,8.90643017578,1.0,0.0,0.0,0.0,1.0,0.0,0.0,0.0,1.0
1463935344884757740,315,1463935344864931106,,5.35151147842,-7.25772571564,-167.950408936,0.00113600003533,1.0,0.0,0.0,0.0,1.0,0.0,0.0,0.0,1.0,7.37804937363,4.2682929039,36.2804908752,1.0,0.0,0.0,0.0,1.0,0.0,0.0,0.0,1.0,0.172382519531,-0.881066210937,8.92079538574,1.0,0.0,0.0,0.0,1.0,0.0,0.0,0.0,1.0
1463935344914168187,316,1463935344885649246,,5.42786216736,-7.0250248909,-167.077316284,0.00120599998627,1.0,0.0,0.0,0.0,1.0,0.0,0.0,0.0,1.0,5.97560977936,-0.0609756112099,34.817073822,1.0,0.0,0.0,0.0,1.0,0.0,0.0,0.0,1.0,0.282515795898,-0.665588061523,9.25119521484,1.0,0.0,0.0,0.0,1.0,0.0,0.0,0.0,1.0
1463935344917077810,317,1463935344906945874,,5.41478776932,-6.83182621002,-166.189666748,0.00118499994278,1.0,0.0,0.0,0.0,1.0,0.0,0.0,0.0,1.0,3.04878044128,-4.02439022064,33.5975608826,1.0,0.0,0.0,0.0,1.0,0.0,0.0,0.0,1.0,0.220266552734,-0.742202514648,9.50976957866,1.0,0.0,0.0,0.0,1.0,0.0,0.0,0.0,1.0
1463935344960958977,318,1463935344928409584,,5.32475709915,-6.70448637009,-165.289810181,0.00139500002842,1.0,0.0,0.0,0.0,1.0,0.0,0.0,0.0,1.0,-0.304878056049,-6.58536624908,34.817073822,1.0,0.0,0.0,0.0,1.0,0.0,0.0,0.0,1.0,0.210689746094,-0.60812722168,9.67257470703,1.0,0.0,0.0,0.0,1.0,0.0,0.0,0.0,1.0
1463935344961061059,319,1463935344949433922,,5.19634628296,-6.65397405624,-164.363998413,0.00113700004295,1.0,0.0,0.0,0.0,1.0,0.0,0.0,0.0,1.0,-5.0,-7.86585378647,37.0121955872,1.0,0.0,0.0,0.0,1.0,0.0,0.0,0.0,1.0,0.287304199219,-0.708683691406,10.3429511719,1.0,0.0,0.0,0.0,1.0,0.0,0.0,0.0,1.0
1463935344973674443,320,1463935344970480759,,5.05160808563,-6.70459461212,-163.395507812,0.00119800004177,1.0,0.0,0.0,0.0,1.0,0.0,0.0,0.0,1.0,-8.04878044128,-5.36585378647,40.4268302917,1.0,0.0,0.0,0.0,1.0,0.0,0.0,0.0,1.0,0.560243188477,-1.06302561017,10.8792523438,1.0,0.0,0.0,0.0,1.0,0.0,0.0,0.0,1.0
1463935344996053618,321,1463935344992846184,,5.08596992493,-6.87049770355,-162.249710083,0.00530199985951,1.0,0.0,0.0,0.0,1.0,0.0,0.0,0.0,1.0,-10.0,0.548780500889,51.0975608826,1.0,0.0,0.0,0.0,1.0,0.0,0.0,0.0,1.0,-0.215478149414,-2.10689731481,10.8457335205,1.0,0.0,0.0,0.0,1.0,0.0,0.0,0.0,1.0
1463935345328598863,322,1463935345013565054,,5.27636766434,-7.04081249237,-160.910675049,0.00131700001657,1.0,0.0,0.0,0.0,1.0,0.0,0.0,0.0,1.0,-9.08536529541,-3.29268312454,56.4634132385,1.0,0.0,0.0,0.0,1.0,0.0,0.0,0.0,1.0,-0.928950244141,-1.8866309082,11.3197854492,1.0,0.0,0.0,0.0,1.0,0.0,0.0,0.0,1.0
1463935345328758498,323,1463935345034806473,,5.31331586838,-7.15400409698,-159.529266357,0.00147999997716,1.0,0.0,0.0,0.0,1.0,0.0,0.0,0.0,1.0,-5.54878091812,-13.1707324982,58.2926826477,1.0,0.0,0.0,0.0,1.0,0.0,0.0,0.0,1.0,-0.507570751953,-2.30322199707,12.1194488037,1.0,0.0,0.0,0.0,1.0,0.0,0.0,0.0,1.0
1463935345328814852,324,1463935345055579145,,5.09625959396,-7.23745346069,-158.158325195,0.00136700004805,1.0,0.0,0.0,0.0,1.0,0.0,0.0,0.0,1.0,-1.95121955872,-22.5,55.4878082275,1.0,0.0,0.0,0.0,1.0,0.0,0.0,0.0,1.0,0.129286889648,-2.67671745605,12.1816980469,1.0,0.0,0.0,0.0,1.0,0.0,0.0,0.0,1.0
1463935345330174481,325,1463935345077170146,,4.7134552002,-7.22698974609,-156.732391357,0.00122099998407,1.0,0.0,0.0,0.0,1.0,0.0,0.0,0.0,1.0,3.41463422775,-22.2560977936,59.5121994019,1.0,0.0,0.0,0.0,1.0,0.0,0.0,0.0,1.0,-0.0718260498047,-2.74854350586,13.4649901367,1.0,0.0,0.0,0.0,1.0,0.0,0.0,0.0,1.0
1463935345331525413,326,1463935345098300889,,4.47763538361,-7.07813167572,-155.171859741,0.0012969999807,1.0,0.0,0.0,0.0,1.0,0.0,0.0,0.0,1.0,5.85365867615,-17.8658542633,67.6219558716,1.0,0.0,0.0,0.0,1.0,0.0,0.0,0.0,1.0,-0.435744702148,-1.73819040527,12.9286889648,1.0,0.0,0.0,0.0,1.0,0.0,0.0,0.0,1.0
1463935345332725460,327,1463935345119794183,,4.32471132278,-6.88497924805,-153.519210815,0.00118699995801,1.0,0.0,0.0,0.0,1.0,0.0,0.0,0.0,1.0,1.40243899822,-19.5731716156,67.5,1.0,0.0,0.0,0.0,1.0,0.0,0.0,0.0,1.0,-0.861912597656,-0.847547387695,11.5879360352,1.0,0.0,0.0,0.0,1.0,0.0,0.0,0.0,1.0
1463935345333279728,328,1463935345140755552,,4.1071023941,-6.76899814606,-151.952087402,0.00132799998391,1.0,0.0,0.0,0.0,1.0,0.0,0.0,0.0,1.0,-4.87804889679,-24.7560977936,63.2317123413,1.0,0.0,0.0,0.0,1.0,0.0,0.0,0.0,1.0,-0.531512805087,-0.440533105469,10.7739074707,1.0,0.0,0.0,0.0,1.0,0.0,0.0,0.0,1.0
1463935345335062585,329,1463935345161403536,,3.79418230057,-6.80287456512,-150.480911255,0.00133700005244,1.0,0.0,0.0,0.0,1.0,0.0,0.0,0.0,1.0,-9.63414573669,-21.2195129395,61.6463394165,1.0,0.0,0.0,0.0,1.0,0.0,0.0,0.0,1.0,0.244208569336,-0.866701000977,9.94551369629,1.0,0.0,0.0,0.0,1.0,0.0,0.0,0.0,1.0
1463935345335232949,330,1463935345183934638,,3.58701634407,-6.97483587265,-148.888534546,0.00238099996932,1.0,0.0,0.0,0.0,1.0,0.0,0.0,0.0,1.0,-9.75609779358,-10.3048782349,65.1829299927,1.0,0.0,0.0,0.0,1.0,0.0,0.0,0.0,1.0,0.210689746094,-1.81959326172,9.65821008159,1.0,0.0,0.0,0.0,1.0,0.0,0.0,0.0,1.0
1463935345335288730,331,1463935345206107772,,3.65946125984,-7.16808605194,-147.249664307,0.00342900003307,1.0,0.0,0.0,0.0,1.0,0.0,0.0,0.0,1.0,-2.31707310677,-3.59756112099,67.2560958862,1.0,0.0,0.0,0.0,1.0,0.0,0.0,0.0,1.0,-0.0622492431641,-2.44687409668,9.52413478862,1.0,0.0,0.0,0.0,1.0,0.0,0.0,0.0,1.0
1463935345335692479,332,1463935345227183203,,3.83448433876,-7.19053602219,-145.629821777,0.00163700000849,1.0,0.0,0.0,0.0,1.0,0.0,0.0,0.0,1.0,7.86585378647,-4.87804889679,68.7804870605,1.0,0.0,0.0,0.0,1.0,0.0,0.0,0.0,1.0,-0.713472094727,-2.72938989258,10.2136642822,1.0,0.0,0.0,0.0,1.0,0.0,0.0,0.0,1.0
1463935345335812426,333,1463935345253713767,,3.9344625473,-6.9014749527,-143.719818115,0.00463799992576,1.0,0.0,0.0,0.0,1.0,0.0,0.0,0.0,1.0,17.6829280853,-12.2560977936,70.1219482422,1.0,0.0,0.0,0.0,1.0,0.0,0.0,0.0,1.0,-0.957680664062,-2.06380183105,10.4722380615,1.0,0.0,0.0,0.0,1.0,0.0,0.0,0.0,1.0
1463935345339070016,334,1463935345273988628,,3.88314366341,-6.46239709854,-142.00112915,0.00230000005104,1.0,0.0,0.0,0.0,1.0,0.0,0.0,0.0,1.0,19.4512195587,-19.1463432312,72.9268341064,1.0,0.0,0.0,0.0,1.0,0.0,0.0,0.0,1.0,-1.11569797363,-1.64242233887,10.6206785645,1.0,0.0,0.0,0.0,1.0,0.0,0.0,0.0,1.0
1463935345341379746,335,1463935345293831199,,3.7201294899,-6.02222728729,-140.280105591,0.00268499995582,1.0,0.0,0.0,0.0,1.0,0.0,0.0,0.0,1.0,19.2682914734,-23.2926845551,76.1585388184,1.0,0.0,0.0,0.0,1.0,0.0,0.0,0.0,1.0,-0.938527050781,-1.45088620605,10.6829278076,1.0,0.0,0.0,0.0,1.0,0.0,0.0,0.0,1.0
1463935345341445058,336,1463935345315014390,,3.48103094101,-5.59150600433,-138.455963135,0.00261000008322,1.0,0.0,0.0,0.0,1.0,0.0,0.0,0.0,1.0,17.317073822,-22.7439041138,79.5731735229,1.0,0.0,0.0,0.0,1.0,0.0,0.0,0.0,1.0,-0.45968671875,-1.19710090314,10.6637741943,1.0,0.0,0.0,0.0,1.0,0.0,0.0,0.0,1.0
1463935345719816149,337,1463935345335826176,,3.27530789375,-5.20078516006,-136.557312012,0.00164899998344,1.0,0.0,0.0,0.0,1.0,0.0,0.0,0.0,1.0,13.9634151459,-17.8658542633,82.6219482422,1.0,0.0,0.0,0.0,1.0,0.0,0.0,0.0,1.0,-0.134075302102,-1.13006318359,10.0891657959,1.0,0.0,0.0,0.0,1.0,0.0,0.0,0.0,1.0
1463935345719874899,338,1463935345357284938,,3.16665077209,-4.87784385681,-134.587646484,0.00147599994671,1.0,0.0,0.0,0.0,1.0,0.0,0.0,0.0,1.0,10.1219511032,-11.2195119858,83.9024429321,1.0,0.0,0.0,0.0,1.0,0.0,0.0,0.0,1.0,-0.0335188255255,-0.995987890625,9.46188437642,1.0,0.0,0.0,0.0,1.0,0.0,0.0,0.0,1.0
1463935345719916305,339,1463935345377788444,,3.21428012848,-4.6481089592,-132.669235229,0.00135300005786,1.0,0.0,0.0,0.0,1.0,0.0,0.0,0.0,1.0,7.68292665482,-4.20731735229,85.4878082275,1.0,0.0,0.0,0.0,1.0,0.0,0.0,0.0,1.0,-0.0957680664062,-0.885854614258,8.99262143555,1.0,0.0,0.0,0.0,1.0,0.0,0.0,0.0,1.0
1463935345722683220,340,1463935345398577887,,3.37523937225,-4.46220874786,-130.728927612,0.00155399995856,1.0,0.0,0.0,0.0,1.0,0.0,0.0,0.0,1.0,5.12195110321,0.914634168148,86.0975646973,1.0,0.0,0.0,0.0,1.0,0.0,0.0,0.0,1.0,-0.344765039063,-0.871489404297,8.58560773784,1.0,0.0,0.0,0.0,1.0,0.0,0.0,0.0,1.0
1463935345723092801,341,1463935345419191965,,3.57135033607,-4.31810188293,-128.831420898,0.00140399998054,1.0,0.0,0.0,0.0,1.0,0.0,0.0,0.0,1.0,2.86585378647,0.243902444839,83.1707305908,1.0,0.0,0.0,0.0,1.0,0.0,0.0,0.0,1.0,-0.320823022461,-0.670376464844,8.85854614258,1.0,0.0,0.0,0.0,1.0,0.0,0.0,0.0,1.0
1463935345723176551,342,1463935345440059116,,3.70506024361,-4.21015548706,-126.966377258,0.00148600002285,1.0,0.0,0.0,0.0,1.0,0.0,0.0,0.0,1.0,1.64634156227,-2.98780488968,80.792678833,1.0,0.0,0.0,0.0,1.0,0.0,0.0,0.0,1.0,0.167594116211,-0.900219824219,9.28471345356,1.0,0.0,0.0,0.0,1.0,0.0,0.0,0.0,1.0
1463935345723250249,343,1463935345461929126,,3.78622603416,-4.13736534119,-125.029762268,0.00179699994624,1.0,0.0,0.0,0.0,1.0,0.0,0.0,0.0,1.0,0.18292683363,-0.609756112099,82.6219482422,1.0,0.0,0.0,0.0,1.0,0.0,0.0,0.0,1.0,-0.0957680664062,-0.91458503418,9.21288798828,1.0,0.0,0.0,0.0,1.0,0.0,0.0,0.0,1.0
1463935345723289155,344,1463935345483000651,,3.97777485847,-4.08865594864,-123.092803955,0.00181100005284,1.0,0.0,0.0,0.0,1.0,0.0,0.0,0.0,1.0,-1.15853655338,2.56097555161,88.9634170532,1.0,0.0,0.0,0.0,1.0,0.0,0.0,0.0,1.0,-0.703895288086,-0.986411083984,9.82101520996,1.0,0.0,0.0,0.0,1.0,0.0,0.0,0.0,1.0
1463935345724468212,345,1463935345504841443,,4.19741535187,-4.05952882767,-120.970726013,0.00179899996147,1.0,0.0,0.0,0.0,1.0,0.0,0.0,0.0,1.0,-2.37804889679,-5.18292713165,89.207321167,1.0,0.0,0.0,0.0,1.0,0.0,0.0,0.0,1.0,-0.718260498047,-0.737414111328,9.80186159668,1.0,0.0,0.0,0.0,1.0,0.0,0.0,0.0,1.0
1463935345734805668,346,1463935345525799947,,4.17066431046,-4.06054830551,-118.980026245,0.00197200011462,1.0,0.0,0.0,0.0,1.0,0.0,0.0,0.0,1.0,-3.84146332741,-16.7073173523,84.0853652954,1.0,0.0,0.0,0.0,1.0,0.0,0.0,0.0,1.0,-0.416591088867,-0.9193734375,9.58638403179,1.0,0.0,0.0,0.0,1.0,0.0,0.0,0.0,1.0
1463935345735027803,347,1463935345546310797,,3.87249493599,-4.07757663727,-117.128234863,0.00171099998988,1.0,0.0,0.0,0.0,1.0,0.0,0.0,0.0,1.0,-4.39024400711,-25.2439041138,78.9634170532,1.0,0.0,0.0,0.0,1.0,0.0,0.0,0.0,1.0,-0.248996972656,-0.9193734375,9.99339772949,1.0,0.0,0.0,0.0,1.0,0.0,0.0,0.0,1.0
1463935345735111292,348,1463935345566846542,,3.4671163559,-4.14062929153,-115.347702026,0.00158599996939,1.0,0.0,0.0,0.0,1.0,0.0,0.0,0.0,1.0,-3.65853667259,-29.6951236725,78.2926864624,1.0,0.0,0.0,0.0,1.0,0.0,0.0,0.0,1.0,-0.526724328702,-1.42215578613,10.2232410889,1.0,0.0,0.0,0.0,1.0,0.0,0.0,0.0,1.0
1463935345735215770,349,1463935345587466923,,2.99807500839,-4.21193504333,-113.55027771,0.00150699994992,1.0,0.0,0.0,0.0,1.0,0.0,0.0,0.0,1.0,-0.731707334518,-32.8048782349,76.5853729248,1.0,0.0,0.0,0.0,1.0,0.0,0.0,0.0,1.0,-0.387860668945,-1.56101948242,10.4770264648,1.0,0.0,0.0,0.0,1.0,0.0,0.0,0.0,1.0
1463935345735326551,350,1463935345608479281,,2.39768052101,-4.23357820511,-111.796340942,0.0013419999741,1.0,0.0,0.0,0.0,1.0,0.0,0.0,0.0,1.0,2.56097555161,-31.8902454376,71.5243911743,1.0,0.0,0.0,0.0,1.0,0.0,0.0,0.0,1.0,0.138863696289,-1.92493813477,10.927136377,1.0,0.0,0.0,0.0,1.0,0.0,0.0,0.0,1.0
1463935345735431186,351,1463935345630368354,,1.95058727264,-4.210916996,-110.010498047,0.00134600000456,1.0,0.0,0.0,0.0,1.0,0.0,0.0,0.0,1.0,8.04878044128,-24.8780498505,75.0609817505,1.0,0.0,0.0,0.0,1.0,0.0,0.0,0.0,1.0,0.588973571866,-1.6041151123,11.511321582,1.0,0.0,0.0,0.0,1.0,0.0,0.0,0.0,1.0
1463935345735808685,352,1463935345651251025,,1.67846620083,-4.11447906494,-108.233665466,0.00134299998172,1.0,0.0,0.0,0.0,1.0,0.0,0.0,0.0,1.0,16.2804889679,-22.0121955872,76.3414611816,1.0,0.0,0.0,0.0,1.0,0.0,0.0,0.0,1.0,-0.426167895508,-2.40856701625,11.2479593994,1.0,0.0,0.0,0.0,1.0,0.0,0.0,0.0,1.0
1463935345736488994,353,1463935345672521247,,1.38101434708,-3.89301681519,-106.439201355,0.00194099999499,1.0,0.0,0.0,0.0,1.0,0.0,0.0,0.0,1.0,20.4878044128,-24.8780498505,75.0609817505,1.0,0.0,0.0,0.0,1.0,0.0,0.0,0.0,1.0,-0.45489831543,-2.40377861293,11.5879360352,1.0,0.0,0.0,0.0,1.0,0.0,0.0,0.0,1.0
1463935345932824769,354,1463935345693372824,,0.984903752804,-3.55435800552,-104.690162659,0.00156000000425,1.0,0.0,0.0,0.0,1.0,0.0,0.0,0.0,1.0,25.2439041138,-23.5975627899,74.5121917725,1.0,0.0,0.0,0.0,1.0,0.0,0.0,0.0,1.0,0.282515795898,-2.44208569336,12.1002951904,1.0,0.0,0.0,0.0,1.0,0.0,0.0,0.0,1.0
1463935345933593620,355,1463935345715258147,,0.694584608078,-3.14499282837,-102.905021667,0.00225899997167,1.0,0.0,0.0,0.0,1.0,0.0,0.0,0.0,1.0,27.9878063202,-17.5000019073,78.0487823486,1.0,0.0,0.0,0.0,1.0,0.0,0.0,0.0,1.0,0.076614453125,-2.12126281703,12.5073094727,1.0,0.0,0.0,0.0,1.0,0.0,0.0,0.0,1.0
1463935345934201951,356,1463935345735201604,,0.522549152374,-2.71174502373,-101.079154968,0.00152000004891,1.0,0.0,0.0,0.0,1.0,0.0,0.0,0.0,1.0,26.0365848541,-11.4634151459,81.0975646973,1.0,0.0,0.0,0.0,1.0,0.0,0.0,0.0,1.0,0.220266552734,-1.24498486328,12.1816980469,1.0,0.0,0.0,0.0,1.0,0.0,0.0,0.0,1.0
1463935345934906792,357,1463935345757524633,,0.453155815601,-2.25642752647,-99.1285171509,0.00185500003863,1.0,0.0,0.0,0.0,1.0,0.0,0.0,0.0,1.0,16.2804889679,-6.52439069748,80.3658599854,1.0,0.0,0.0,0.0,1.0,0.0,0.0,0.0,1.0,0.349553442383,0.138863696289,10.8217915039,1.0,0.0,0.0,0.0,1.0,0.0,0.0,0.0,1.0
1463935345935369550,358,1463935345778979750,,0.468142956495,-1.9746440649,-97.2857437134,0.00218400009908,1.0,0.0,0.0,0.0,1.0,0.0,0.0,0.0,1.0,4.75609779358,-2.80487799644,74.7561035156,1.0,0.0,0.0,0.0,1.0,0.0,0.0,0.0,1.0,0.0239420166016,0.287304199219,9.37090471333,1.0,0.0,0.0,0.0,1.0,0.0,0.0,0.0,1.0
1463935345935787100,359,1463935345799390236,,0.541190028191,-1.9722597599,-95.6374511719,0.00140299997292,1.0,0.0,0.0,0.0,1.0,0.0,0.0,0.0,1.0,-2.80487799644,-2.92682933807,70.0000076294,1.0,0.0,0.0,0.0,1.0,0.0,0.0,0.0,1.0,-0.129286889648,-0.517147558594,8.82023891602,1.0,0.0,0.0,0.0,1.0,0.0,0.0,0.0,1.0
1463935345936733346,360,1463935345820676551,,0.576367199421,-2.18779182434,-94.0526351929,0.00159999995958,1.0,0.0,0.0,0.0,1.0,0.0,0.0,0.0,1.0,-2.62195134163,-3.29268312454,66.8292694092,1.0,0.0,0.0,0.0,1.0,0.0,0.0,0.0,1.0,0.325611425781,-2.13083962367,9.03092866211,1.0,0.0,0.0,0.0,1.0,0.0,0.0,0.0,1.0
1463935345937145636,361,1463935345842586613,,0.665489435196,-2.42776226997,-92.3723068237,0.00174700003117,1.0,0.0,0.0,0.0,1.0,0.0,0.0,0.0,1.0,6.34146356583,0.792682945728,74.634147644,1.0,0.0,0.0,0.0,1.0,0.0,0.0,0.0,1.0,0.0718260498047,-3.064578125,10.1083194092,1.0,0.0,0.0,0.0,1.0,0.0,0.0,0.0,1.0
1463935345937637249,362,1463935345863524805,,0.922984600067,-2.475253582,-90.4714508057,0.00138899998274,1.0,0.0,0.0,0.0,1.0,0.0,0.0,0.0,1.0,16.341463089,6.28048801422,89.0243911743,1.0,0.0,0.0,0.0,1.0,0.0,0.0,0.0,1.0,-0.411802685547,-2.72938989258,10.0508585693,1.0,0.0,0.0,0.0,1.0,0.0,0.0,0.0,1.0
1463935345938398756,363,1463935345884910808,,1.23352324963,-2.28166127205,-88.3100128174,0.00177400000393,1.0,0.0,0.0,0.0,1.0,0.0,0.0,0.0,1.0,21.2195129395,3.65853667259,98.1097564697,1.0,0.0,0.0,0.0,1.0,0.0,0.0,0.0,1.0,-0.526724328702,-1.9105729248,9.52413478862,1.0,0.0,0.0,0.0,1.0,0.0,0.0,0.0,1.0
1463935345939037139,364,1463935345905166815,,1.38382709026,-1.96313393116,-86.1484909058,0.00136200000998,1.0,0.0,0.0,0.0,1.0,0.0,0.0,0.0,1.0,20.9146347046,-4.51219558716,100.243904114,1.0,0.0,0.0,0.0,1.0,0.0,0.0,0.0,1.0,-0.248996972656,-1.25935007324,9.89284125977,1.0,0.0,0.0,0.0,1.0,0.0,0.0,0.0,1.0
1463935345939675000,365,1463935345926781931,,1.42655074596,-1.62784421444,-83.7908782959,0.00132399995346,1.0,0.0,0.0,0.0,1.0,0.0,0.0,0.0,1.0,16.7073173523,-9.93902492523,104.146339417,1.0,0.0,0.0,0.0,1.0,0.0,0.0,0.0,1.0,-0.598550451572,-0.952892260742,9.58159562847,1.0,0.0,0.0,0.0,1.0,0.0,0.0,0.0,1.0
1463935346073325679,366,1463935345947896580,,1.35264253616,-1.4080991745,-81.3780670166,0.00148900004569,1.0,0.0,0.0,0.0,1.0,0.0,0.0,0.0,1.0,10.8536586761,-14.3292694092,107.5,1.0,0.0,0.0,0.0,1.0,0.0,0.0,0.0,1.0,-1.01035310059,-0.857124194336,9.11233151855,1.0,0.0,0.0,0.0,1.0,0.0,0.0,0.0,1.0
1463935346074050572,367,1463935345969441852,,1.23427915573,-1.33957076073,-78.8210296631,0.00157900003251,1.0,0.0,0.0,0.0,1.0,0.0,0.0,0.0,1.0,3.96341490746,-16.5243911743,114.451217651,1.0,0.0,0.0,0.0,1.0,0.0,0.0,0.0,1.0,-1.27850368652,-1.08696755371,9.10275471191,1.0,0.0,0.0,0.0,1.0,0.0,0.0,0.0,1.0
1463935346074535518,368,1463935345990174837,,0.967877984047,-1.41603434086,-76.3216094971,0.00149000005331,1.0,0.0,0.0,0.0,1.0,0.0,0.0,0.0,1.0,1.03658533096,-22.7439041138,111.402442932,1.0,0.0,0.0,0.0,1.0,0.0,0.0,0.0,1.0,0.622492431641,-1.00556469727,9.193734375,1.0,0.0,0.0,0.0,1.0,0.0,0.0,0.0,1.0
1463935346074986193,369,1463935346011500006,,0.708145081997,-1.59998464584,-73.8436584473,0.00130000000354,1.0,0.0,0.0,0.0,1.0,0.0,0.0,0.0,1.0,-3.17073178291,-17.3780498505,111.768295288,1.0,0.0,0.0,0.0,1.0,0.0,0.0,0.0,1.0,0.0143652099609,-1.45088620605,9.27513723145,1.0,0.0,0.0,0.0,1.0,0.0,0.0,0.0,1.0
1463935346075494316,370,1463935346031881377,,0.543476939201,-1.84249734879,-71.3185653687,0.00133999995887,1.0,0.0,0.0,0.0,1.0,0.0,0.0,0.0,1.0,-2.07317066193,-10.1219511032,114.695121765,1.0,0.0,0.0,0.0,1.0,0.0,0.0,0.0,1.0,-0.186747729492,-2.09253210485,9.47146118306,1.0,0.0,0.0,0.0,1.0,0.0,0.0,0.0,1.0
1463935346114492326,371,1463935346053377900,,0.538110136986,-2.06711387634,-68.7040939331,0.00135899998713,1.0,0.0,0.0,0.0,1.0,0.0,0.0,0.0,1.0,1.03658533096,-7.37804937363,113.536590576,1.0,0.0,0.0,0.0,1.0,0.0,0.0,0.0,1.0,-0.0430956298828,-1.87226569824,9.00219824219,1.0,0.0,0.0,0.0,1.0,0.0,0.0,0.0,1.0
1463935346115491072,372,1463935346074437393,,0.564354479313,-2.22957968712,-66.1836395264,0.00169299996924,1.0,0.0,0.0,0.0,1.0,0.0,0.0,0.0,1.0,4.69512224197,-4.63414621353,111.097557068,1.0,0.0,0.0,0.0,1.0,0.0,0.0,0.0,1.0,-0.339976635742,-2.11168571813,9.40442353657,1.0,0.0,0.0,0.0,1.0,0.0,0.0,0.0,1.0
1463935346138758368,373,1463935346095717771,,0.714167773724,-2.32000541687,-63.6534309387,0.00148900004569,1.0,0.0,0.0,0.0,1.0,0.0,0.0,0.0,1.0,8.10975551605,-1.46341466904,115.243896484,1.0,0.0,0.0,0.0,1.0,0.0,0.0,0.0,1.0,-0.646434448242,-1.96803376465,9.48582756206,1.0,0.0,0.0,0.0,1.0,0.0,0.0,0.0,1.0
1463935346138794201,374,1463935346116506119,,0.932835042477,-2.33619070053,-61.0534667969,0.0014609999489,1.0,0.0,0.0,0.0,1.0,0.0,0.0,0.0,1.0,10.2439022064,-1.03658533096,119.024398804,1.0,0.0,0.0,0.0,1.0,0.0,0.0,0.0,1.0,-0.775721337891,-2.07816689489,9.05965908203,1.0,0.0,0.0,0.0,1.0,0.0,0.0,0.0,1.0
1463935346184484995,375,1463935346138244881,,1.15564978123,-2.27773880959,-58.2988357544,0.00140299997292,1.0,0.0,0.0,0.0,1.0,0.0,0.0,0.0,1.0,11.8292684555,-2.80487799644,121.34147644,1.0,0.0,0.0,0.0,1.0,0.0,0.0,0.0,1.0,-0.799663354492,-1.89620771484,9.34217429341,1.0,0.0,0.0,0.0,1.0,0.0,0.0,0.0,1.0
1463935346185708324,376,1463935346159228801,,1.29687225819,-2.19423484802,-55.5902290344,0.00135899998713,1.0,0.0,0.0,0.0,1.0,0.0,0.0,0.0,1.0,11.0365858078,-7.37804937363,118.597564697,1.0,0.0,0.0,0.0,1.0,0.0,0.0,0.0,1.0,-0.713472094727,-1.77170922852,9.71088193359,1.0,0.0,0.0,0.0,1.0,0.0,0.0,0.0,1.0
1463935346286128728,377,1463935346180363607,,1.29144775867,-2.11747717857,-52.9544830322,0.00126599997748,1.0,0.0,0.0,0.0,1.0,0.0,0.0,0.0,1.0,10.4878053665,-11.6463422775,116.585365295,1.0,0.0,0.0,0.0,1.0,0.0,0.0,0.0,1.0,-0.550666381836,-2.02549460449,9.95509050293,1.0,0.0,0.0,0.0,1.0,0.0,0.0,0.0,1.0
1463935346286521851,378,1463935346201071435,,1.24907410145,-2.07774043083,-50.3415756226,0.00133899995126,1.0,0.0,0.0,0.0,1.0,0.0,0.0,0.0,1.0,11.2195119858,-3.04878044128,122.621955872,1.0,0.0,0.0,0.0,1.0,0.0,0.0,0.0,1.0,-0.0957680664062,-2.20745393066,10.419565625,1.0,0.0,0.0,0.0,1.0,0.0,0.0,0.0,1.0
1463935346286988776,379,1463935346221555722,,1.46697819233,-2.03648519516,-47.5962562561,0.00135300005786,1.0,0.0,0.0,0.0,1.0,0.0,0.0,0.0,1.0,11.8902444839,5.36585378647,129.085372925,1.0,0.0,0.0,0.0,1.0,0.0,0.0,0.0,1.0,-0.737414111328,-2.29843359375,10.2088758789,1.0,0.0,0.0,0.0,1.0,0.0,0.0,0.0,1.0
1463935346287481847,380,1463935346242802454,,1.81506919861,-1.92085552216,-44.6898765564,0.00166199996602,1.0,0.0,0.0,0.0,1.0,0.0,0.0,0.0,1.0,13.5365858078,3.96341490746,130.60975647,1.0,0.0,0.0,0.0,1.0,0.0,0.0,0.0,1.0,-0.933738647461,-2.11647412145,10.3908352051,1.0,0.0,0.0,0.0,1.0,0.0,0.0,0.0,1.0
1463935346413522506,381,1463935346263764917,,2.04890179634,-1.79497742653,-41.8657569885,0.00128500000574,1.0,0.0,0.0,0.0,1.0,0.0,0.0,0.0,1.0,14.5121955872,-3.59756112099,126.219512939,1.0,0.0,0.0,0.0,1.0,0.0,0.0,0.0,1.0,-0.991199487305,-2.44687409668,10.4482960449,1.0,0.0,0.0,0.0,1.0,0.0,0.0,0.0,1.0
1463935346413806046,382,1463935346285680396,,2.12036347389,-1.61830687523,-39.0406608582,0.00148800003808,1.0,0.0,0.0,0.0,1.0,0.0,0.0,0.0,1.0,17.5609760284,-6.70731735229,122.378051758,1.0,0.0,0.0,0.0,1.0,0.0,0.0,0.0,1.0,-0.775721337891,-2.38941340297,10.3668931885,1.0,0.0,0.0,0.0,1.0,0.0,0.0,0.0,1.0
1463935346414088753,383,1463935346306443901,,2.15085268021,-1.4127073288,-36.3271026611,0.00130100001115,1.0,0.0,0.0,0.0,1.0,0.0,0.0,0.0,1.0,19.2073173523,-5.79268312454,121.951217651,1.0,0.0,0.0,0.0,1.0,0.0,0.0,0.0,1.0,-0.632069238281,-2.66235224609,10.6829278076,1.0,0.0,0.0,0.0,1.0,0.0,0.0,0.0,1.0
1463935346414402867,384,1463935346327588446,,2.2205092907,-1.16951620579,-33.5668029785,0.00142600003164,1.0,0.0,0.0,0.0,1.0,0.0,0.0,0.0,1.0,20.3048782349,-0.731707334518,123.048789978,1.0,0.0,0.0,0.0,1.0,0.0,0.0,0.0,1.0,-0.430956298828,-2.48996972656,10.8074262939,1.0,0.0,0.0,0.0,1.0,0.0,0.0,0.0,1.0
1463935346414854583,385,1463935346348366118,,2.39277338982,-0.896436989307,-30.9087524414,0.00144200003706,1.0,0.0,0.0,0.0,1.0,0.0,0.0,0.0,1.0,19.3292694092,4.69512224197,122.195121765,1.0,0.0,0.0,0.0,1.0,0.0,0.0,0.0,1.0,-0.718260498047,-1.96803376465,10.9223479736,1.0,0.0,0.0,0.0,1.0,0.0,0.0,0.0,1.0
1463935346415655986,386,1463935346369349674,,2.65535783768,-0.6159902215,-28.2140789032,0.00137099996209,1.0,0.0,0.0,0.0,1.0,0.0,0.0,0.0,1.0,15.2439022064,7.74390268326,120.365859985,1.0,0.0,0.0,0.0,1.0,0.0,0.0,0.0,1.0,-0.60812722168,-1.53707746582,11.1282493164,1.0,0.0,0.0,0.0,1.0,0.0,0.0,0.0,1.0
1463935346416507181,387,1463935346391209580,,2.98928022385,-0.397419095039,-25.48179245,0.00134399998933,1.0,0.0,0.0,0.0,1.0,0.0,0.0,0.0,1.0,7.74390268326,12.8048782349,118.719512939,1.0,0.0,0.0,0.0,1.0,0.0,0.0,0.0,1.0,-0.828393774414,-0.91458503418,10.6158901611,1.0,0.0,0.0,0.0,1.0,0.0,0.0,0.0,1.0
1463935346486806307,388,1463935346413250945,,3.41388940811,-0.320707172155,-22.7672729492,0.00185899995267,1.0,0.0,0.0,0.0,1.0,0.0,0.0,0.0,1.0,-3.35365867615,15.1219511032,115.304878235,1.0,0.0,0.0,0.0,1.0,0.0,0.0,0.0,1.0,-0.876277807617,-0.76135612793,10.1035310059,1.0,0.0,0.0,0.0,1.0,0.0,0.0,0.0,1.0
1463935346487249170,389,1463935346434036012,,3.87831521034,-0.450182527304,-20.2153491974,0.00139400002081,1.0,0.0,0.0,0.0,1.0,0.0,0.0,0.0,1.0,-10.1219511032,17.5000019073,112.317077637,1.0,0.0,0.0,0.0,1.0,0.0,0.0,0.0,1.0,-0.9193734375,-1.2497732666,10.3190091553,1.0,0.0,0.0,0.0,1.0,0.0,0.0,0.0,1.0
1463935346547469954,390,1463935346456429197,,4.42280006409,-0.74601984024,-17.6226139069,0.0019499999471,1.0,0.0,0.0,0.0,1.0,0.0,0.0,0.0,1.0,-12.6219520569,21.0975627899,109.146347046,1.0,0.0,0.0,0.0,1.0,0.0,0.0,0.0,1.0,-1.01035310059,-1.92014973145,10.5727945312,1.0,0.0,0.0,0.0,1.0,0.0,0.0,0.0,1.0
1463935346548006202,391,1463935346476593017,,5.00143480301,-1.04729008675,-15.3105049133,0.00169800000731,1.0,0.0,0.0,0.0,1.0,0.0,0.0,0.0,1.0,-10.8536586761,19.817073822,104.573173523,1.0,0.0,0.0,0.0,1.0,0.0,0.0,0.0,1.0,-1.70467158203,-2.49475812988,10.7068698242,1.0,0.0,0.0,0.0,1.0,0.0,0.0,0.0,1.0
1463935346548406460,392,1463935346497141836,,5.49332475662,-1.29869282246,-13.1138048172,0.00132599996869,1.0,0.0,0.0,0.0,1.0,0.0,0.0,0.0,1.0,-7.25609779358,13.1707324982,97.9878082275,1.0,0.0,0.0,0.0,1.0,0.0,0.0,0.0,1.0,-1.8148048584,-2.46602770996,10.9031943604,1.0,0.0,0.0,0.0,1.0,0.0,0.0,0.0,1.0
1463935346548941146,393,1463935346518487005,,5.89716911316,-1.47540712357,-10.935546875,0.00156999996398,1.0,0.0,0.0,0.0,1.0,0.0,0.0,0.0,1.0,-2.13414645195,7.13414621353,96.1585388184,1.0,0.0,0.0,0.0,1.0,0.0,0.0,0.0,1.0,-2.28885678711,-2.62404501953,10.4961800781,1.0,0.0,0.0,0.0,1.0,0.0,0.0,0.0,1.0
1463935346600955507,394,1463935346539632383,,6.12743806839,-1.51792669296,-8.81097602844,0.00150000001304,1.0,0.0,0.0,0.0,1.0,0.0,0.0,0.0,1.0,2.19512200356,-3.65853667259,91.0365905762,1.0,0.0,0.0,0.0,1.0,0.0,0.0,0.0,1.0,-2.02549460449,-2.20266552734,10.046070166,1.0,0.0,0.0,0.0,1.0,0.0,0.0,0.0,1.0
1463935346602067846,395,1463935346560036671,,6.14361333847,-1.45913791656,-6.87100887299,0.00132299994584,1.0,0.0,0.0,0.0,1.0,0.0,0.0,0.0,1.0,3.7804877758,-12.4390249252,84.7561035156,1.0,0.0,0.0,0.0,1.0,0.0,0.0,0.0,1.0,-1.64721074219,-1.95366855469,9.96945571289,1.0,0.0,0.0,0.0,1.0,0.0,0.0,0.0,1.0
1463935346631064597,396,1463935346581785380,,5.98470211029,-1.38252365589,-4.98583889008,0.00146800000221,1.0,0.0,0.0,0.0,1.0,0.0,0.0,0.0,1.0,4.14634132385,-17.8658542633,77.5609741211,1.0,0.0,0.0,0.0,1.0,0.0,0.0,0.0,1.0,-1.53707746582,-1.66636435547,10.4099888184,1.0,0.0,0.0,0.0,1.0,0.0,0.0,0.0,1.0
1463935346631683969,397,1463935346602149876,,5.74252748489,-1.32761824131,-3.33770084381,0.00149399996735,1.0,0.0,0.0,0.0,1.0,0.0,0.0,0.0,1.0,3.96341490746,-18.658536911,70.5487823486,1.0,0.0,0.0,0.0,1.0,0.0,0.0,0.0,1.0,-1.32638771973,-1.63763393555,10.0125513428,1.0,0.0,0.0,0.0,1.0,0.0,0.0,0.0,1.0
1463935346666148145,398,1463935346622901194,,5.51807975769,-1.30987882614,-1.79852092266,0.00162500003353,1.0,0.0,0.0,0.0,1.0,0.0,0.0,0.0,1.0,4.20731735229,-16.341463089,65.4878082275,1.0,0.0,0.0,0.0,1.0,0.0,0.0,0.0,1.0,-1.19710090314,-1.74297880859,9.80665,1.0,0.0,0.0,0.0,1.0,0.0,0.0,0.0,1.0
1463935346666266477,399,1463935346644972870,,5.37287473679,-1.29308354855,-0.269633203745,0.00341999996454,1.0,0.0,0.0,0.0,1.0,0.0,0.0,0.0,1.0,6.34146356583,-10.1219511032,60.1219520569,1.0,0.0,0.0,0.0,1.0,0.0,0.0,0.0,1.0,-1.28808049316,-1.88184250488,9.67257470703,1.0,0.0,0.0,0.0,1.0,0.0,0.0,0.0,1.0
1463935346719311303,400,1463935346665609970,,5.31424283981,-1.26622748375,1.04657649994,0.00145800004248,1.0,0.0,0.0,0.0,1.0,0.0,0.0,0.0,1.0,6.82926845551,-8.59756088257,51.1585388184,1.0,0.0,0.0,0.0,1.0,0.0,0.0,0.0,1.0,-0.737414111328,-1.84353527832,10.4913916748,1.0,0.0,0.0,0.0,1.0,0.0,0.0,0.0,1.0
1463935346721411085,401,1463935346686403579,,5.17886781693,-1.22302293777,2.10904502869,0.00248800008558,1.0,0.0,0.0,0.0,1.0,0.0,0.0,0.0,1.0,11.5243911743,-6.52439069748,40.9756088257,1.0,0.0,0.0,0.0,1.0,0.0,0.0,0.0,1.0,-0.804451757813,-2.3654710941,10.1226846191,1.0,0.0,0.0,0.0,1.0,0.0,0.0,0.0,1.0
1463935346737143726,402,1463935346707147709,,5.21635198593,-1.12956547737,3.04462814331,0.00168700003996,1.0,0.0,0.0,0.0,1.0,0.0,0.0,0.0,1.0,13.5365858078,3.29268312454,39.1463432312,1.0,0.0,0.0,0.0,1.0,0.0,0.0,0.0,1.0,-0.799663354492,-1.96803376465,9.92157167969,1.0,0.0,0.0,0.0,1.0,0.0,0.0,0.0,1.0
1463935346738318305,403,1463935346728288452,,5.48486471176,-1.0054628849,3.99724841118,0.00170999998227,1.0,0.0,0.0,0.0,1.0,0.0,0.0,0.0,1.0,13.658536911,12.9268293381,38.0487823486,1.0,0.0,0.0,0.0,1.0,0.0,0.0,0.0,1.0,-1.02471831055,-1.90578452148,10.5344873047,1.0,0.0,0.0,0.0,1.0,0.0,0.0,0.0,1.0
1463935346774618202,404,1463935346748847947,,5.87608766556,-0.850564301014,4.86700105667,0.00152499997057,1.0,0.0,0.0,0.0,1.0,0.0,0.0,0.0,1.0,13.7804880142,17.0731716156,34.4512214661,1.0,0.0,0.0,0.0,1.0,0.0,0.0,0.0,1.0,-1.30723410645,-1.79565124512,10.5296989014,1.0,0.0,0.0,0.0,1.0,0.0,0.0,0.0,1.0
1463935346775609552,405,1463935346769132965,,6.3110537529,-0.689304888248,5.65159845352,0.00150000001304,1.0,0.0,0.0,0.0,1.0,0.0,0.0,0.0,1.0,10.3658542633,14.6951217651,29.7560997009,1.0,0.0,0.0,0.0,1.0,0.0,0.0,0.0,1.0,-1.33596452637,-1.24498486328,10.2280294922,1.0,0.0,0.0,0.0,1.0,0.0,0.0,0.0,1.0
1463935346811354347,406,1463935346791339120,,6.71055984497,-0.603206634521,6.4246711731,0.0015640000347,1.0,0.0,0.0,0.0,1.0,0.0,0.0,0.0,1.0,4.2682929039,13.841463089,28.6585388184,1.0,0.0,0.0,0.0,1.0,0.0,0.0,0.0,1.0,-1.22583125,-1.04387185076,10.1466266357,1.0,0.0,0.0,0.0,1.0,0.0,0.0,0.0,1.0
1463935346821678886,407,1463935346812544758,,7.07902050018,-0.649922251701,7.16852283478,0.00169599999208,1.0,0.0,0.0,0.0,1.0,0.0,0.0,0.0,1.0,-1.70731711388,13.5365858078,27.3780498505,1.0,0.0,0.0,0.0,1.0,0.0,0.0,0.0,1.0,-0.991199487305,-1.14921679688,10.165780249,1.0,0.0,0.0,0.0,1.0,0.0,0.0,0.0,1.0
1463935346836869133,408,1463935346835156484,,7.44428730011,-0.841975569725,7.90385293961,0.00320999999531,1.0,0.0,0.0,0.0,1.0,0.0,0.0,0.0,1.0,-6.40243911743,16.2804889679,28.2317066193,1.0,0.0,0.0,0.0,1.0,0.0,0.0,0.0,1.0,-1.01035310059,-1.50355864258,10.0939541992,1.0,0.0,0.0,0.0,1.0,0.0,0.0,0.0,1.0
1463935346858330292,409,1463935346854976712,,7.83222818375,-1.10271024704,8.62909507751,0.00147100002505,1.0,0.0,0.0,0.0,1.0,0.0,0.0,0.0,1.0,-8.10975551605,16.7073173523,28.9024410248,1.0,0.0,0.0,0.0,1.0,0.0,0.0,0.0,1.0,-1.08217922346,-1.77170922852,10.1226846191,1.0,0.0,0.0,0.0,1.0,0.0,0.0,0.0,1.0
1463935346893171966,410,1463935346884202681,,8.27607250214,-1.50953531265,9.61143112183,0.0230989996344,1.0,0.0,0.0,0.0,1.0,0.0,0.0,0.0,1.0,-8.41463470459,12.8658542633,28.9024410248,1.0,0.0,0.0,0.0,1.0,0.0,0.0,0.0,1.0,-1.11569797363,-1.96803376465,10.1753570557,1.0,0.0,0.0,0.0,1.0,0.0,0.0,0.0,1.0
1463935346909666635,411,1463935346905362903,,8.60322761536,-1.8021774292,10.4115028381,0.00364500004798,1.0,0.0,0.0,0.0,1.0,0.0,0.0,0.0,1.0,-7.31707334518,11.0365858078,30.7926845551,1.0,0.0,0.0,0.0,1.0,0.0,0.0,0.0,1.0,-1.01035310059,-1.8866309082,10.1083194092,1.0,0.0,0.0,0.0,1.0,0.0,0.0,0.0,1.0
1463935346968527685,412,1463935346932297892,,8.88809394836,-2.07429599762,11.3375806808,0.00740899983793,1.0,0.0,0.0,0.0,1.0,0.0,0.0,0.0,1.0,-6.58536624908,8.23170757294,31.8902454376,1.0,0.0,0.0,0.0,1.0,0.0,0.0,0.0,1.0,-0.890643017578,-1.70945998535,9.82101520996,1.0,0.0,0.0,0.0,1.0,0.0,0.0,0.0,1.0
1463935346969277369,413,1463935346951288853,,9.0353937149,-2.2918419838,12.1102142334,0.00128800002858,1.0,0.0,0.0,0.0,1.0,0.0,0.0,0.0,1.0,-5.06097555161,5.12195110321,30.0609760284,1.0,0.0,0.0,0.0,1.0,0.0,0.0,0.0,1.0,-0.809240161133,-1.95845695801,9.81622680664,1.0,0.0,0.0,0.0,1.0,0.0,0.0,0.0,1.0
1463935347004865498,414,1463935346972133503,,9.13561439514,-2.48518753052,12.8342266083,0.0013419999741,1.0,0.0,0.0,0.0,1.0,0.0,0.0,0.0,1.0,-2.5,-0.609756112099,26.4024391174,1.0,0.0,0.0,0.0,1.0,0.0,0.0,0.0,1.0,-1.0534486574,-2.00155258789,9.95509050293,1.0,0.0,0.0,0.0,1.0,0.0,0.0,0.0,1.0
1463935347005905807,415,1463935346993884868,,9.06521511078,-2.62161159515,13.4942016602,0.00419399980456,1.0,0.0,0.0,0.0,1.0,0.0,0.0,0.0,1.0,-0.304878056049,-3.71951246262,22.5609760284,1.0,0.0,0.0,0.0,1.0,0.0,0.0,0.0,1.0,-0.584185168546,-1.90578452148,10.0412817627,1.0,0.0,0.0,0.0,1.0,0.0,0.0,0.0,1.0
1463935347238449396,416,1463935347015973159,,9.00904369354,-2.73712420464,14.1447649002,0.00406400021166,1.0,0.0,0.0,0.0,1.0,0.0,0.0,0.0,1.0,1.34146344662,0.426829278469,25.3048782349,1.0,0.0,0.0,0.0,1.0,0.0,0.0,0.0,1.0,-0.976834277344,-2.29364519043,10.1945106689,1.0,0.0,0.0,0.0,1.0,0.0,0.0,0.0,1.0
1463935347238766478,417,1463935347037329266,,9.07460212708,-2.77615261078,14.8455371857,0.00129499996547,1.0,0.0,0.0,0.0,1.0,0.0,0.0,0.0,1.0,4.08536577225,-0.304878056049,26.3414649963,1.0,0.0,0.0,0.0,1.0,0.0,0.0,0.0,1.0,-0.938527050781,-2.18830031738,10.4387192383,1.0,0.0,0.0,0.0,1.0,0.0,0.0,0.0,1.0
1463935347239056476,418,1463935347057977980,,9.07614612579,-2.77405810356,15.4834852219,0.00122400000691,1.0,0.0,0.0,0.0,1.0,0.0,0.0,0.0,1.0,7.31707334518,-3.23170733452,22.5,1.0,0.0,0.0,0.0,1.0,0.0,0.0,0.0,1.0,-0.837970581055,-1.85311208496,9.70609353027,1.0,0.0,0.0,0.0,1.0,0.0,0.0,0.0,1.0
1463935347239349131,419,1463935347079503200,,8.8803730011,-2.73108100891,15.9860286713,0.00127100001555,1.0,0.0,0.0,0.0,1.0,0.0,0.0,0.0,1.0,8.04878044128,-9.14634132385,12.6219520569,1.0,0.0,0.0,0.0,1.0,0.0,0.0,0.0,1.0,-0.363918652344,-1.838746875,10.0317049561,1.0,0.0,0.0,0.0,1.0,0.0,0.0,0.0,1.0
1463935347239651474,420,1463935347100533371,,8.6638879776,-2.69876122475,16.3640785217,0.00141699996311,1.0,0.0,0.0,0.0,1.0,0.0,0.0,0.0,1.0,10.0609760284,-4.57317066193,12.3170728683,1.0,0.0,0.0,0.0,1.0,0.0,0.0,0.0,1.0,-0.330399829102,-2.35589428746,10.8696755371,1.0,0.0,0.0,0.0,1.0,0.0,0.0,0.0,1.0
1463935347240836625,421,1463935347124877277,,8.64699554443,-2.61267328262,16.8325271606,0.00231299991719,1.0,0.0,0.0,0.0,1.0,0.0,0.0,0.0,1.0,13.7195129395,6.09756088257,19.2682914734,1.0,0.0,0.0,0.0,1.0,0.0,0.0,0.0,1.0,-0.775721337891,-2.09253210485,10.6302553711,1.0,0.0,0.0,0.0,1.0,0.0,0.0,0.0,1.0
1463935347242136672,422,1463935347143092616,,8.80094718933,-2.44592213631,17.3603782654,0.00340600009076,1.0,0.0,0.0,0.0,1.0,0.0,0.0,0.0,1.0,13.5365858078,8.65853691101,19.5121955872,1.0,0.0,0.0,0.0,1.0,0.0,0.0,0.0,1.0,-0.541089611728,-1.76213242187,10.2807019287,1.0,0.0,0.0,0.0,1.0,0.0,0.0,0.0,1.0
1463935347243233542,423,1463935347164275911,,8.89037322998,-2.30159759521,17.847820282,0.00129899999592,1.0,0.0,0.0,0.0,1.0,0.0,0.0,0.0,1.0,13.2317075729,6.58536624908,14.3902444839,1.0,0.0,0.0,0.0,1.0,0.0,0.0,0.0,1.0,-0.359130249023,-1.75734401855,9.7587659668,1.0,0.0,0.0,0.0,1.0,0.0,0.0,0.0,1.0
1463935347243686873,424,1463935347185162280,,8.97508430481,-2.17380547523,18.2860717773,0.00126499996986,1.0,0.0,0.0,0.0,1.0,0.0,0.0,0.0,1.0,12.5,7.37804937363,15.9146347046,1.0,0.0,0.0,0.0,1.0,0.0,0.0,0.0,1.0,-0.488417138672,-2.04943662109,10.3046439453,1.0,0.0,0.0,0.0,1.0,0.0,0.0,0.0,1.0
1463935347244056507,425,1463935347205930160,,9.1797952652,-2.02752661705,18.8273849487,0.00124899996445,1.0,0.0,0.0,0.0,1.0,0.0,0.0,0.0,1.0,10.7317075729,10.6097564697,23.2926845551,1.0,0.0,0.0,0.0,1.0,0.0,0.0,0.0,1.0,-0.842758984375,-1.87705410156,9.97424411621,1.0,0.0,0.0,0.0,1.0,0.0,0.0,0.0,1.0
1463935347385825745,426,1463935347227706577,,9.33386898041,-1.86820614338,19.491859436,0.00138599995989,1.0,0.0,0.0,0.0,1.0,0.0,0.0,0.0,1.0,8.5365858078,8.59756088257,24.1463432312,1.0,0.0,0.0,0.0,1.0,0.0,0.0,0.0,1.0,-0.45968671875,-1.10612116699,9.67257470703,1.0,0.0,0.0,0.0,1.0,0.0,0.0,0.0,1.0
1463935347386297982,427,1463935347248316593,,9.39493179321,-1.76602256298,20.1139011383,0.00139500002842,1.0,0.0,0.0,0.0,1.0,0.0,0.0,0.0,1.0,3.35365867615,4.2682929039,22.2560977936,1.0,0.0,0.0,0.0,1.0,0.0,0.0,0.0,1.0,-0.359130249023,-1.11090957031,9.89762966309,1.0,0.0,0.0,0.0,1.0,0.0,0.0,0.0,1.0
1463935347386548971,428,1463935347270543738,,9.37018871307,-1.77187490463,20.7045326233,0.00211100000888,1.0,0.0,0.0,0.0,1.0,0.0,0.0,0.0,1.0,1.09756100178,-0.975609779358,18.2926826477,1.0,0.0,0.0,0.0,1.0,0.0,0.0,0.0,1.0,-0.560243188477,-1.32159931641,9.88805285645,1.0,0.0,0.0,0.0,1.0,0.0,0.0,0.0,1.0
1463935347386589804,429,1463935347291918750,,9.27785205841,-1.83623492718,21.2168865204,0.00257500004955,1.0,0.0,0.0,0.0,1.0,0.0,0.0,0.0,1.0,-1.09756100178,-4.2682929039,16.5243911743,1.0,0.0,0.0,0.0,1.0,0.0,0.0,0.0,1.0,-0.445321508789,-1.10612116699,10.0029745361,1.0,0.0,0.0,0.0,1.0,0.0,0.0,0.0,1.0
1463935347386675429,430,1463935347317656349,,9.07876300812,-1.9733029604,21.7969665527,0.00524500012398,1.0,0.0,0.0,0.0,1.0,0.0,0.0,0.0,1.0,-8.04878044128,-1.34146344662,15.7317075729,1.0,0.0,0.0,0.0,1.0,0.0,0.0,0.0,1.0,-0.0335188255255,-0.713472094727,10.8361567139,1.0,0.0,0.0,0.0,1.0,0.0,0.0,0.0,1.0
1463935347387179593,431,1463935347338009282,,8.99370002747,-2.20134711266,22.2726802826,0.00317799998447,1.0,0.0,0.0,0.0,1.0,0.0,0.0,0.0,1.0,-14.0853662491,3.47560977936,15.548781395,1.0,0.0,0.0,0.0,1.0,0.0,0.0,0.0,1.0,0.0574608398438,-0.651222851562,10.3477395752,1.0,0.0,0.0,0.0,1.0,0.0,0.0,0.0,1.0
1463935347387491363,432,1463935347361167673,,8.99327945709,-2.60973930359,22.742193222,0.00506799994037,1.0,0.0,0.0,0.0,1.0,0.0,0.0,0.0,1.0,-20.3658542633,5.67073154449,11.7682924271,1.0,0.0,0.0,0.0,1.0,0.0,0.0,0.0,1.0,0.0814028564453,-0.723048901367,10.6446205811,1.0,0.0,0.0,0.0,1.0,0.0,0.0,0.0,1.0
1463935347387558550,433,1463935347383500025,,9.15378952026,-3.15619492531,23.1572818756,0.0123539995402,1.0,0.0,0.0,0.0,1.0,0.0,0.0,0.0,1.0,-21.5243911743,7.68292665482,12.6219520569,1.0,0.0,0.0,0.0,1.0,0.0,0.0,0.0,1.0,-1.09175595703,-1.33596452637,10.8122146973,1.0,0.0,0.0,0.0,1.0,0.0,0.0,0.0,1.0
1463935347549841085,434,1463935347405772534,,9.18850803375,-3.69228768349,23.5684337616,0.00245400005952,1.0,0.0,0.0,0.0,1.0,0.0,0.0,0.0,1.0,-20.4878044128,0.609756112099,11.8292684555,1.0,0.0,0.0,0.0,1.0,0.0,0.0,0.0,1.0,-1.06781401349,-1.49398183594,10.9798088135,1.0,0.0,0.0,0.0,1.0,0.0,0.0,0.0,1.0
1463935347549891345,435,1463935347428247074,,9.10746669769,-4.1442232132,23.987039566,0.00228899996728,1.0,0.0,0.0,0.0,1.0,0.0,0.0,0.0,1.0,-20.6707324982,-2.74390244484,11.7682924271,1.0,0.0,0.0,0.0,1.0,0.0,0.0,0.0,1.0,-0.225054956055,-0.627280834961,10.539275708,1.0,0.0,0.0,0.0,1.0,0.0,0.0,0.0,1.0
1463935347553220654,436,1463935347449691149,,9.00810813904,-4.54121398926,24.4198722839,0.00270600011572,1.0,0.0,0.0,0.0,1.0,0.0,0.0,0.0,1.0,-25.182926178,-1.03658533096,12.1951217651,1.0,0.0,0.0,0.0,1.0,0.0,0.0,0.0,1.0,-0.162805712891,0.0239420166016,9.90241806641,1.0,0.0,0.0,0.0,1.0,0.0,0.0,0.0,1.0
1463935347553299300,437,1463935347472355062,,8.95582199097,-4.9988656044,24.8619422913,0.00138300005347,1.0,0.0,0.0,0.0,1.0,0.0,0.0,0.0,1.0,-30.6097583771,2.01219511032,13.7195129395,1.0,0.0,0.0,0.0,1.0,0.0,0.0,0.0,1.0,-0.0143652099609,-0.114921679688,9.18415756836,1.0,0.0,0.0,0.0,1.0,0.0,0.0,0.0,1.0
1463935347553341851,438,1463935347493479607,,8.96834182739,-5.59058856964,25.3534564972,0.0026680000592,1.0,0.0,0.0,0.0,1.0,0.0,0.0,0.0,1.0,-33.7195129395,4.45121955872,15.0609760284,1.0,0.0,0.0,0.0,1.0,0.0,0.0,0.0,1.0,-0.0478840332031,-0.258573779297,8.8872765625,1.0,0.0,0.0,0.0,1.0,0.0,0.0,0.0,1.0
1463935347554176275,439,1463935347514749621,,9.03244113922,-6.20721197128,25.8326416016,0.00162999995518,1.0,0.0,0.0,0.0,1.0,0.0,0.0,0.0,1.0,-34.4512214661,5.54878091812,14.8170728683,1.0,0.0,0.0,0.0,1.0,0.0,0.0,0.0,1.0,-0.268150604204,-0.363918652344,8.72447084961,1.0,0.0,0.0,0.0,1.0,0.0,0.0,0.0,1.0
1463935347554677992,440,1463935347535248231,,9.1198015213,-6.81051874161,26.2596626282,0.00197699991986,1.0,0.0,0.0,0.0,1.0,0.0,0.0,0.0,1.0,-31.6463413239,3.23170733452,12.8658542633,1.0,0.0,0.0,0.0,1.0,0.0,0.0,0.0,1.0,-0.684741674805,-0.828393774414,8.84896933594,1.0,0.0,0.0,0.0,1.0,0.0,0.0,0.0,1.0
1463935347611008792,441,1463935347556601317,,9.13869762421,-7.3835773468,26.6394672394,0.00137700000778,1.0,0.0,0.0,0.0,1.0,0.0,0.0,0.0,1.0,-26.7682933807,-2.92682933807,10.0609760284,1.0,0.0,0.0,0.0,1.0,0.0,0.0,0.0,1.0,-0.857124194336,-1.16358193377,9.38526992329,1.0,0.0,0.0,0.0,1.0,0.0,0.0,0.0,1.0
1463935347611604363,442,1463935347577339561,,9.04598140717,-7.84079456329,27.020406723,0.00150200002827,1.0,0.0,0.0,0.0,1.0,0.0,0.0,0.0,1.0,-20.0609760284,-6.21951246262,11.1585359573,1.0,0.0,0.0,0.0,1.0,0.0,0.0,0.0,1.0,-0.876277807617,-1.19710090314,9.64384487163,1.0,0.0,0.0,0.0,1.0,0.0,0.0,0.0,1.0
1463935347708557229,443,1463935347598820928,,8.90478420258,-8.15168571472,27.4720935822,0.00190999999177,1.0,0.0,0.0,0.0,1.0,0.0,0.0,0.0,1.0,-13.1097564697,-9.02439117432,15.0000009537,1.0,0.0,0.0,0.0,1.0,0.0,0.0,0.0,1.0,-0.76135612793,-1.43652099609,9.86889924316,1.0,0.0,0.0,0.0,1.0,0.0,0.0,0.0,1.0
1463935347709774308,444,1463935347619469537,,8.68831920624,-8.29853439331,27.9484462738,0.00183900003321,1.0,0.0,0.0,0.0,1.0,0.0,0.0,0.0,1.0,-6.46341466904,-16.0365848541,12.3170728683,1.0,0.0,0.0,0.0,1.0,0.0,0.0,0.0,1.0,-0.100556469727,-1.08217922346,9.89762966309,1.0,0.0,0.0,0.0,1.0,0.0,0.0,0.0,1.0
1463935347709852641,445,1463935347640148043,,8.3546628952,-8.30982398987,28.3805465698,0.00154500000644,1.0,0.0,0.0,0.0,1.0,0.0,0.0,0.0,1.0,-1.8292683363,-15.3048791885,11.4634151459,1.0,0.0,0.0,0.0,1.0,0.0,0.0,0.0,1.0,-0.368707055664,-0.943315454102,10.5057568848,1.0,0.0,0.0,0.0,1.0,0.0,0.0,0.0,1.0
1463935347710191285,446,1463935347661376858,,8.08737564087,-8.22738552094,28.8308334351,0.00195199996233,1.0,0.0,0.0,0.0,1.0,0.0,0.0,0.0,1.0,1.2804877758,-10.1219511032,14.2073173523,1.0,0.0,0.0,0.0,1.0,0.0,0.0,0.0,1.0,-0.45968671875,-1.21625444336,10.299855542,1.0,0.0,0.0,0.0,1.0,0.0,0.0,0.0,1.0
1463935347711598675,447,1463935347683096245,,8.00900268555,-8.07378101349,29.3741855621,0.00179100001696,1.0,0.0,0.0,0.0,1.0,0.0,0.0,0.0,1.0,5.12195110321,-4.51219558716,18.5365848541,1.0,0.0,0.0,0.0,1.0,0.0,0.0,0.0,1.0,-0.656011254883,-1.13006318359,9.92157167969,1.0,0.0,0.0,0.0,1.0,0.0,0.0,0.0,1.0
1463935347747058679,448,1463935347703623501,,8.00831222534,-7.85178995132,29.9265575409,0.00153600005433,1.0,0.0,0.0,0.0,1.0,0.0,0.0,0.0,1.0,7.25609779358,-2.68292689323,19.0853652954,1.0,0.0,0.0,0.0,1.0,0.0,0.0,0.0,1.0,-0.91458503418,-0.900219824219,10.0556469727,1.0,0.0,0.0,0.0,1.0,0.0,0.0,0.0,1.0
1463935347747102950,449,1463935347725041951,,7.92245769501,-7.60537338257,30.4386005402,0.00152799999341,1.0,0.0,0.0,0.0,1.0,0.0,0.0,0.0,1.0,8.41463470459,-2.31707310677,15.4268302917,1.0,0.0,0.0,0.0,1.0,0.0,0.0,0.0,1.0,-0.220266552734,-0.995987890625,10.060435376,1.0,0.0,0.0,0.0,1.0,0.0,0.0,0.0,1.0
1463935347787130852,450,1463935347746908055,,7.88168621063,-7.34374952316,30.9533691406,0.00151099998038,1.0,0.0,0.0,0.0,1.0,0.0,0.0,0.0,1.0,9.45121955872,0.731707334518,17.0121955872,1.0,0.0,0.0,0.0,1.0,0.0,0.0,0.0,1.0,-0.0909796630859,-1.13485158691,10.4291424316,1.0,0.0,0.0,0.0,1.0,0.0,0.0,0.0,1.0
1463935347787685433,451,1463935347769447125,,7.90427064896,-7.04638385773,31.4816131592,0.00223900005221,1.0,0.0,0.0,0.0,1.0,0.0,0.0,0.0,1.0,12.1951217651,0.548780500889,16.4024391174,1.0,0.0,0.0,0.0,1.0,0.0,0.0,0.0,1.0,-0.569819995117,-1.09175595703,9.74918916016,1.0,0.0,0.0,0.0,1.0,0.0,0.0,0.0,1.0
1463935347846189297,452,1463935347790205005,,7.86185741425,-6.73681306839,31.9365825653,0.00143499998376,1.0,0.0,0.0,0.0,1.0,0.0,0.0,0.0,1.0,14.1463422775,-1.2195122242,14.0243902206,1.0,0.0,0.0,0.0,1.0,0.0,0.0,0.0,1.0,-0.440533105469,-1.06781401349,9.80665,1.0,0.0,0.0,0.0,1.0,0.0,0.0,0.0,1.0
1463935347846485963,453,1463935347810885282,,7.80647706985,-6.39601707458,32.3749656677,0.00159999995958,1.0,0.0,0.0,0.0,1.0,0.0,0.0,0.0,1.0,16.341463089,1.15853655338,14.4512205124,1.0,0.0,0.0,0.0,1.0,0.0,0.0,0.0,1.0,0.138863696289,-1.2497732666,10.0412817627,1.0,0.0,0.0,0.0,1.0,0.0,0.0,0.0,1.0
1463935347870474610,454,1463935347832770969,,7.86452484131,-5.99416971207,32.8938522339,0.00162500003353,1.0,0.0,0.0,0.0,1.0,0.0,0.0,0.0,1.0,19.817073822,3.59756112099,19.3902435303,1.0,0.0,0.0,0.0,1.0,0.0,0.0,0.0,1.0,-0.679953271484,-1.21625444336,9.7827079834,1.0,0.0,0.0,0.0,1.0,0.0,0.0,0.0,1.0
1463935347870542579,455,1463935347854160878,,7.93089485168,-5.50396203995,33.4594345093,0.0012450000504,1.0,0.0,0.0,0.0,1.0,0.0,0.0,0.0,1.0,23.1097564697,-2.01219511032,18.9024391174,1.0,0.0,0.0,0.0,1.0,0.0,0.0,0.0,1.0,-0.636857641602,-0.900219824219,9.34217429341,1.0,0.0,0.0,0.0,1.0,0.0,0.0,0.0,1.0
1463935347907594556,456,1463935347874994851,,7.81864547729,-4.99702978134,33.9734458923,0.00164399994537,1.0,0.0,0.0,0.0,1.0,0.0,0.0,0.0,1.0,24.0243911743,-7.86585378647,16.158536911,1.0,0.0,0.0,0.0,1.0,0.0,0.0,0.0,1.0,-0.282515795898,-1.06302561017,9.60553764507,1.0,0.0,0.0,0.0,1.0,0.0,0.0,0.0,1.0
1463935347907631326,457,1463935347896673561,,7.57206058502,-4.44204950333,34.4743804932,0.00163900002372,1.0,0.0,0.0,0.0,1.0,0.0,0.0,0.0,1.0,25.3658542633,-11.7073173523,14.6951217651,1.0,0.0,0.0,0.0,1.0,0.0,0.0,0.0,1.0,-0.100556469727,-0.905008227539,9.84016882324,1.0,0.0,0.0,0.0,1.0,0.0,0.0,0.0,1.0
1463935347943648047,458,1463935347917301545,,7.27009725571,-3.8890478611,34.9336929321,0.00162200001068,1.0,0.0,0.0,0.0,1.0,0.0,0.0,0.0,1.0,24.5121955872,-12.4390249252,13.048781395,1.0,0.0,0.0,0.0,1.0,0.0,0.0,0.0,1.0,0.100556469727,-0.612915625,9.69172832031,1.0,0.0,0.0,0.0,1.0,0.0,0.0,0.0,1.0
1463935347943689922,459,1463935347938068852,,6.97854280472,-3.38436603546,35.3512878418,0.00387299992144,1.0,0.0,0.0,0.0,1.0,0.0,0.0,0.0,1.0,22.1951236725,-7.80487823486,11.4024391174,1.0,0.0,0.0,0.0,1.0,0.0,0.0,0.0,1.0,0.215478149414,-0.660799658203,9.98382092285,1.0,0.0,0.0,0.0,1.0,0.0,0.0,0.0,1.0
1463935347983590377,460,1463935347959765791,,6.81696271896,-2.9282875061,35.7799873352,0.0014600000577,1.0,0.0,0.0,0.0,1.0,0.0,0.0,0.0,1.0,20.1219520569,-2.19512200356,12.8658542633,1.0,0.0,0.0,0.0,1.0,0.0,0.0,0.0,1.0,-0.244208569336,-0.402225878906,10.0891657959,1.0,0.0,0.0,0.0,1.0,0.0,0.0,0.0,1.0
1463935347983644022,461,1463935347981597468,,6.70914173126,-2.52107906342,36.1763114929,0.00179999996908,1.0,0.0,0.0,0.0,1.0,0.0,0.0,0.0,1.0,16.5853652954,-1.40243899822,9.87804889679,1.0,0.0,0.0,0.0,1.0,0.0,0.0,0.0,1.0,-0.239420166016,-0.229843359375,9.70130512695,1.0,0.0,0.0,0.0,1.0,0.0,0.0,0.0,1.0
1463935348010037191,462,1463935348002878211,,6.57778453827,-2.20300459862,36.4773979187,0.00181699998211,1.0,0.0,0.0,0.0,1.0,0.0,0.0,0.0,1.0,11.5853662491,-3.59756112099,4.39024400711,1.0,0.0,0.0,0.0,1.0,0.0,0.0,0.0,1.0,0.205901342773,-0.134075302102,10.060435376,1.0,0.0,0.0,0.0,1.0,0.0,0.0,0.0,1.0
1463935348027627324,463,1463935348023830517,,6.39981412888,-2.00564026833,36.6857414246,0.00138899998274,1.0,0.0,0.0,0.0,1.0,0.0,0.0,0.0,1.0,8.17073154449,-3.96341490746,1.46341466904,1.0,0.0,0.0,0.0,1.0,0.0,0.0,0.0,1.0,0.239420166016,-0.46447512207,10.1705686523,1.0,0.0,0.0,0.0,1.0,0.0,0.0,0.0,1.0
1463935348236987574,464,1463935348045553080,,6.21033287048,-1.86925160885,36.8484687805,0.00157399999443,1.0,0.0,0.0,0.0,1.0,0.0,0.0,0.0,1.0,5.54878091812,-4.69512224197,-0.243902444839,1.0,0.0,0.0,0.0,1.0,0.0,0.0,0.0,1.0,0.119710083008,-0.335188232422,10.1131078125,1.0,0.0,0.0,0.0,1.0,0.0,0.0,0.0,1.0
1463935348237275802,465,1463935348073628012,,6.00118780136,-1.81481480598,37.0640640259,0.00960200000554,1.0,0.0,0.0,0.0,1.0,0.0,0.0,0.0,1.0,2.01219511032,-3.17073178291,1.03658533096,1.0,0.0,0.0,0.0,1.0,0.0,0.0,0.0,1.0,0.397437475586,-0.526724328702,10.165780249,1.0,0.0,0.0,0.0,1.0,0.0,0.0,0.0,1.0
1463935348237895383,466,1463935348094645631,,5.93996763229,-1.82093787193,37.2721748352,0.00150100002065,1.0,0.0,0.0,0.0,1.0,0.0,0.0,0.0,1.0,2.80487799644,2.68292689323,4.08536577225,1.0,0.0,0.0,0.0,1.0,0.0,0.0,0.0,1.0,-0.0957680664062,-0.92416184082,10.2807019287,1.0,0.0,0.0,0.0,1.0,0.0,0.0,0.0,1.0
1463935348238580953,467,1463935348114568983,,5.97944116592,-1.78674352169,37.5238990784,0.00195299996994,1.0,0.0,0.0,0.0,1.0,0.0,0.0,0.0,1.0,4.87804889679,4.08536577225,6.28048801422,1.0,0.0,0.0,0.0,1.0,0.0,0.0,0.0,1.0,-0.201112939453,-0.646434448242,10.1992990723,1.0,0.0,0.0,0.0,1.0,0.0,0.0,0.0,1.0
1463935348239018868,468,1463935348135393946,,6.00103473663,-1.68871164322,37.7927703857,0.00150699994992,1.0,0.0,0.0,0.0,1.0,0.0,0.0,0.0,1.0,5.73170757294,1.03658533096,5.85365867615,1.0,0.0,0.0,0.0,1.0,0.0,0.0,0.0,1.0,-0.277727392578,-0.526724328702,10.6302553711,1.0,0.0,0.0,0.0,1.0,0.0,0.0,0.0,1.0
1463935348239481678,469,1463935348156220003,,5.99799394608,-1.58304035664,38.0691413879,0.00135899998713,1.0,0.0,0.0,0.0,1.0,0.0,0.0,0.0,1.0,4.87804889679,-1.34146344662,6.15853643417,1.0,0.0,0.0,0.0,1.0,0.0,0.0,0.0,1.0,-0.550666381836,-0.143652099609,9.94551369629,1.0,0.0,0.0,0.0,1.0,0.0,0.0,0.0,1.0
1463935348239955895,470,1463935348176807936,,5.8697309494,-1.47987353802,38.2976112366,0.00190699996892,1.0,0.0,0.0,0.0,1.0,0.0,0.0,0.0,1.0,4.45121955872,-2.56097555161,1.8292683363,1.0,0.0,0.0,0.0,1.0,0.0,0.0,0.0,1.0,0.445321508789,0.0287304199219,10.0412817627,1.0,0.0,0.0,0.0,1.0,0.0,0.0,0.0,1.0
1463935348241524899,471,1463935348197991752,,5.7496471405,-1.41398704052,38.4721984863,0.0018459999701,1.0,0.0,0.0,0.0,1.0,0.0,0.0,0.0,1.0,3.35365867615,1.03658533096,0.731707334518,1.0,0.0,0.0,0.0,1.0,0.0,0.0,0.0,1.0,0.363918652344,-0.320823022461,10.2136642822,1.0,0.0,0.0,0.0,1.0,0.0,0.0,0.0,1.0
1463935348243614473,472,1463935348219278327,,5.74057102203,-1.3757276535,38.6443710327,0.00147400004789,1.0,0.0,0.0,0.0,1.0,0.0,0.0,0.0,1.0,3.04878044128,4.87804889679,0.853658556938,1.0,0.0,0.0,0.0,1.0,0.0,0.0,0.0,1.0,0.287304199219,-0.272938989258,10.5823713379,1.0,0.0,0.0,0.0,1.0,0.0,0.0,0.0,1.0
1463935349295796433,473,1463935348256332596,,5.90480184555,-1.34708869457,38.8106498718,0.021359000355,1.0,0.0,0.0,0.0,1.0,0.0,0.0,0.0,1.0,0.548780500889,7.31707334518,-3.29268312454,1.0,0.0,0.0,0.0,1.0,0.0,0.0,0.0,1.0,-0.186747729492,0.0239420166016,10.2902787354,1.0,0.0,0.0,0.0,1.0,0.0,0.0,0.0,1.0
1463935349296289556,474,1463935348273408565,,5.95917892456,-1.374953866,38.8557052612,0.00165200000629,1.0,0.0,0.0,0.0,1.0,0.0,0.0,0.0,1.0,-3.04878044128,7.80487823486,-5.73170757294,1.0,0.0,0.0,0.0,1.0,0.0,0.0,0.0,1.0,0.354341845703,0.0622492431641,10.3764699951,1.0,0.0,0.0,0.0,1.0,0.0,0.0,0.0,1.0
1463935349297618977,475,1463935348295948364,,6.12968635559,-1.48009574413,38.8886451721,0.00147599994671,1.0,0.0,0.0,0.0,1.0,0.0,0.0,0.0,1.0,-6.40243911743,11.8902444839,-5.54878091812,1.0,0.0,0.0,0.0,1.0,0.0,0.0,0.0,1.0,-0.354341845703,0.138863696289,10.1897222656,1.0,0.0,0.0,0.0,1.0,0.0,0.0,0.0,1.0
1463935349298239808,476,1463935348315293281,,6.35627031326,-1.63752686977,38.9106750488,0.00133600004483,1.0,0.0,0.0,0.0,1.0,0.0,0.0,0.0,1.0,-7.98780536652,12.2560977936,-6.52439069748,1.0,0.0,0.0,0.0,1.0,0.0,0.0,0.0,1.0,-0.0718260498047,-0.244208569336,10.524910498,1.0,0.0,0.0,0.0,1.0,0.0,0.0,0.0,1.0
1463935349298544546,477,1463935348336451732,,6.57551288605,-1.8453732729,38.9131469727,0.00159400003031,1.0,0.0,0.0,0.0,1.0,0.0,0.0,0.0,1.0,-8.84146404266,11.9512195587,-7.31707334518,1.0,0.0,0.0,0.0,1.0,0.0,0.0,0.0,1.0,-0.555454785156,-0.162805712891,9.87368764648,1.0,0.0,0.0,0.0,1.0,0.0,0.0,0.0,1.0
1463935349299172877,478,1463935348357848985,,6.70665550232,-2.0738427639,38.8517379761,0.00146499997936,1.0,0.0,0.0,0.0,1.0,0.0,0.0,0.0,1.0,-9.93902492523,6.15853643417,-12.6829271317,1.0,0.0,0.0,0.0,1.0,0.0,0.0,0.0,1.0,-0.239420166016,0.0,10.3860468018,1.0,0.0,0.0,0.0,1.0,0.0,0.0,0.0,1.0
1463935349300682506,479,1463935348378677698,,6.69843149185,-2.30780363083,38.681552887,0.00152900000103,1.0,0.0,0.0,0.0,1.0,0.0,0.0,0.0,1.0,-10.3658542633,8.35365867615,-15.7926826477,1.0,0.0,0.0,0.0,1.0,0.0,0.0,0.0,1.0,0.445321508789,-0.430956298828,9.92157167969,1.0,0.0,0.0,0.0,1.0,0.0,0.0,0.0,1.0
1463935349304067075,480,1463935348399739066,,6.88757276535,-2.55667901039,38.5472793579,0.00156500004232,1.0,0.0,0.0,0.0,1.0,0.0,0.0,0.0,1.0,-9.63414573669,12.7439022064,-11.1585359573,1.0,0.0,0.0,0.0,1.0,0.0,0.0,0.0,1.0,-0.641646044922,-0.392649072266,9.5432884019,1.0,0.0,0.0,0.0,1.0,0.0,0.0,0.0,1.0
1463935349304752853,481,1463935348421089079,,7.112429142,-2.76431751251,38.4332351685,0.00145400001202,1.0,0.0,0.0,0.0,1.0,0.0,0.0,0.0,1.0,-8.23170757294,11.4634151459,-13.2926826477,1.0,0.0,0.0,0.0,1.0,0.0,0.0,0.0,1.0,-0.335188232422,-0.105344873047,8.82981572266,1.0,0.0,0.0,0.0,1.0,0.0,0.0,0.0,1.0
1463935349305078320,482,1463935348442354665,,7.24734354019,-2.95128893852,38.2428588867,0.00152399996296,1.0,0.0,0.0,0.0,1.0,0.0,0.0,0.0,1.0,-7.56097555161,9.81707286835,-17.317073822,1.0,0.0,0.0,0.0,1.0,0.0,0.0,0.0,1.0,-0.105344873047,-0.349553442383,8.49941647808,1.0,0.0,0.0,0.0,1.0,0.0,0.0,0.0,1.0
1463935349306368471,483,1463935348464000979,,7.35855770111,-3.15851473808,37.9997825623,0.00148199999239,1.0,0.0,0.0,0.0,1.0,0.0,0.0,0.0,1.0,-5.97560977936,10.0,-18.1707305908,1.0,0.0,0.0,0.0,1.0,0.0,0.0,0.0,1.0,-0.0814028564453,-0.397437475586,8.56166572124,1.0,0.0,0.0,0.0,1.0,0.0,0.0,0.0,1.0
1463935349307221020,484,1463935348484954587,,7.49314498901,-3.3324174881,37.7616844177,0.00166700000409,1.0,0.0,0.0,0.0,1.0,0.0,0.0,0.0,1.0,-5.06097555161,9.93902492523,-16.5853652954,1.0,0.0,0.0,0.0,1.0,0.0,0.0,0.0,1.0,-0.129286889648,-0.363918652344,8.56645412456,1.0,0.0,0.0,0.0,1.0,0.0,0.0,0.0,1.0
1463935349307738153,485,1463935348506273454,,7.64340496063,-3.49126291275,37.5698738098,0.00156999996398,1.0,0.0,0.0,0.0,1.0,0.0,0.0,0.0,1.0,-5.24390268326,7.43902492523,-14.9390249252,1.0,0.0,0.0,0.0,1.0,0.0,0.0,0.0,1.0,-0.502782348633,-0.445321508789,8.66701059429,1.0,0.0,0.0,0.0,1.0,0.0,0.0,0.0,1.0
1463935349308140495,486,1463935348528220340,,7.71420478821,-3.66941666603,37.411277771,0.0018230000278,1.0,0.0,0.0,0.0,1.0,0.0,0.0,0.0,1.0,-5.85365867615,6.64634132385,-12.9268293381,1.0,0.0,0.0,0.0,1.0,0.0,0.0,0.0,1.0,0.076614453125,-0.335188232422,8.67658681641,1.0,0.0,0.0,0.0,1.0,0.0,0.0,0.0,1.0
1463935349309338146,487,1463935348549431499,,7.75321578979,-3.84821510315,37.2709236145,0.00146499997936,1.0,0.0,0.0,0.0,1.0,0.0,0.0,0.0,1.0,-7.74390268326,8.10975551605,-12.5609760284,1.0,0.0,0.0,0.0,1.0,0.0,0.0,0.0,1.0,-0.15322890625,-0.493205541992,9.11233151855,1.0,0.0,0.0,0.0,1.0,0.0,0.0,0.0,1.0
1463935349309941425,488,1463935348571524217,,7.92465686798,-4.10059118271,37.2055778503,0.00203699991107,1.0,0.0,0.0,0.0,1.0,0.0,0.0,0.0,1.0,-8.59756088257,12.5,-5.73170757294,1.0,0.0,0.0,0.0,1.0,0.0,0.0,0.0,1.0,-0.76614453125,-0.689530078125,8.96389101563,1.0,0.0,0.0,0.0,1.0,0.0,0.0,0.0,1.0
1463935349313075474,489,1463935348591979546,,8.21280002594,-4.34971189499,37.2797622681,0.00178399996366,1.0,0.0,0.0,0.0,1.0,0.0,0.0,0.0,1.0,-8.71951198578,9.02439117432,-0.792682945728,1.0,0.0,0.0,0.0,1.0,0.0,0.0,0.0,1.0,-1.23061965332,-1.13485158691,9.50019277202,1.0,0.0,0.0,0.0,1.0,0.0,0.0,0.0,1.0
1463935349313616096,490,1463935348613179404,,8.34696006775,-4.57672739029,37.4023742676,0.00185100000817,1.0,0.0,0.0,0.0,1.0,0.0,0.0,0.0,1.0,-8.96341514587,1.52439022064,-2.80487799644,1.0,0.0,0.0,0.0,1.0,0.0,0.0,0.0,1.0,-1.1875240965,-0.45489831543,9.56723041851,1.0,0.0,0.0,0.0,1.0,0.0,0.0,0.0,1.0
1463935349314169844,491,1463935348634556604,,8.1737537384,-4.81350040436,37.4518165588,0.00217600003816,1.0,0.0,0.0,0.0,1.0,0.0,0.0,0.0,1.0,-10.6707315445,-0.548780500889,-4.39024400711,1.0,0.0,0.0,0.0,1.0,0.0,0.0,0.0,1.0,0.114921679688,-0.727837304687,10.3237975586,1.0,0.0,0.0,0.0,1.0,0.0,0.0,0.0,1.0
1463935349314632498,492,1463935348655511254,,8.17303371429,-5.10092163086,37.5416145325,0.00129499996547,1.0,0.0,0.0,0.0,1.0,0.0,0.0,0.0,1.0,-11.4634151459,2.86585378647,-1.34146344662,1.0,0.0,0.0,0.0,1.0,0.0,0.0,0.0,1.0,-0.718260498047,-1.17315874041,9.48582756206,1.0,0.0,0.0,0.0,1.0,0.0,0.0,0.0,1.0
1463935349315652754,493,1463935348675907521,,8.22660827637,-5.39672136307,37.6541023254,0.00164100003894,1.0,0.0,0.0,0.0,1.0,0.0,0.0,0.0,1.0,-11.5853662491,2.92682933807,-1.2195122242,1.0,0.0,0.0,0.0,1.0,0.0,0.0,0.0,1.0,-0.593762048251,-1.15879360352,9.63905646831,1.0,0.0,0.0,0.0,1.0,0.0,0.0,0.0,1.0
1463935349316425616,494,1463935348696448214,,8.25218296051,-5.67552709579,37.7385482788,0.00138300005347,1.0,0.0,0.0,0.0,1.0,0.0,0.0,0.0,1.0,-11.341463089,2.80487799644,-3.23170733452,1.0,0.0,0.0,0.0,1.0,0.0,0.0,0.0,1.0,-0.517147558594,-1.14921679688,9.93593688965,1.0,0.0,0.0,0.0,1.0,0.0,0.0,0.0,1.0
1463935349317168790,495,1463935348717385208,,8.2690782547,-5.93866157532,37.7787628174,0.00133600004483,1.0,0.0,0.0,0.0,1.0,0.0,0.0,0.0,1.0,-9.87804889679,5.36585378647,-5.48780488968,1.0,0.0,0.0,0.0,1.0,0.0,0.0,0.0,1.0,-0.0287304199219,-1.15879360352,9.94072529297,1.0,0.0,0.0,0.0,1.0,0.0,0.0,0.0,1.0
1463935349317660715,496,1463935348738797044,,8.36744213104,-6.20416879654,37.7761497498,0.00161299994215,1.0,0.0,0.0,0.0,1.0,0.0,0.0,0.0,1.0,-10.548781395,11.2804880142,-7.13414621353,1.0,0.0,0.0,0.0,1.0,0.0,0.0,0.0,1.0,-0.517147558594,-1.27850368652,9.71088193359,1.0,0.0,0.0,0.0,1.0,0.0,0.0,0.0,1.0
1463935349318722064,497,1463935348760947678,,8.57596969604,-6.49323225021,37.7120246887,0.00150000001304,1.0,0.0,0.0,0.0,1.0,0.0,0.0,0.0,1.0,-9.5731716156,14.0853662491,-8.96341514587,1.0,0.0,0.0,0.0,1.0,0.0,0.0,0.0,1.0,-0.995987890625,-1.51313544922,9.80665,1.0,0.0,0.0,0.0,1.0,0.0,0.0,0.0,1.0
1463935349319140552,498,1463935348781709256,,8.80521392822,-6.77142095566,37.5804786682,0.00165500002913,1.0,0.0,0.0,0.0,1.0,0.0,0.0,0.0,1.0,-7.07317113876,4.08536577225,-15.975610733,1.0,0.0,0.0,0.0,1.0,0.0,0.0,0.0,1.0,-1.19231249982,-1.43652099609,10.285490332,1.0,0.0,0.0,0.0,1.0,0.0,0.0,0.0,1.0
1463935349319730497,499,1463935348802460990,,8.68759346008,-7.02456331253,37.2685775757,0.00180600001477,1.0,0.0,0.0,0.0,1.0,0.0,0.0,0.0,1.0,-5.36585378647,-4.08536577225,-25.975610733,1.0,0.0,0.0,0.0,1.0,0.0,0.0,0.0,1.0,-0.196324536133,-1.79565124512,10.9654436035,1.0,0.0,0.0,0.0,1.0,0.0,0.0,0.0,1.0
1463935349322380278,500,1463935348822848090,,8.52810001373,-7.28218650818,36.8559341431,0.002015999984,1.0,0.0,0.0,0.0,1.0,0.0,0.0,0.0,1.0,-2.37804889679,-0.487804889679,-25.6707324982,1.0,0.0,0.0,0.0,1.0,0.0,0.0,0.0,1.0,-0.536301208408,-2.48039291992,10.9558667969,1.0,0.0,0.0,0.0,1.0,0.0,0.0,0.0,1.0
1463935349323988604,501,1463935348844298415,,8.52489948273,-7.49715185165,36.496925354,0.00147300004028,1.0,0.0,0.0,0.0,1.0,0.0,0.0,0.0,1.0,1.76829278469,3.7804877758,-18.7804889679,1.0,0.0,0.0,0.0,1.0,0.0,0.0,0.0,1.0,-1.23061965332,-2.72938989258,11.2000753662,1.0,0.0,0.0,0.0,1.0,0.0,0.0,0.0,1.0
1463935349324850840,502,1463935348865320148,,8.54852485657,-7.62156152725,36.2412071228,0.00159600004554,1.0,0.0,0.0,0.0,1.0,0.0,0.0,0.0,1.0,5.0,0.487804889679,-17.2560977936,1.0,0.0,0.0,0.0,1.0,0.0,0.0,0.0,1.0,-1.25456166992,-2.61925661621,10.7595422607,1.0,0.0,0.0,0.0,1.0,0.0,0.0,0.0,1.0
1463935349325422140,503,1463935348887006410,,8.37100505829,-7.66191864014,35.9470710754,0.0013190000318,1.0,0.0,0.0,0.0,1.0,0.0,0.0,0.0,1.0,7.74390268326,-5.91463422775,-21.8902435303,1.0,0.0,0.0,0.0,1.0,0.0,0.0,0.0,1.0,-0.191536132812,-2.55221896973,10.6302553711,1.0,0.0,0.0,0.0,1.0,0.0,0.0,0.0,1.0
1463935349327010570,504,1463935348907421635,,8.1812171936,-7.66246795654,35.6202583313,0.00157600000966,1.0,0.0,0.0,0.0,1.0,0.0,0.0,0.0,1.0,9.63414573669,-3.35365867615,-22.5609760284,1.0,0.0,0.0,0.0,1.0,0.0,0.0,0.0,1.0,-0.517147558594,-2.67671745605,10.2423947021,1.0,0.0,0.0,0.0,1.0,0.0,0.0,0.0,1.0
1463935349327712599,505,1463935348929058366,,8.07674312592,-7.62516069412,35.2967758179,0.00152799999341,1.0,0.0,0.0,0.0,1.0,0.0,0.0,0.0,1.0,10.0,-5.42682933807,-21.0975627899,1.0,0.0,0.0,0.0,1.0,0.0,0.0,0.0,1.0,-1.13485158691,-2.14041643031,10.6541973877,1.0,0.0,0.0,0.0,1.0,0.0,0.0,0.0,1.0
1463935349328334315,506,1463935348949578069,,7.88370323181,-7.58739566803,35.0271720886,0.00137299997732,1.0,0.0,0.0,0.0,1.0,0.0,0.0,0.0,1.0,7.31707334518,-8.23170757294,-20.1219520569,1.0,0.0,0.0,0.0,1.0,0.0,0.0,0.0,1.0,-0.45489831543,-2.1691467041,11.1474029297,1.0,0.0,0.0,0.0,1.0,0.0,0.0,0.0,1.0
1463935349329562434,507,1463935348970274856,,7.66686916351,-7.60391378403,34.7748146057,0.00153200002387,1.0,0.0,0.0,0.0,1.0,0.0,0.0,0.0,1.0,5.30487823486,-3.90243911743,-19.7560977936,1.0,0.0,0.0,0.0,1.0,0.0,0.0,0.0,1.0,0.253785375977,-2.39420180629,11.4873795654,1.0,0.0,0.0,0.0,1.0,0.0,0.0,0.0,1.0
1463935349330007693,508,1463935348991102579,,7.54160833359,-7.65994501114,34.4902687073,0.00141000002623,1.0,0.0,0.0,0.0,1.0,0.0,0.0,0.0,1.0,3.29268312454,-1.64634156227,-21.5243911743,1.0,0.0,0.0,0.0,1.0,0.0,0.0,0.0,1.0,-0.497993945312,-2.10210891149,10.8696755371,1.0,0.0,0.0,0.0,1.0,0.0,0.0,0.0,1.0
1463935349331193157,509,1463935349012367020,,7.42147254944,-7.76911354065,34.1356735229,0.00567199988291,1.0,0.0,0.0,0.0,1.0,0.0,0.0,0.0,1.0,0.975609779358,-3.17073178291,-24.9390239716,1.0,0.0,0.0,0.0,1.0,0.0,0.0,0.0,1.0,-0.699106884766,-1.96803376465,10.5823713379,1.0,0.0,0.0,0.0,1.0,0.0,0.0,0.0,1.0
1463935349332667525,510,1463935349033693647,,7.18643808365,-7.93991374969,33.6454925537,0.00187200005166,1.0,0.0,0.0,0.0,1.0,0.0,0.0,0.0,1.0,-2.92682933807,-2.62195134163,-32.8048782349,1.0,0.0,0.0,0.0,1.0,0.0,0.0,0.0,1.0,0.392649072266,-2.03507141113,11.1857101562,1.0,0.0,0.0,0.0,1.0,0.0,0.0,0.0,1.0
1463935349334296998,511,1463935349054873765,,7.04851007462,-8.21159362793,33.0786552429,0.00135100004263,1.0,0.0,0.0,0.0,1.0,0.0,0.0,0.0,1.0,-5.42682933807,3.90243911743,-32.134147644,1.0,0.0,0.0,0.0,1.0,0.0,0.0,0.0,1.0,-0.0335188255255,-2.66714064941,11.9518546875,1.0,0.0,0.0,0.0,1.0,0.0,0.0,0.0,1.0
1463935349334811214,512,1463935349076194611,,7.07941627502,-8.54000282288,32.5215873718,0.0013569999719,1.0,0.0,0.0,0.0,1.0,0.0,0.0,0.0,1.0,-9.39024448395,5.18292713165,-32.9268302917,1.0,0.0,0.0,0.0,1.0,0.0,0.0,0.0,1.0,-0.220266552734,-2.04943662109,11.2288057861,1.0,0.0,0.0,0.0,1.0,0.0,0.0,0.0,1.0
1463935349335264337,513,1463935349097940300,,7.04986810684,-8.93817615509,31.877450943,0.00134299998172,1.0,0.0,0.0,0.0,1.0,0.0,0.0,0.0,1.0,-16.8292694092,1.76829278469,-40.6707344055,1.0,0.0,0.0,0.0,1.0,0.0,0.0,0.0,1.0,-0.172382519531,-1.21625444336,10.7595422607,1.0,0.0,0.0,0.0,1.0,0.0,0.0,0.0,1.0
1463935349336276416,514,1463935349118831929,,6.83360338211,-9.48640918732,31.0868930817,0.00133899995126,1.0,0.0,0.0,0.0,1.0,0.0,0.0,0.0,1.0,-26.2195129395,1.2804877758,-47.0121994019,1.0,0.0,0.0,0.0,1.0,0.0,0.0,0.0,1.0,-0.3064578125,-1.34075292969,11.1138841064,1.0,0.0,0.0,0.0,1.0,0.0,0.0,0.0,1.0
1463935349337342922,515,1463935349140032464,,6.70037174225,-10.2342557907,30.2307834625,0.00135100004263,1.0,0.0,0.0,0.0,1.0,0.0,0.0,0.0,1.0,-35.8536605835,4.57317066193,-46.7682952881,1.0,0.0,0.0,0.0,1.0,0.0,0.0,0.0,1.0,-0.430956298828,-1.14921679688,10.793061084,1.0,0.0,0.0,0.0,1.0,0.0,0.0,0.0,1.0
1463935349337810420,516,1463935349161351747,,6.60306930542,-11.158572197,29.3756046295,0.00139600003604,1.0,0.0,0.0,0.0,1.0,0.0,0.0,0.0,1.0,-46.2195129395,5.42682933807,-46.8902435303,1.0,0.0,0.0,0.0,1.0,0.0,0.0,0.0,1.0,-0.335188232422,-1.23061965332,10.3812583984,1.0,0.0,0.0,0.0,1.0,0.0,0.0,0.0,1.0
1463935349338348803,517,1463935349182668167,,6.50092458725,-12.2880725861,28.517747879,0.0016309999628,1.0,0.0,0.0,0.0,1.0,0.0,0.0,0.0,1.0,-55.8536605835,5.97560977936,-46.0975646973,1.0,0.0,0.0,0.0,1.0,0.0,0.0,0.0,1.0,-0.440533105469,-1.44609780273,10.3764699951,1.0,0.0,0.0,0.0,1.0,0.0,0.0,0.0,1.0
1463935349339626402,518,1463935349204964946,,6.38127613068,-13.611035347,27.6761665344,0.00298399990425,1.0,0.0,0.0,0.0,1.0,0.0,0.0,0.0,1.0,-63.9634170532,2.86585378647,-44.0243911743,1.0,0.0,0.0,0.0,1.0,0.0,0.0,0.0,1.0,-0.282515795898,-0.981622680664,10.9175595703,1.0,0.0,0.0,0.0,1.0,0.0,0.0,0.0,1.0
1463935349340306868,519,1463935349225864492,,6.22035169601,-14.9668560028,26.9576969147,0.00128700002097,1.0,0.0,0.0,0.0,1.0,0.0,0.0,0.0,1.0,-71.707321167,2.5,-40.4268302917,1.0,0.0,0.0,0.0,1.0,0.0,0.0,0.0,1.0,-0.201112939453,-0.986411083984,10.6829278076,1.0,0.0,0.0,0.0,1.0,0.0,0.0,0.0,1.0
1463935349340750720,520,1463935349247354661,,6.1046423912,-16.4706859589,26.3139533997,0.00135999999475,1.0,0.0,0.0,0.0,1.0,0.0,0.0,0.0,1.0,-76.7682952881,4.2682929039,-33.6585388184,1.0,0.0,0.0,0.0,1.0,0.0,0.0,0.0,1.0,-0.684741674805,-1.08217922346,10.3668931885,1.0,0.0,0.0,0.0,1.0,0.0,0.0,0.0,1.0
1463935349341657383,521,1463935349268690559,,5.93522167206,-17.9576530457,25.7826080322,0.00148300000001,1.0,0.0,0.0,0.0,1.0,0.0,0.0,0.0,1.0,-79.0243911743,-4.63414621353,-35.4268302917,1.0,0.0,0.0,0.0,1.0,0.0,0.0,0.0,1.0,-0.469263525391,-0.818816967773,10.5584293213,1.0,0.0,0.0,0.0,1.0,0.0,0.0,0.0,1.0
1463935349343621229,522,1463935349289287086,,5.5646944046,-19.4313297272,25.2446899414,0.00134700001217,1.0,0.0,0.0,0.0,1.0,0.0,0.0,0.0,1.0,-79.5731735229,-8.04878044128,-37.317073822,1.0,0.0,0.0,0.0,1.0,0.0,0.0,0.0,1.0,-0.316034619141,-0.814028564453,9.95509050293,1.0,0.0,0.0,0.0,1.0,0.0,0.0,0.0,1.0
1463935349344826432,523,1463935349311405012,,5.12572479248,-20.9095687866,24.7068061829,0.001615999965,1.0,0.0,0.0,0.0,1.0,0.0,0.0,0.0,1.0,-77.3170776367,-10.6707315445,-37.7439041138,1.0,0.0,0.0,0.0,1.0,0.0,0.0,0.0,1.0,-0.172382519531,-1.03429511719,10.1322614258,1.0,0.0,0.0,0.0,1.0,0.0,0.0,0.0,1.0
1463935349787377821,524,1463935349331720915,,4.65724134445,-22.2136688232,24.2147712708,0.00144000002183,1.0,0.0,0.0,0.0,1.0,0.0,0.0,0.0,1.0,-71.0975646973,-12.5609760284,-38.1707305908,1.0,0.0,0.0,0.0,1.0,0.0,0.0,0.0,1.0,-0.148440512063,-1.34075292969,10.7212350342,1.0,0.0,0.0,0.0,1.0,0.0,0.0,0.0,1.0
1463935349788959012,525,1463935349352685461,,4.22025966644,-23.3804416656,23.7307491302,0.00188999995589,1.0,0.0,0.0,0.0,1.0,0.0,0.0,0.0,1.0,-62.5,-9.08536529541,-34.0853691101,1.0,0.0,0.0,0.0,1.0,0.0,0.0,0.0,1.0,-0.76135612793,-1.2497732666,10.553640918,1.0,0.0,0.0,0.0,1.0,0.0,0.0,0.0,1.0
1463935349789760519,526,1463935349373484018,,3.87417340279,-24.2915344238,23.3215503693,0.0018230000278,1.0,0.0,0.0,0.0,1.0,0.0,0.0,0.0,1.0,-53.2926864624,-9.26829242706,-32.0121955872,1.0,0.0,0.0,0.0,1.0,0.0,0.0,0.0,1.0,-0.646434448242,-1.04866025408,10.4866032715,1.0,0.0,0.0,0.0,1.0,0.0,0.0,0.0,1.0
1463935349791907229,527,1463935349394335439,,3.55900120735,-24.9756088257,22.9649105072,0.00150699994992,1.0,0.0,0.0,0.0,1.0,0.0,0.0,0.0,1.0,-45.6707344055,-11.7682924271,-29.8780498505,1.0,0.0,0.0,0.0,1.0,0.0,0.0,0.0,1.0,-0.780509741211,-0.627280834961,10.539275708,1.0,0.0,0.0,0.0,1.0,0.0,0.0,0.0,1.0
1463935349793229931,528,1463935349415241079,,3.2289288044,-25.4595813751,22.6954708099,0.00193599995691,1.0,0.0,0.0,0.0,1.0,0.0,0.0,0.0,1.0,-42.1951255798,-11.341463089,-25.0,1.0,0.0,0.0,0.0,1.0,0.0,0.0,0.0,1.0,-0.675164868164,-0.172382519531,10.5727945312,1.0,0.0,0.0,0.0,1.0,0.0,0.0,0.0,1.0
1463935349793685711,529,1463935349436810361,,2.96257615089,-25.8553714752,22.5064105988,0.00166399998125,1.0,0.0,0.0,0.0,1.0,0.0,0.0,0.0,1.0,-38.5975608826,-9.51219558716,-19.0243911743,1.0,0.0,0.0,0.0,1.0,0.0,0.0,0.0,1.0,-0.694318481445,0.0861912597656,10.1753570557,1.0,0.0,0.0,0.0,1.0,0.0,0.0,0.0,1.0
1463935349794291645,530,1463935349458014906,,2.82961559296,-26.133140564,22.44389534,0.00134499999695,1.0,0.0,0.0,0.0,1.0,0.0,0.0,0.0,1.0,-35.4268302917,-10.7926826477,-12.0731716156,1.0,0.0,0.0,0.0,1.0,0.0,0.0,0.0,1.0,-1.03429511719,0.474051928711,9.67736311035,1.0,0.0,0.0,0.0,1.0,0.0,0.0,0.0,1.0
1463935349794757685,531,1463935349479048306,,2.76501083374,-26.2992267609,22.5333862305,0.00135300005786,1.0,0.0,0.0,0.0,1.0,0.0,0.0,0.0,1.0,-32.5609779358,-13.658536911,-6.70731735229,1.0,0.0,0.0,0.0,1.0,0.0,0.0,0.0,1.0,-1.21146604004,0.9193734375,9.50019277202,1.0,0.0,0.0,0.0,1.0,0.0,0.0,0.0,1.0
1463935349795932003,532,1463935349500366756,,2.51164650917,-26.3450317383,22.6764183044,0.00154700002167,1.0,0.0,0.0,0.0,1.0,0.0,0.0,0.0,1.0,-28.1707324982,-17.0731716156,-9.81707286835,1.0,0.0,0.0,0.0,1.0,0.0,0.0,0.0,1.0,-0.378283862305,1.01035310059,9.15063874512,1.0,0.0,0.0,0.0,1.0,0.0,0.0,0.0,1.0
1463935349796337730,533,1463935349521149167,,2.31237626076,-26.2893199921,22.8066425323,0.00157299998682,1.0,0.0,0.0,0.0,1.0,0.0,0.0,0.0,1.0,-25.6707324982,-11.7073173523,-3.96341490746,1.0,0.0,0.0,0.0,1.0,0.0,0.0,0.0,1.0,-0.842758984375,1.16358193377,9.56723041851,1.0,0.0,0.0,0.0,1.0,0.0,0.0,0.0,1.0
1463935349796630177,534,1463935349542076734,,2.37023925781,-26.1671657562,23.0526847839,0.00133200001437,1.0,0.0,0.0,0.0,1.0,0.0,0.0,0.0,1.0,-19.0243911743,-6.34146356583,6.34146356583,1.0,0.0,0.0,0.0,1.0,0.0,0.0,0.0,1.0,-1.30244570312,0.526724328702,9.81622680664,1.0,0.0,0.0,0.0,1.0,0.0,0.0,0.0,1.0
1463935349797143300,535,1463935349563798256,,2.56707835197,-25.834854126,23.4442462921,0.00152000004891,1.0,0.0,0.0,0.0,1.0,0.0,0.0,0.0,1.0,-7.13414621353,-12.2560977936,9.51219558716,1.0,0.0,0.0,0.0,1.0,0.0,0.0,0.0,1.0,-1.5801730957,1.36948334961,9.99818613281,1.0,0.0,0.0,0.0,1.0,0.0,0.0,0.0,1.0
1463935349798136525,536,1463935349584287439,,2.65596652031,-25.2376747131,23.9151668549,0.00136100000236,1.0,0.0,0.0,0.0,1.0,0.0,0.0,0.0,1.0,-2.80487799644,-14.8170728683,13.7195129395,1.0,0.0,0.0,0.0,1.0,0.0,0.0,0.0,1.0,-1.38863696289,2.71502468262,10.1609918457,1.0,0.0,0.0,0.0,1.0,0.0,0.0,0.0,1.0
1463935349799292145,537,1463935349605316516,,2.7360355854,-24.5419521332,24.5260753632,0.00142200000118,1.0,0.0,0.0,0.0,1.0,0.0,0.0,0.0,1.0,-2.5,-15.4878053665,21.8292694092,1.0,0.0,0.0,0.0,1.0,0.0,0.0,0.0,1.0,-1.22583125,2.78685073242,10.4243540283,1.0,0.0,0.0,0.0,1.0,0.0,0.0,0.0,1.0
1463935349799597404,538,1463935349625368774,,2.89195799828,-23.8448219299,25.2557678223,0.00218799989671,1.0,0.0,0.0,0.0,1.0,0.0,0.0,0.0,1.0,1.34146344662,-12.9878053665,27.5,1.0,0.0,0.0,0.0,1.0,0.0,0.0,0.0,1.0,-1.91536132812,2.71981308594,11.4442839355,1.0,0.0,0.0,0.0,1.0,0.0,0.0,0.0,1.0
1463935349801071877,539,1463935349646229466,,3.09123015404,-22.9994659424,26.1283378601,0.00149099994451,1.0,0.0,0.0,0.0,1.0,0.0,0.0,0.0,1.0,6.34146356583,-13.1097564697,33.1097564697,1.0,0.0,0.0,0.0,1.0,0.0,0.0,0.0,1.0,-0.871489404297,3.64876333008,11.9710083008,1.0,0.0,0.0,0.0,1.0,0.0,0.0,0.0,1.0
1463935349803307024,540,1463935349667388230,,3.36279511452,-22.0788440704,27.0199966431,0.00161399994977,1.0,0.0,0.0,0.0,1.0,0.0,0.0,0.0,1.0,14.5121955872,-12.4390249252,33.5365867615,1.0,0.0,0.0,0.0,1.0,0.0,0.0,0.0,1.0,-1.82917006836,2.88261879883,12.631807959,1.0,0.0,0.0,0.0,1.0,0.0,0.0,0.0,1.0
1463935349803863532,541,1463935349688781628,,3.54678606987,-20.9524440765,27.9140357971,0.00139700004365,1.0,0.0,0.0,0.0,1.0,0.0,0.0,0.0,1.0,29.0243911743,-10.3048782349,32.317073822,1.0,0.0,0.0,0.0,1.0,0.0,0.0,0.0,1.0,-1.31202250977,3.28484467773,13.3404916504,1.0,0.0,0.0,0.0,1.0,0.0,0.0,0.0,1.0
1463935349804648476,542,1463935349710703982,,3.6857047081,-19.5374774933,28.6878356934,0.00141400005668,1.0,0.0,0.0,0.0,1.0,0.0,0.0,0.0,1.0,27.7439041138,0.12195122242,18.9634151459,1.0,0.0,0.0,0.0,1.0,0.0,0.0,0.0,1.0,-1.06302561017,2.59052619629,11.3293622559,1.0,0.0,0.0,0.0,1.0,0.0,0.0,0.0,1.0
1463935349806707478,543,1463935349731603632,,4.0016040802,-17.8250045776,29.2909603119,0.00155000004452,1.0,0.0,0.0,0.0,1.0,0.0,0.0,0.0,1.0,27.2560977936,21.2804889679,9.26829242706,1.0,0.0,0.0,0.0,1.0,0.0,0.0,0.0,1.0,-0.0814028564453,5.32470449219,15.9549598633,1.0,0.0,0.0,0.0,1.0,0.0,0.0,0.0,1.0
1463935349807180028,544,1463935349755164573,,4.6788816452,-16.0614585876,29.6732006073,0.0029509998858,1.0,0.0,0.0,0.0,1.0,0.0,0.0,0.0,1.0,22.9268302917,37.4390220642,-1.34146344662,1.0,0.0,0.0,0.0,1.0,0.0,0.0,0.0,1.0,-5.96156213379,0.483628735352,18.0618573242,1.0,0.0,0.0,0.0,1.0,0.0,0.0,0.0,1.0
1463935349808783719,545,1463935349775232664,,5.49027109146,-13.6218366623,30.2079486847,0.00141400005668,1.0,0.0,0.0,0.0,1.0,0.0,0.0,0.0,1.0,57.3780479431,20.9146347046,10.9756097794,1.0,0.0,0.0,0.0,1.0,0.0,0.0,0.0,1.0,1.84353527832,7.43160195312,19.0195391573,1.0,0.0,0.0,0.0,1.0,0.0,0.0,0.0,1.0
1463935352542784686,546,1463935349796293877,,6.0068769455,-11.1013936996,30.7095069885,0.00130899995565,1.0,0.0,0.0,0.0,1.0,0.0,0.0,0.0,1.0,79.634147644,9.02439117432,11.4024391174,1.0,0.0,0.0,0.0,1.0,0.0,0.0,0.0,1.0,1.60890351563,7.25443103027,17.1999458956,1.0,0.0,0.0,0.0,1.0,0.0,0.0,0.0,1.0
1463935352542839113,547,1463935349818154877,,6.30986356735,-8.40945053101,31.2095661163,0.00182999996468,1.0,0.0,0.0,0.0,1.0,0.0,0.0,0.0,1.0,80.7317123413,2.98780488968,14.2073173523,1.0,0.0,0.0,0.0,1.0,0.0,0.0,0.0,1.0,-1.30244570312,6.35899960937,16.2614176758,1.0,0.0,0.0,0.0,1.0,0.0,0.0,0.0,1.0
1463935352542881561,548,1463935349839348849,,6.61469554901,-5.87984991074,31.7866687775,0.00156200001948,1.0,0.0,0.0,0.0,1.0,0.0,0.0,0.0,1.0,91.4024429321,14.6341466904,19.3902435303,1.0,0.0,0.0,0.0,1.0,0.0,0.0,0.0,1.0,-6.42124885254,6.34942280273,15.5144267578,1.0,0.0,0.0,0.0,1.0,0.0,0.0,0.0,1.0
1463935352543922911,549,1463935349859929229,,7.07480239868,-3.53488755226,32.3938484192,0.00142900005449,1.0,0.0,0.0,0.0,1.0,0.0,0.0,0.0,1.0,80.6707382202,16.158536911,18.7195110321,1.0,0.0,0.0,0.0,1.0,0.0,0.0,0.0,1.0,-1.81001645508,7.69017573242,15.8783454102,1.0,0.0,0.0,0.0,1.0,0.0,0.0,0.0,1.0
1463935352545668893,550,1463935349880631433,,7.47857141495,-1.39066183567,32.9582557678,0.00139899994247,1.0,0.0,0.0,0.0,1.0,0.0,0.0,0.0,1.0,65.365852356,9.87804889679,17.5000019073,1.0,0.0,0.0,0.0,1.0,0.0,0.0,0.0,1.0,1.02950671387,6.95755002441,11.5208983887,1.0,0.0,0.0,0.0,1.0,0.0,0.0,0.0,1.0
1463935352547326698,551,1463935349902183580,,7.71812486649,0.549497187138,33.5240097046,0.00163600000087,1.0,0.0,0.0,0.0,1.0,0.0,0.0,0.0,1.0,64.2682952881,4.32926845551,13.2926826477,1.0,0.0,0.0,0.0,1.0,0.0,0.0,0.0,1.0,-1.73340200195,7.77636699219,15.1409312988,1.0,0.0,0.0,0.0,1.0,0.0,0.0,0.0,1.0
1463935352547959925,552,1463935349923960258,,7.50274753571,2.92094707489,34.1268577576,0.00151500001084,1.0,0.0,0.0,0.0,1.0,0.0,0.0,0.0,1.0,382.926849365,-161.34147644,-46.8292694092,1.0,0.0,0.0,0.0,1.0,0.0,0.0,0.0,1.0,23.8079413086,49.0715572266,18.9812319308,1.0,0.0,0.0,0.0,1.0,0.0,0.0,0.0,1.0
1463935352549162992,553,1463935349944712148,,7.0111618042,9.35298252106,32.0960731506,0.00143199996091,1.0,0.0,0.0,0.0,1.0,0.0,0.0,0.0,1.0,-152.256103516,135.121948242,-16.2804889679,1.0,0.0,0.0,0.0,1.0,0.0,0.0,0.0,1.0,14.5232272705,0.0143652099609,1.44609780273,1.0,0.0,0.0,0.0,1.0,0.0,0.0,0.0,1.0
1463935352549521220,554,1463935349965796433,,7.76912641525,12.5316448212,32.5789833069,0.00135000003502,1.0,0.0,0.0,0.0,1.0,0.0,0.0,0.0,1.0,283.231719971,41.0975646973,-112.804885864,1.0,0.0,0.0,0.0,1.0,0.0,0.0,0.0,1.0,16.5822406982,10.7068698242,-7.35977590332,1.0,0.0,0.0,0.0,1.0,0.0,0.0,0.0,1.0
1463935352550621632,555,1463935349987331653,,7.20636558533,12.3359689713,34.0731735229,0.00150300003588,1.0,0.0,0.0,0.0,1.0,0.0,0.0,0.0,1.0,80.6707382202,-272.195129395,-115.670730591,1.0,0.0,0.0,0.0,1.0,0.0,0.0,0.0,1.0,-9.72045874023,-59.4576040283,-6.91445439453,1.0,0.0,0.0,0.0,1.0,0.0,0.0,0.0,1.0
1463935352552527457,556,1463935350009767183,,5.16049623489,14.7044010162,35.9770278931,0.00208900007419,1.0,0.0,0.0,0.0,1.0,0.0,0.0,0.0,1.0,71.8902435303,-80.0609741211,118.048789978,1.0,0.0,0.0,0.0,1.0,0.0,0.0,0.0,1.0,5.17626398926,-3.35667072754,37.4117974797,1.0,0.0,0.0,0.0,1.0,0.0,0.0,0.0,1.0
1463935352552646623,557,1463935350030933446,,3.57880997658,16.336648941,39.3239402771,0.00134099996649,1.0,0.0,0.0,0.0,1.0,0.0,0.0,0.0,1.0,-173.048782349,22.5,175.304870605,1.0,0.0,0.0,0.0,1.0,0.0,0.0,0.0,1.0,-6.1530982666,10.2088758789,19.4840131104,1.0,0.0,0.0,0.0,1.0,0.0,0.0,0.0,1.0
1463935352553841514,558,1463935350051667420,,2.5406627655,13.3477220535,43.0894813538,0.00149499997497,1.0,0.0,0.0,0.0,1.0,0.0,0.0,0.0,1.0,-240.121948242,144.268295288,127.926834106,1.0,0.0,0.0,0.0,1.0,0.0,0.0,0.0,1.0,15.3276790283,-8.56645412456,59.7496966309,1.0,0.0,0.0,0.0,1.0,0.0,0.0,0.0,1.0
1463935352553909378,559,1463935350074331334,,3.13426542282,14.6087465286,46.3257865906,0.00182899995707,1.0,0.0,0.0,0.0,1.0,0.0,0.0,0.0,1.0,-18.0487823486,96.9512252808,69.2682952881,1.0,0.0,0.0,0.0,1.0,0.0,0.0,0.0,1.0,6.07169541016,21.586122168,1.19710090314,1.0,0.0,0.0,0.0,1.0,0.0,0.0,0.0,1.0
1463935352554260887,560,1463935350094622601,,5.57637023926,13.5740013123,48.0233688354,0.00130500004161,1.0,0.0,0.0,0.0,1.0,0.0,0.0,0.0,1.0,42.3780517578,154.939025879,3.47560977936,1.0,0.0,0.0,0.0,1.0,0.0,0.0,0.0,1.0,6.55532414551,-7.18739338379,25.1486942383,1.0,0.0,0.0,0.0,1.0,0.0,0.0,0.0,1.0
1463935352554932238,561,1463935350116432612,,7.63254785538,13.3088989258,48.5875205994,0.00161499995738,1.0,0.0,0.0,0.0,1.0,0.0,0.0,0.0,1.0,-203.536590576,240.365875244,-13.4756097794,1.0,0.0,0.0,0.0,1.0,0.0,0.0,0.0,1.0,-1.34075292969,1.7908628418,68.6704920166,1.0,0.0,0.0,0.0,1.0,0.0,0.0,0.0,1.0
1463935352555457236,562,1463935350137221325,,9.0294303894,14.2482156754,48.5564231873,0.00134399998933,1.0,0.0,0.0,0.0,1.0,0.0,0.0,0.0,1.0,61.5853691101,139.878051758,-38.9024391174,1.0,0.0,0.0,0.0,1.0,0.0,0.0,0.0,1.0,2.4516625,-5.78439121094,15.0786820557,1.0,0.0,0.0,0.0,1.0,0.0,0.0,0.0,1.0
1463935352556446503,563,1463935350157772071,,10.1241989136,13.1169509888,48.5811042786,0.00137499999255,1.0,0.0,0.0,0.0,1.0,0.0,0.0,0.0,1.0,-156.95123291,103.048782349,-34.1463432312,1.0,0.0,0.0,0.0,1.0,0.0,0.0,0.0,1.0,-0.986411083984,-8.49462807476,37.134067749,1.0,0.0,0.0,0.0,1.0,0.0,0.0,0.0,1.0
1463935352556957021,564,1463935350179421093,,10.2800168991,12.3549585342,48.2384147644,0.00145500001963,1.0,0.0,0.0,0.0,1.0,0.0,0.0,0.0,1.0,-82.9878005981,85.9146347046,-22.5,1.0,0.0,0.0,0.0,1.0,0.0,0.0,0.0,1.0,9.40921193989,-9.61032604839,35.4724917969,1.0,0.0,0.0,0.0,1.0,0.0,0.0,0.0,1.0
1463935352557913424,565,1463935350201142458,,10.3072490692,12.5799474716,48.0826950073,0.00132999999914,1.0,0.0,0.0,0.0,1.0,0.0,0.0,0.0,1.0,-234.695114136,28.7804889679,-9.93902492523,1.0,0.0,0.0,0.0,1.0,0.0,0.0,0.0,1.0,8.98304462891,-10.8313683105,16.4577422119,1.0,0.0,0.0,0.0,1.0,0.0,0.0,0.0,1.0
1463935352558485036,566,1463935350221931275,,10.4393205643,14.3322525024,47.7974586487,0.00159300002269,1.0,0.0,0.0,0.0,1.0,0.0,0.0,0.0,1.0,187.682937622,-59.207321167,-30.6707305908,1.0,0.0,0.0,0.0,1.0,0.0,0.0,0.0,1.0,21.3993744385,21.8016003174,-1.39821376953,1.0,0.0,0.0,0.0,1.0,0.0,0.0,0.0,1.0
1463935352559522688,567,1463935350243086758,,10.1310520172,13.2814970016,47.7162246704,0.00159200001508,1.0,0.0,0.0,0.0,1.0,0.0,0.0,0.0,1.0,-170.60975647,8.23170757294,-16.341463089,1.0,0.0,0.0,0.0,1.0,0.0,0.0,0.0,1.0,2.01591779785,-9.39005832661,14.470554834,1.0,0.0,0.0,0.0,1.0,0.0,0.0,0.0,1.0
1463935352561391013,568,1463935350263870523,,9.75234889984,13.452630043,47.3996963501,0.0014159999555,1.0,0.0,0.0,0.0,1.0,0.0,0.0,0.0,1.0,-52.7439041138,-13.5365858078,-29.8170719147,1.0,0.0,0.0,0.0,1.0,0.0,0.0,0.0,1.0,0.823605371094,-6.99585725098,0.248996972656,1.0,0.0,0.0,0.0,1.0,0.0,0.0,0.0,1.0
1463935352561452002,569,1463935350285363921,,9.30152511597,14.1569623947,46.9086608887,0.00182100001257,1.0,0.0,0.0,0.0,1.0,0.0,0.0,0.0,1.0,-157.439025879,22.3780498505,-42.0121955872,1.0,0.0,0.0,0.0,1.0,0.0,0.0,0.0,1.0,-7.08204851074,-19.1153072237,41.7309349365,1.0,0.0,0.0,0.0,1.0,0.0,0.0,0.0,1.0
1463935352561495440,570,1463935350306095395,,8.55226612091,13.6473026276,46.7728767395,0.0014969999902,1.0,0.0,0.0,0.0,1.0,0.0,0.0,0.0,1.0,-112.560974121,-7.50000047684,-27.0121955872,1.0,0.0,0.0,0.0,1.0,0.0,0.0,0.0,1.0,-4.84586416016,-6.16746347656,-5.30555087891,1.0,0.0,0.0,0.0,1.0,0.0,0.0,0.0,1.0
1463935352561544085,571,1463935350326723952,,7.83249187469,13.898434639,46.8071060181,0.00150999997277,1.0,0.0,0.0,0.0,1.0,0.0,0.0,0.0,1.0,-157.439025879,-30.9146327972,-4.2682929039,1.0,0.0,0.0,0.0,1.0,0.0,0.0,0.0,1.0,8.98783303223,16.5822406982,-3.84987626953,1.0,0.0,0.0,0.0,1.0,0.0,0.0,0.0,1.0
1463935352562336061,572,1463935350347324541,,7.45329618454,14.0608119965,47.0337409973,0.00162600004114,1.0,0.0,0.0,0.0,1.0,0.0,0.0,0.0,1.0,249.146362305,-67.865852356,-11.0365858078,1.0,0.0,0.0,0.0,1.0,0.0,0.0,0.0,1.0,11.645396875,14.0108681152,42.0086623291,1.0,0.0,0.0,0.0,1.0,0.0,0.0,0.0,1.0
1463935352562900538,573,1463935350367790704,,6.90472984314,13.4229440689,47.2207641602,0.00135200005025,1.0,0.0,0.0,0.0,1.0,0.0,0.0,0.0,1.0,-101.524391174,-24.3292694092,13.2926826477,1.0,0.0,0.0,0.0,1.0,0.0,0.0,0.0,1.0,1.23061965332,-0.138863696289,10.5057568848,1.0,0.0,0.0,0.0,1.0,0.0,0.0,0.0,1.0
1463935352563509910,574,1463935350389031707,,6.58064222336,13.0290565491,47.153011322,0.00134499999695,1.0,0.0,0.0,0.0,1.0,0.0,0.0,0.0,1.0,64.1463394165,-14.2682924271,1.46341466904,1.0,0.0,0.0,0.0,1.0,0.0,0.0,0.0,1.0,-1.92972653809,18.5694269071,-20.3650793213,1.0,0.0,0.0,0.0,1.0,0.0,0.0,0.0,1.0
1463935352564418083,575,1463935350410460157,,6.17773199081,12.4382324219,46.7550888062,0.0012529999949,1.0,0.0,0.0,0.0,1.0,0.0,0.0,0.0,1.0,209.268295288,-68.9634170532,-34.3292694092,1.0,0.0,0.0,0.0,1.0,0.0,0.0,0.0,1.0,-16.4577422119,-5.42526096191,28.8980140381,1.0,0.0,0.0,0.0,1.0,0.0,0.0,0.0,1.0
1463935352565582037,576,1463935350430036115,,4.65687608719,13.2204275131,46.1587486267,0.00132000003941,1.0,0.0,0.0,0.0,1.0,0.0,0.0,0.0,1.0,-131.097564697,-51.9512214661,-16.9512195587,1.0,0.0,0.0,0.0,1.0,0.0,0.0,0.0,1.0,1.94409174805,-5.24809003906,17.4728837158,1.0,0.0,0.0,0.0,1.0,0.0,0.0,0.0,1.0
1463935352566195888,577,1463935350451501961,,3.57921338081,12.5760650635,46.0508613586,0.00130500004161,1.0,0.0,0.0,0.0,1.0,0.0,0.0,0.0,1.0,-28.2317066193,-24.3902435303,6.0365858078,1.0,0.0,0.0,0.0,1.0,0.0,0.0,0.0,1.0,-5.93762011719,-2.98317526855,11.4730143555,1.0,0.0,0.0,0.0,1.0,0.0,0.0,0.0,1.0
1463935352567330467,578,1463935350472228695,,2.87613081932,12.0002374649,46.2555847168,0.00193899997976,1.0,0.0,0.0,0.0,1.0,0.0,0.0,0.0,1.0,-92.6829299927,2.31707310677,3.96341490746,1.0,0.0,0.0,0.0,1.0,0.0,0.0,0.0,1.0,0.814028564453,-22.2277682129,32.8867540039,1.0,0.0,0.0,0.0,1.0,0.0,0.0,0.0,1.0
1463935352568110515,579,1463935350493226001,,2.31916022301,12.0228404999,46.7819862366,0.00208400003612,1.0,0.0,0.0,0.0,1.0,0.0,0.0,0.0,1.0,-198.719528198,-3.41463422775,6.46341466904,1.0,0.0,0.0,0.0,1.0,0.0,0.0,0.0,1.0,5.13316835937,-17.9325692655,11.3868230957,1.0,0.0,0.0,0.0,1.0,0.0,0.0,0.0,1.0
1463935352572015238,580,1463935350514734867,,2.51177787781,12.3326883316,47.6091499329,0.00153100001626,1.0,0.0,0.0,0.0,1.0,0.0,0.0,0.0,1.0,20.8536586761,58.2926826477,20.7317085266,1.0,0.0,0.0,0.0,1.0,0.0,0.0,0.0,1.0,3.64397492676,26.0584908691,-8.51378168804,1.0,0.0,0.0,0.0,1.0,0.0,0.0,0.0,1.0
1463935352572115811,581,1463935350535421446,,2.95563387871,12.0015001297,48.5435066223,0.00136500003282,1.0,0.0,0.0,0.0,1.0,0.0,0.0,0.0,1.0,-19.5121955872,78.9024429321,22.3170719147,1.0,0.0,0.0,0.0,1.0,0.0,0.0,0.0,1.0,-0.402225878906,-10.1992990723,31.124621582,1.0,0.0,0.0,0.0,1.0,0.0,0.0,0.0,1.0
1463935352572158936,582,1463935350556238752,,3.62579727173,12.4304485321,49.4742851257,0.00136899994686,1.0,0.0,0.0,0.0,1.0,0.0,0.0,0.0,1.0,-216.341461182,57.6829299927,11.5243911743,1.0,0.0,0.0,0.0,1.0,0.0,0.0,0.0,1.0,-5.54975944824,-5.69341154785,5.14274516602,1.0,0.0,0.0,0.0,1.0,0.0,0.0,0.0,1.0
1463935352572796850,583,1463935350577947566,,4.85454130173,12.0394496918,50.383605957,0.00132299994584,1.0,0.0,0.0,0.0,1.0,0.0,0.0,0.0,1.0,-110.67073822,72.3780517578,-0.365853667259,1.0,0.0,0.0,0.0,1.0,0.0,0.0,0.0,1.0,-4.55855996094,-6.57447775879,17.8224371582,1.0,0.0,0.0,0.0,1.0,0.0,0.0,0.0,1.0
1463935352573759762,584,1463935350599465911,,5.40305757523,12.0143194199,50.9026603699,0.00132799998391,1.0,0.0,0.0,0.0,1.0,0.0,0.0,0.0,1.0,-148.597564697,47.4390258789,-21.7682933807,1.0,0.0,0.0,0.0,1.0,0.0,0.0,0.0,1.0,-2.63362182617,-3.38061274414,20.0729867187,1.0,0.0,0.0,0.0,1.0,0.0,0.0,0.0,1.0
1463935352574650488,585,1463935350621233318,,5.68849086761,10.9945812225,50.6676750183,0.0014009999577,1.0,0.0,0.0,0.0,1.0,0.0,0.0,0.0,1.0,-161.34147644,-0.487804889679,-22.9268302917,1.0,0.0,0.0,0.0,1.0,0.0,0.0,0.0,1.0,1.60890351563,-17.0323506104,-1.44130939941,1.0,0.0,0.0,0.0,1.0,0.0,0.0,0.0,1.0
1463935352575472151,586,1463935350642288749,,5.55572795868,11.635269165,50.0567855835,0.00164999999106,1.0,0.0,0.0,0.0,1.0,0.0,0.0,0.0,1.0,-83.0487823486,-38.4756126404,-32.1951217651,1.0,0.0,0.0,0.0,1.0,0.0,0.0,0.0,1.0,-2.62883342285,4.58250197754,2.20745393066,1.0,0.0,0.0,0.0,1.0,0.0,0.0,0.0,1.0
1463935352576535011,587,1463935350663212045,,5.35981225967,12.2810716629,49.8969955444,0.00148400000762,1.0,0.0,0.0,0.0,1.0,0.0,0.0,0.0,1.0,307.621948242,-36.0975646973,-32.8048782349,1.0,0.0,0.0,0.0,1.0,0.0,0.0,0.0,1.0,-1.60890351563,-1.36948334961,-1.62326872559,1.0,0.0,0.0,0.0,1.0,0.0,0.0,0.0,1.0
1463935352577339903,588,1463935350684412111,,4.27248334885,9.75048160553,49.5518455505,0.00143499998376,1.0,0.0,0.0,0.0,1.0,0.0,0.0,0.0,1.0,-293.292694092,94.6951293945,19.2682914734,1.0,0.0,0.0,0.0,1.0,0.0,0.0,0.0,1.0,-3.22738383789,-30.9809694824,35.4581265869,1.0,0.0,0.0,0.0,1.0,0.0,0.0,0.0,1.0
1463935352578025421,589,1463935350705835561,,3.51087260246,12.0735683441,49.8294487,0.00139200000558,1.0,0.0,0.0,0.0,1.0,0.0,0.0,0.0,1.0,110.67073822,0.609756112099,11.9512195587,1.0,0.0,0.0,0.0,1.0,0.0,0.0,0.0,1.0,7.19697019043,-3.0166940918,18.7178685791,1.0,0.0,0.0,0.0,1.0,0.0,0.0,0.0,1.0
1463935352578591356,590,1463935350726804846,,3.52266454697,11.0044927597,50.4990882874,0.00148800003808,1.0,0.0,0.0,0.0,1.0,0.0,0.0,0.0,1.0,-99.3292694092,25.5487804413,16.7682933807,1.0,0.0,0.0,0.0,1.0,0.0,0.0,0.0,1.0,-6.65588061523,-31.751902417,-12.5025210693,1.0,0.0,0.0,0.0,1.0,0.0,0.0,0.0,1.0
1463935352581195043,591,1463935350748252984,,2.33147835732,11.5781822205,50.448097229,0.001615999965,1.0,0.0,0.0,0.0,1.0,0.0,0.0,0.0,1.0,-277.926818848,-55.4268302917,-7.19512224197,1.0,0.0,0.0,0.0,1.0,0.0,0.0,0.0,1.0,15.2271225586,1.79565124512,2.14041643031,1.0,0.0,0.0,0.0,1.0,0.0,0.0,0.0,1.0
1463935352581245563,592,1463935350769495080,,2.14929127693,10.8916063309,50.7953033447,0.00139700004365,1.0,0.0,0.0,0.0,1.0,0.0,0.0,0.0,1.0,14.3902444839,7.01219511032,10.4268293381,1.0,0.0,0.0,0.0,1.0,0.0,0.0,0.0,1.0,1.47961662598,5.32470449219,5.71256516113,1.0,0.0,0.0,0.0,1.0,0.0,0.0,0.0,1.0
1463935352581342751,593,1463935350790332439,,1.9331561327,10.443157196,51.2787666321,0.00139999995008,1.0,0.0,0.0,0.0,1.0,0.0,0.0,0.0,1.0,-178.597564697,13.4146347046,0.487804889679,1.0,0.0,0.0,0.0,1.0,0.0,0.0,0.0,1.0,5.57370146484,-5.76044919434,53.8551721436,1.0,0.0,0.0,0.0,1.0,0.0,0.0,0.0,1.0
1463935352581961185,594,1463935350810500686,,1.80936336517,10.677318573,51.6836204529,0.00150599994231,1.0,0.0,0.0,0.0,1.0,0.0,0.0,0.0,1.0,-54.6951217651,6.46341466904,-7.07317113876,1.0,0.0,0.0,0.0,1.0,0.0,0.0,0.0,1.0,5.38695373535,4.60165559082,16.548721875,1.0,0.0,0.0,0.0,1.0,0.0,0.0,0.0,1.0
1463935352582855296,595,1463935350831887209,,1.59592485428,9.87701225281,52.0122871399,0.00144899997395,1.0,0.0,0.0,0.0,1.0,0.0,0.0,0.0,1.0,-198.10975647,10.1829271317,-1.09756100178,1.0,0.0,0.0,0.0,1.0,0.0,0.0,0.0,1.0,-8.3270327895,-21.1024934326,33.9545679443,1.0,0.0,0.0,0.0,1.0,0.0,0.0,0.0,1.0
1463935352583972114,596,1463935350853302639,,0.767187654972,11.1213989258,51.8830337524,0.0018759999657,1.0,0.0,0.0,0.0,1.0,0.0,0.0,0.0,1.0,-39.3292694092,-58.6585388184,-17.6829280853,1.0,0.0,0.0,0.0,1.0,0.0,0.0,0.0,1.0,3.82114584961,19.0578463839,13.7427175293,1.0,0.0,0.0,0.0,1.0,0.0,0.0,0.0,1.0
1463935352584406383,597,1463935350874893953,,-0.111190214753,8.98421287537,51.6954803467,0.00144100002944,1.0,0.0,0.0,0.0,1.0,0.0,0.0,0.0,1.0,-137.012191772,59.207321167,11.341463089,1.0,0.0,0.0,0.0,1.0,0.0,0.0,0.0,1.0,8.89206496582,-5.73171877441,42.5689055176,1.0,0.0,0.0,0.0,1.0,0.0,0.0,0.0,1.0
1463935352585564451,598,1463935350895838863,,-1.12737011909,10.7193613052,51.6200485229,0.0016230000183,1.0,0.0,0.0,0.0,1.0,0.0,0.0,0.0,1.0,-85.3048782349,-20.8536586761,-6.28048801422,1.0,0.0,0.0,0.0,1.0,0.0,0.0,0.0,1.0,-4.16591059641,10.6015249512,20.9827833496,1.0,0.0,0.0,0.0,1.0,0.0,0.0,0.0,1.0
1463935352585963356,599,1463935350916424869,,-1.81067037582,10.2031040192,51.8288154602,0.00136500003282,1.0,0.0,0.0,0.0,1.0,0.0,0.0,0.0,1.0,76.0365829468,1.03658533096,-10.3048782349,1.0,0.0,0.0,0.0,1.0,0.0,0.0,0.0,1.0,-4.39096584473,-15.0978356689,-23.1184112305,1.0,0.0,0.0,0.0,1.0,0.0,0.0,0.0,1.0
1463935352587130174,600,1463935350937662799,,-3.12392115593,9.99195098877,52.1864242554,0.00132999999914,1.0,0.0,0.0,0.0,1.0,0.0,0.0,0.0,1.0,-228.902435303,72.6219558716,24.1463432312,1.0,0.0,0.0,0.0,1.0,0.0,0.0,0.0,1.0,18.9189815186,4.89374819336,118.259196802,1.0,0.0,0.0,0.0,1.0,0.0,0.0,0.0,1.0
1463935352587886264,601,1463935350959141144,,-4.12611532211,10.9828147888,52.9606056213,0.00229099998251,1.0,0.0,0.0,0.0,1.0,0.0,0.0,0.0,1.0,-49.3292694092,-0.12195122242,35.8536605835,1.0,0.0,0.0,0.0,1.0,0.0,0.0,0.0,1.0,8.70052883301,1.54186586914,12.0763531738,1.0,0.0,0.0,0.0,1.0,0.0,0.0,0.0,1.0
1463935352587942774,602,1463935350980007878,,-4.30894756317,11.308259964,53.4158782959,0.00125099997967,1.0,0.0,0.0,0.0,1.0,0.0,0.0,0.0,1.0,25.7317085266,-2.01219511032,15.9146347046,1.0,0.0,0.0,0.0,1.0,0.0,0.0,0.0,1.0,0.521935925381,4.17069899973,16.9748897705,1.0,0.0,0.0,0.0,1.0,0.0,0.0,0.0,1.0
1463935352588609074,603,1463935351002688198,,-4.22258710861,8.94940948486,54.2643089294,0.00292899995111,1.0,0.0,0.0,0.0,1.0,0.0,0.0,0.0,1.0,88.7195129395,15.7317075729,27.6219520569,1.0,0.0,0.0,0.0,1.0,0.0,0.0,0.0,1.0,-9.32302068013,-32.5802961914,15.4186586914,1.0,0.0,0.0,0.0,1.0,0.0,0.0,0.0,1.0
1463935352588663709,604,1463935351024018836,,-4.2100276947,10.9967594147,55.6046295166,0.00112899998203,1.0,0.0,0.0,0.0,1.0,0.0,0.0,0.0,1.0,-139.39024353,192.134155273,78.5975570679,1.0,0.0,0.0,0.0,1.0,0.0,0.0,0.0,1.0,13.962984082,3.6296097168,144.595415063,1.0,0.0,0.0,0.0,1.0,0.0,0.0,0.0,1.0
1463935352590383493,605,1463935351047528006,,-3.83835792542,13.77339077,56.9610671997,0.00115000002552,1.0,0.0,0.0,0.0,1.0,0.0,0.0,0.0,1.0,-198.658538818,52.3780517578,40.2439041138,1.0,0.0,0.0,0.0,1.0,0.0,0.0,0.0,1.0,-3.38061274414,7.69496413574,-12.124237207,1.0,0.0,0.0,0.0,1.0,0.0,0.0,0.0,1.0
1463935352590799637,606,1463935351067911513,,-2.276679039,12.7869958878,58.5975036621,0.00243799993768,1.0,0.0,0.0,0.0,1.0,0.0,0.0,0.0,1.0,88.1097640991,52.5609779358,37.0731697083,1.0,0.0,0.0,0.0,1.0,0.0,0.0,0.0,1.0,0.497993945312,12.5312514893,-5.97592734375,1.0,0.0,0.0,0.0,1.0,0.0,0.0,0.0,1.0
1463935352591650102,607,1463935351088783715,,-1.04915130138,12.1008176804,59.5420608521,0.00123699998949,1.0,0.0,0.0,0.0,1.0,0.0,0.0,0.0,1.0,78.5975570679,26.7682933807,-6.58536624908,1.0,0.0,0.0,0.0,1.0,0.0,0.0,0.0,1.0,-6.91445439453,5.38216533203,1.52271225586,1.0,0.0,0.0,0.0,1.0,0.0,0.0,0.0,1.0
1463935352592393380,608,1463935351109792896,,-0.637657403946,12.3397693634,59.7221755981,0.00258699990809,1.0,0.0,0.0,0.0,1.0,0.0,0.0,0.0,1.0,18.7195110321,1.70731711388,5.60975599289,1.0,0.0,0.0,0.0,1.0,0.0,0.0,0.0,1.0,2.92571442871,18.4497179932,-10.8744639404,1.0,0.0,0.0,0.0,1.0,0.0,0.0,0.0,1.0
1463935352593429834,609,1463935351131621136,,-0.0694165080786,9.68096351624,59.8695526123,0.00138699996751,1.0,0.0,0.0,0.0,1.0,0.0,0.0,0.0,1.0,74.6951217651,-0.914634168148,0.975609779358,1.0,0.0,0.0,0.0,1.0,0.0,0.0,0.0,1.0,-2.86825358887,-18.4161991699,17.2765603487,1.0,0.0,0.0,0.0,1.0,0.0,0.0,0.0,1.0
1463935352594072436,610,1463935351152022247,,-0.189474910498,11.4526453018,59.826210022,0.00291700009257,1.0,0.0,0.0,0.0,1.0,0.0,0.0,0.0,1.0,-112.926826477,-14.4512205124,-2.80487799644,1.0,0.0,0.0,0.0,1.0,0.0,0.0,0.0,1.0,-6.03817658691,-0.426167895508,18.7274453857,1.0,0.0,0.0,0.0,1.0,0.0,0.0,0.0,1.0
1463935352595314826,611,1463935351172864345,,-0.891572475433,11.5149049759,59.6880683899,0.00217300001532,1.0,0.0,0.0,0.0,1.0,0.0,0.0,0.0,1.0,-67.6829299927,-36.3414611816,-2.80487799644,1.0,0.0,0.0,0.0,1.0,0.0,0.0,0.0,1.0,-3.84508786621,2.33674067418,7.97747993164,1.0,0.0,0.0,0.0,1.0,0.0,0.0,0.0,1.0
1463935352595376128,612,1463935351196593463,,-1.64799332619,11.109254837,59.7302627563,0.00377999991179,1.0,0.0,0.0,0.0,1.0,0.0,0.0,0.0,1.0,-76.7682952881,-2.62195134163,-5.24390268326,1.0,0.0,0.0,0.0,1.0,0.0,0.0,0.0,1.0,1.2976572998,0.948103857422,48.6406009277,1.0,0.0,0.0,0.0,1.0,0.0,0.0,0.0,1.0
