%time,field.header.seq,field.header.stamp,field.header.frame_id,field.orientation.x,field.orientation.y,field.orientation.z,field.orientation.w,field.orientation_covariance0,field.orientation_covariance1,field.orientation_covariance2,field.orientation_covariance3,field.orientation_covariance4,field.orientation_covariance5,field.orientation_covariance6,field.orientation_covariance7,field.orientation_covariance8,field.angular_velocity.x,field.angular_velocity.y,field.angular_velocity.z,field.angular_velocity_covariance0,field.angular_velocity_covariance1,field.angular_velocity_covariance2,field.angular_velocity_covariance3,field.angular_velocity_covariance4,field.angular_velocity_covariance5,field.angular_velocity_covariance6,field.angular_velocity_covariance7,field.angular_velocity_covariance8,field.linear_acceleration.x,field.linear_acceleration.y,field.linear_acceleration.z,field.linear_acceleration_covariance0,field.linear_acceleration_covariance1,field.linear_acceleration_covariance2,field.linear_acceleration_covariance3,field.linear_acceleration_covariance4,field.linear_acceleration_covariance5,field.linear_acceleration_covariance6,field.linear_acceleration_covariance7,field.linear_acceleration_covariance8
1463994874703754775,226,1463994874416218426,,1.89161789417,-31.2794628143,-108.75944519,0.00142099999357,1.0,0.0,0.0,0.0,1.0,0.0,0.0,0.0,1.0,-0.304878056049,3.10975623131,0.914634168148,1.0,0.0,0.0,0.0,1.0,0.0,0.0,0.0,1.0,-0.138863696289,-1.02950671387,10.1035310059,1.0,0.0,0.0,0.0,1.0,0.0,0.0,0.0,1.0
1463994874707203516,227,1463994874436782488,,2.05501961708,-30.7699241638,-108.779136658,0.0016680000117,1.0,0.0,0.0,0.0,1.0,0.0,0.0,0.0,1.0,1.64634156227,4.02439022064,1.52439022064,1.0,0.0,0.0,0.0,1.0,0.0,0.0,0.0,1.0,-0.995987890625,-0.799663354492,9.86411083984,1.0,0.0,0.0,0.0,1.0,0.0,0.0,0.0,1.0
1463994874707264662,228,1463994874458417537,,2.09460926056,-30.2112884521,-108.784912109,0.00132100004703,1.0,0.0,0.0,0.0,1.0,0.0,0.0,0.0,1.0,-0.0609756112099,-0.426829278469,-1.64634156227,1.0,0.0,0.0,0.0,1.0,0.0,0.0,0.0,1.0,-0.0239420166016,-0.588973571866,10.1609918457,1.0,0.0,0.0,0.0,1.0,0.0,0.0,0.0,1.0
1463994874707314974,229,1463994874478951391,,2.09956717491,-29.7212924957,-108.817848206,0.00131299998611,1.0,0.0,0.0,0.0,1.0,0.0,0.0,0.0,1.0,0.304878056049,3.47560977936,0.609756112099,1.0,0.0,0.0,0.0,1.0,0.0,0.0,0.0,1.0,0.15322890625,-0.995987890625,10.1897222656,1.0,0.0,0.0,0.0,1.0,0.0,0.0,0.0,1.0
1463994874707401172,230,1463994874499692327,,2.21729636192,-29.2511520386,-108.822128296,0.00146900000982,1.0,0.0,0.0,0.0,1.0,0.0,0.0,0.0,1.0,-2.19512200356,2.98780488968,2.13414645195,1.0,0.0,0.0,0.0,1.0,0.0,0.0,0.0,1.0,-0.378283862305,-0.684741674805,9.56244201519,1.0,0.0,0.0,0.0,1.0,0.0,0.0,0.0,1.0
1463994874707439661,231,1463994874521091439,,2.26385402679,-28.7687244415,-108.844970703,0.00142999994569,1.0,0.0,0.0,0.0,1.0,0.0,0.0,0.0,1.0,-2.31707310677,2.74390244484,-0.426829278469,1.0,0.0,0.0,0.0,1.0,0.0,0.0,0.0,1.0,0.181959326172,-0.612915625,9.97903251953,1.0,0.0,0.0,0.0,1.0,0.0,0.0,0.0,1.0
1463994874718459893,232,1463994874541671439,,2.46128463745,-28.3448429108,-108.858428955,0.00150599994231,1.0,0.0,0.0,0.0,1.0,0.0,0.0,0.0,1.0,4.14634132385,9.20731735229,8.35365867615,1.0,0.0,0.0,0.0,1.0,0.0,0.0,0.0,1.0,-1.13485158691,-1.34075292969,10.0795889893,1.0,0.0,0.0,0.0,1.0,0.0,0.0,0.0,1.0
1463994874719172652,233,1463994874562601906,,2.61894655228,-27.8392829895,-108.808502197,0.00161200005095,1.0,0.0,0.0,0.0,1.0,0.0,0.0,0.0,1.0,-0.975609779358,5.42682933807,3.53658556938,1.0,0.0,0.0,0.0,1.0,0.0,0.0,0.0,1.0,-0.407014282227,-0.828393774414,10.2902787354,1.0,0.0,0.0,0.0,1.0,0.0,0.0,0.0,1.0
1463994874721163897,234,1463994874584603360,,2.73189496994,-27.3311710358,-108.803527832,0.0016309999628,1.0,0.0,0.0,0.0,1.0,0.0,0.0,0.0,1.0,-0.304878056049,-0.304878056049,0.548780500889,1.0,0.0,0.0,0.0,1.0,0.0,0.0,0.0,1.0,0.0,-0.684741674805,9.84495722656,1.0,0.0,0.0,0.0,1.0,0.0,0.0,0.0,1.0
1463994874721229261,235,1463994874606071274,,2.71546339989,-26.8554592133,-108.8253479,0.00510499998927,1.0,0.0,0.0,0.0,1.0,0.0,0.0,0.0,1.0,0.731707334518,1.76829278469,-1.09756100178,1.0,0.0,0.0,0.0,1.0,0.0,0.0,0.0,1.0,-0.205901342773,-0.622492431641,10.0508585693,1.0,0.0,0.0,0.0,1.0,0.0,0.0,0.0,1.0
1463994874721324886,236,1463994874628151895,,2.78304386139,-26.4208698273,-108.839569092,0.00250900001265,1.0,0.0,0.0,0.0,1.0,0.0,0.0,0.0,1.0,-1.70731711388,6.0365858078,1.8902438879,1.0,0.0,0.0,0.0,1.0,0.0,0.0,0.0,1.0,-0.0335188255255,-0.742202514648,10.3381627686,1.0,0.0,0.0,0.0,1.0,0.0,0.0,0.0,1.0
1463994874721373323,237,1463994874648968561,,2.95040106773,-26.0065383911,-108.838783264,0.002208000049,1.0,0.0,0.0,0.0,1.0,0.0,0.0,0.0,1.0,-3.41463422775,6.70731735229,2.98780488968,1.0,0.0,0.0,0.0,1.0,0.0,0.0,0.0,1.0,-0.225054956055,-0.857124194336,9.84016882324,1.0,0.0,0.0,0.0,1.0,0.0,0.0,0.0,1.0
1463994874721425146,238,1463994874669489706,,3.13610434532,-25.6489677429,-108.863670349,0.00137199996971,1.0,0.0,0.0,0.0,1.0,0.0,0.0,0.0,1.0,-0.975609779358,7.13414621353,1.8292683363,1.0,0.0,0.0,0.0,1.0,0.0,0.0,0.0,1.0,-0.622492431641,-0.962469067383,10.165780249,1.0,0.0,0.0,0.0,1.0,0.0,0.0,0.0,1.0
1463994874721514417,239,1463994874691196421,,3.3544178009,-25.22838974,-108.851425171,0.001304000034,1.0,0.0,0.0,0.0,1.0,0.0,0.0,0.0,1.0,-1.52439022064,6.64634132385,5.12195110321,1.0,0.0,0.0,0.0,1.0,0.0,0.0,0.0,1.0,-0.536301208408,-0.483628735352,10.3237975586,1.0,0.0,0.0,0.0,1.0,0.0,0.0,0.0,1.0
1463994874723173840,240,1463994874717050105,,3.52694869041,-24.8505058289,-108.767753601,0.0119930002838,1.0,0.0,0.0,0.0,1.0,0.0,0.0,0.0,1.0,-10.548781395,4.93902444839,5.67073154449,1.0,0.0,0.0,0.0,1.0,0.0,0.0,0.0,1.0,-0.0478840332031,-0.316034619141,10.165780249,1.0,0.0,0.0,0.0,1.0,0.0,0.0,0.0,1.0
1463994874743574152,241,1463994874736369327,,3.72497415543,-24.6725597382,-108.731781006,0.00137600000016,1.0,0.0,0.0,0.0,1.0,0.0,0.0,0.0,1.0,-3.41463422775,7.56097555161,5.85365867615,1.0,0.0,0.0,0.0,1.0,0.0,0.0,0.0,1.0,-0.794874951172,-2.20266552734,9.80665,1.0,0.0,0.0,0.0,1.0,0.0,0.0,0.0,1.0
1463994874764488265,242,1463994874756855681,,3.88922357559,-24.4499702454,-108.66544342,0.00143199996091,1.0,0.0,0.0,0.0,1.0,0.0,0.0,0.0,1.0,-5.67073154449,5.60975599289,5.0,1.0,0.0,0.0,0.0,1.0,0.0,0.0,0.0,1.0,-0.110133276367,-1.92972653809,10.060435376,1.0,0.0,0.0,0.0,1.0,0.0,0.0,0.0,1.0
1463994874780990463,243,1463994874777536513,,4.11214780807,-24.2740345001,-108.604888916,0.00130500004161,1.0,0.0,0.0,0.0,1.0,0.0,0.0,0.0,1.0,-9.5731716156,8.84146404266,6.46341466904,1.0,0.0,0.0,0.0,1.0,0.0,0.0,0.0,1.0,-0.818816967773,-1.93930334473,10.4099888184,1.0,0.0,0.0,0.0,1.0,0.0,0.0,0.0,1.0
1463994874807103834,244,1463994874798269481,,4.36679983139,-24.1743850708,-108.511268616,0.00147699995432,1.0,0.0,0.0,0.0,1.0,0.0,0.0,0.0,1.0,-14.0243902206,6.40243911743,8.47560977936,1.0,0.0,0.0,0.0,1.0,0.0,0.0,0.0,1.0,-0.876277807617,-1.15879360352,10.4818148682,1.0,0.0,0.0,0.0,1.0,0.0,0.0,0.0,1.0
1463994874820899163,245,1463994874819409427,,4.54376935959,-24.2057037354,-108.36075592,0.00134099996649,1.0,0.0,0.0,0.0,1.0,0.0,0.0,0.0,1.0,-18.5365848541,4.14634132385,10.1219511032,1.0,0.0,0.0,0.0,1.0,0.0,0.0,0.0,1.0,1.0534486574,-2.25054956055,11.9518546875,1.0,0.0,0.0,0.0,1.0,0.0,0.0,0.0,1.0
1463994874853778923,246,1463994874840355467,,4.84601306915,-24.1709251404,-108.123939514,0.00130500004161,1.0,0.0,0.0,0.0,1.0,0.0,0.0,0.0,1.0,-6.46341466904,0.243902444839,14.5121955872,1.0,0.0,0.0,0.0,1.0,0.0,0.0,0.0,1.0,-1.37906015625,-1.96324536133,10.9893856201,1.0,0.0,0.0,0.0,1.0,0.0,0.0,0.0,1.0
1463994874885162072,247,1463994874862023381,,4.96211671829,-23.7685909271,-107.666229248,0.00248700007796,1.0,0.0,0.0,0.0,1.0,0.0,0.0,0.0,1.0,4.87804889679,-4.63414621353,26.4024391174,1.0,0.0,0.0,0.0,1.0,0.0,0.0,0.0,1.0,0.45489831543,-1.28808049316,11.5927244385,1.0,0.0,0.0,0.0,1.0,0.0,0.0,0.0,1.0
1463994874891082161,248,1463994874882168798,,5.00194835663,-23.152961731,-107.110137939,0.00153500004672,1.0,0.0,0.0,0.0,1.0,0.0,0.0,0.0,1.0,16.5243911743,0.914634168148,27.2560977936,1.0,0.0,0.0,0.0,1.0,0.0,0.0,0.0,1.0,1.67115275879,-1.36469494629,10.9558667969,1.0,0.0,0.0,0.0,1.0,0.0,0.0,0.0,1.0
1463994874911115495,249,1463994874903374681,,5.12316417694,-22.3501148224,-106.618736267,0.00124799995683,1.0,0.0,0.0,0.0,1.0,0.0,0.0,0.0,1.0,22.1341457367,15.6097564697,27.2560977936,1.0,0.0,0.0,0.0,1.0,0.0,0.0,0.0,1.0,2.54264216309,-1.02950671387,10.4578728516,1.0,0.0,0.0,0.0,1.0,0.0,0.0,0.0,1.0
1463994874935085486,250,1463994874925180511,,5.56469964981,-21.5592041016,-106.259399414,0.00155100005213,1.0,0.0,0.0,0.0,1.0,0.0,0.0,0.0,1.0,15.6097564697,29.2682933807,25.975610733,1.0,0.0,0.0,0.0,1.0,0.0,0.0,0.0,1.0,0.598550451572,-0.627280834961,8.68616362305,1.0,0.0,0.0,0.0,1.0,0.0,0.0,0.0,1.0
1463994874961158492,251,1463994874946546811,,6.36775970459,-20.859796524,-106.024864197,0.00127799995244,1.0,0.0,0.0,0.0,1.0,0.0,0.0,0.0,1.0,7.19512224197,37.682926178,22.6219520569,1.0,0.0,0.0,0.0,1.0,0.0,0.0,0.0,1.0,-1.15879360352,0.569819995117,8.07803640137,1.0,0.0,0.0,0.0,1.0,0.0,0.0,0.0,1.0
1463994874974094605,252,1463994874967647278,,7.16492938995,-20.5114841461,-105.847892761,0.0022539999336,1.0,0.0,0.0,0.0,1.0,0.0,0.0,0.0,1.0,-17.2560977936,15.9146347046,11.2195119858,1.0,0.0,0.0,0.0,1.0,0.0,0.0,0.0,1.0,-0.948103857422,0.253785375977,9.22246479492,1.0,0.0,0.0,0.0,1.0,0.0,0.0,0.0,1.0
1463994875009169203,253,1463994874988730349,,7.55289077759,-20.6113510132,-105.719482422,0.00241499999538,1.0,0.0,0.0,0.0,1.0,0.0,0.0,0.0,1.0,-27.0121955872,5.97560977936,5.42682933807,1.0,0.0,0.0,0.0,1.0,0.0,0.0,0.0,1.0,-1.5083470459,-0.363918652344,9.84016882324,1.0,0.0,0.0,0.0,1.0,0.0,0.0,0.0,1.0
1463994875025126193,254,1463994875010871803,,7.64710569382,-20.8070774078,-105.725234985,0.00175099994522,1.0,0.0,0.0,0.0,1.0,0.0,0.0,0.0,1.0,-28.5975608826,-2.37804889679,-6.52439069748,1.0,0.0,0.0,0.0,1.0,0.0,0.0,0.0,1.0,-1.23061965332,-0.244208569336,11.1426145264,1.0,0.0,0.0,0.0,1.0,0.0,0.0,0.0,1.0
1463994875034624190,255,1463994875031972686,,7.4702911377,-21.0884094238,-105.880271912,0.00123699998949,1.0,0.0,0.0,0.0,1.0,0.0,0.0,0.0,1.0,-34.5121955872,0.12195122242,-13.2926826477,1.0,0.0,0.0,0.0,1.0,0.0,0.0,0.0,1.0,-0.114921679688,0.215478149414,11.2527478027,1.0,0.0,0.0,0.0,1.0,0.0,0.0,0.0,1.0
1463994875095035910,256,1463994875052994351,,7.28360843658,-21.5493049622,-106.22795105,0.00118699995801,1.0,0.0,0.0,0.0,1.0,0.0,0.0,0.0,1.0,-27.9878063202,6.0365858078,-22.3780498505,1.0,0.0,0.0,0.0,1.0,0.0,0.0,0.0,1.0,1.36469494629,-3.50511123047,9.18894597168,1.0,0.0,0.0,0.0,1.0,0.0,0.0,0.0,1.0
1463994875095126483,257,1463994875075094763,,7.09723138809,-21.9157905579,-106.689712524,0.00157600000966,1.0,0.0,0.0,0.0,1.0,0.0,0.0,0.0,1.0,-31.0365867615,9.20731735229,-22.682926178,1.0,0.0,0.0,0.0,1.0,0.0,0.0,0.0,1.0,-0.220266552734,0.0478840332031,10.2136642822,1.0,0.0,0.0,0.0,1.0,0.0,0.0,0.0,1.0
1463994875198002366,258,1463994875096542469,,7.14302110672,-22.3403911591,-107.158119202,0.00154700002167,1.0,0.0,0.0,0.0,1.0,0.0,0.0,0.0,1.0,-32.5609779358,15.4878053665,-21.0975627899,1.0,0.0,0.0,0.0,1.0,0.0,0.0,0.0,1.0,-0.708683691406,-1.10612116699,9.42357714985,1.0,0.0,0.0,0.0,1.0,0.0,0.0,0.0,1.0
1463994875199184707,259,1463994875116754553,,7.34724283218,-22.7331867218,-107.622253418,0.00149199995212,1.0,0.0,0.0,0.0,1.0,0.0,0.0,0.0,1.0,-28.8414649963,13.9634151459,-16.9512195587,1.0,0.0,0.0,0.0,1.0,0.0,0.0,0.0,1.0,-1.19710090314,-1.59453830566,9.2416184082,1.0,0.0,0.0,0.0,1.0,0.0,0.0,0.0,1.0
1463994875199534237,260,1463994875137730958,,7.5624127388,-23.1010456085,-107.987770081,0.0023799999617,1.0,0.0,0.0,0.0,1.0,0.0,0.0,0.0,1.0,-25.3048782349,16.8902435303,-6.95121955872,1.0,0.0,0.0,0.0,1.0,0.0,0.0,0.0,1.0,-0.359130249023,-1.25935007324,8.30787917622,1.0,0.0,0.0,0.0,1.0,0.0,0.0,0.0,1.0
1463994875199831788,261,1463994875159138455,,7.91967773438,-23.3524532318,-108.164375305,0.00131600000896,1.0,0.0,0.0,0.0,1.0,0.0,0.0,0.0,1.0,-32.5,17.8048782349,-2.56097555161,1.0,0.0,0.0,0.0,1.0,0.0,0.0,0.0,1.0,-2.09732050817,-0.244208569336,7.6853873291,1.0,0.0,0.0,0.0,1.0,0.0,0.0,0.0,1.0
1463994875200108819,262,1463994875180351995,,8.22082138062,-23.8162097931,-108.496231079,0.00138699996751,1.0,0.0,0.0,0.0,1.0,0.0,0.0,0.0,1.0,-33.2926826477,15.0609760284,-4.51219558716,1.0,0.0,0.0,0.0,1.0,0.0,0.0,0.0,1.0,-2.15478164027,-1.55144267578,9.67736311035,1.0,0.0,0.0,0.0,1.0,0.0,0.0,0.0,1.0
1463994875212406913,263,1463994875202112304,,8.51309585571,-24.4038524628,-108.631599426,0.00161299994215,1.0,0.0,0.0,0.0,1.0,0.0,0.0,0.0,1.0,-45.3048782349,17.6829280853,3.10975623131,1.0,0.0,0.0,0.0,1.0,0.0,0.0,0.0,1.0,-2.24097275391,-1.18273554705,10.5919481445,1.0,0.0,0.0,0.0,1.0,0.0,0.0,0.0,1.0
1463994875225477608,264,1463994875223256729,,8.97476768494,-25.064250946,-108.58731842,0.00121100002434,1.0,0.0,0.0,0.0,1.0,0.0,0.0,0.0,1.0,-43.4756126404,15.2439022064,9.69512176514,1.0,0.0,0.0,0.0,1.0,0.0,0.0,0.0,1.0,-1.13485158691,-2.50912333984,10.2902787354,1.0,0.0,0.0,0.0,1.0,0.0,0.0,0.0,1.0
1463994875247151980,265,1463994875243947822,,9.26179695129,-25.628578186,-108.619560242,0.00161799998023,1.0,0.0,0.0,0.0,1.0,0.0,0.0,0.0,1.0,-35.6707344055,22.0731716156,2.98780488968,1.0,0.0,0.0,0.0,1.0,0.0,0.0,0.0,1.0,0.00478840332031,-2.62404501953,9.8784760498,1.0,0.0,0.0,0.0,1.0,0.0,0.0,0.0,1.0
1463994875268805102,266,1463994875265692037,,9.68072223663,-26.1046657562,-108.849624634,0.00118999998085,1.0,0.0,0.0,0.0,1.0,0.0,0.0,0.0,1.0,-33.7804870605,28.6585388184,-1.52439022064,1.0,0.0,0.0,0.0,1.0,0.0,0.0,0.0,1.0,-0.450109912109,-2.58573779297,10.0364933594,1.0,0.0,0.0,0.0,1.0,0.0,0.0,0.0,1.0
1463994875291276242,267,1463994875287059743,,10.1631307602,-26.765827179,-109.197715759,0.00151400000323,1.0,0.0,0.0,0.0,1.0,0.0,0.0,0.0,1.0,-47.3780517578,40.3658561707,-2.86585378647,1.0,0.0,0.0,0.0,1.0,0.0,0.0,0.0,1.0,-0.435744702148,-2.06859023437,9.1219083252,1.0,0.0,0.0,0.0,1.0,0.0,0.0,0.0,1.0
1463994875321145958,268,1463994875307926408,,10.9108886719,-27.7794723511,-109.685050964,0.00281500001438,1.0,0.0,0.0,0.0,1.0,0.0,0.0,0.0,1.0,-63.0487861633,41.8292694092,-7.31707334518,1.0,0.0,0.0,0.0,1.0,0.0,0.0,0.0,1.0,-1.66157595215,-1.71424838867,8.19295808105,1.0,0.0,0.0,0.0,1.0,0.0,0.0,0.0,1.0
1463994875333639728,269,1463994875329153437,,11.6667089462,-29.0531177521,-110.300865173,0.00119400001131,1.0,0.0,0.0,0.0,1.0,0.0,0.0,0.0,1.0,-75.7926864624,36.0365867615,-19.2682914734,1.0,0.0,0.0,0.0,1.0,0.0,0.0,0.0,1.0,-3.23696064453,-1.2737152832,8.2025348877,1.0,0.0,0.0,0.0,1.0,0.0,0.0,0.0,1.0
1463994875355752692,270,1463994875349908384,,12.1870718002,-30.6543502808,-111.148651123,0.00126299995463,1.0,0.0,0.0,0.0,1.0,0.0,0.0,0.0,1.0,-80.792678833,24.2073173523,-36.7682952881,1.0,0.0,0.0,0.0,1.0,0.0,0.0,0.0,1.0,-4.87459458008,-3.57693728027,8.2504189209,1.0,0.0,0.0,0.0,1.0,0.0,0.0,0.0,1.0
1463994875373918948,271,1463994875370881404,,12.5988702774,-32.5482673645,-111.908126831,0.00146599998698,1.0,0.0,0.0,0.0,1.0,0.0,0.0,0.0,1.0,-30.0609760284,2.25609779358,18.1707305908,1.0,0.0,0.0,0.0,1.0,0.0,0.0,0.0,1.0,-4.01747038574,-4.83149924246,15.0978356689,1.0,0.0,0.0,0.0,1.0,0.0,0.0,0.0,1.0
1463994875394414052,272,1463994875391655153,,12.9729299545,-33.106300354,-112.22076416,0.00156000000425,1.0,0.0,0.0,0.0,1.0,0.0,0.0,0.0,1.0,10.4268293381,-6.21951246262,-22.0121955872,1.0,0.0,0.0,0.0,1.0,0.0,0.0,0.0,1.0,-3.71101257324,-2.90656081543,4.3622354248,1.0,0.0,0.0,0.0,1.0,0.0,0.0,0.0,1.0
1463994875416179048,273,1463994875412490568,,12.8666124344,-32.6173782349,-112.682769775,0.00188899994828,1.0,0.0,0.0,0.0,1.0,0.0,0.0,0.0,1.0,-4.2682929039,22.0121955872,-15.3658533096,1.0,0.0,0.0,0.0,1.0,0.0,0.0,0.0,1.0,-0.689530078125,-3.0885201416,11.04684646,1.0,0.0,0.0,0.0,1.0,0.0,0.0,0.0,1.0
1463994875436259778,274,1463994875433549473,,13.0298185349,-32.877784729,-113.266868591,0.0012080000015,1.0,0.0,0.0,0.0,1.0,0.0,0.0,0.0,1.0,-18.4146347046,19.0853652954,-18.9634151459,1.0,0.0,0.0,0.0,1.0,0.0,0.0,0.0,1.0,-2.56658417969,-3.82114584961,8.70052883301,1.0,0.0,0.0,0.0,1.0,0.0,0.0,0.0,1.0
1463994875458225295,275,1463994875454912231,,13.1460638046,-33.0554237366,-113.624137878,0.00136700004805,1.0,0.0,0.0,0.0,1.0,0.0,0.0,0.0,1.0,-3.71951246262,6.15853643417,-6.82926845551,1.0,0.0,0.0,0.0,1.0,0.0,0.0,0.0,1.0,-2.2170307373,-4.09887324219,9.22246479492,1.0,0.0,0.0,0.0,1.0,0.0,0.0,0.0,1.0
1463994875479810031,276,1463994875477546339,,13.3214273453,-32.8645172119,-113.788894653,0.00193799997214,1.0,0.0,0.0,0.0,1.0,0.0,0.0,0.0,1.0,-0.792682945728,6.40243911743,-2.74390244484,1.0,0.0,0.0,0.0,1.0,0.0,0.0,0.0,1.0,-2.47081611328,-3.20823022461,8.97825622559,1.0,0.0,0.0,0.0,1.0,0.0,0.0,0.0,1.0
1463994875502990858,277,1463994875499074774,,13.3178520203,-32.7039375305,-113.830802917,0.00249200011604,1.0,0.0,0.0,0.0,1.0,0.0,0.0,0.0,1.0,-0.853658556938,-1.40243899822,1.8902438879,1.0,0.0,0.0,0.0,1.0,0.0,0.0,0.0,1.0,-1.70945998535,-4.28083286062,8.9112185791,1.0,0.0,0.0,0.0,1.0,0.0,0.0,0.0,1.0
1463994875526085070,278,1463994875519806023,,13.3427209854,-32.591293335,-113.742736816,0.00143199996091,1.0,0.0,0.0,0.0,1.0,0.0,0.0,0.0,1.0,-3.47560977936,16.8292694092,13.658536911,1.0,0.0,0.0,0.0,1.0,0.0,0.0,0.0,1.0,-0.794874951172,-4.78361520925,9.15063874512,1.0,0.0,0.0,0.0,1.0,0.0,0.0,0.0,1.0
1463994875562026019,279,1463994875541042323,,13.8809528351,-32.5303344727,-113.715957642,0.00129499996547,1.0,0.0,0.0,0.0,1.0,0.0,0.0,0.0,1.0,-7.98780536652,19.0853652954,10.548781395,1.0,0.0,0.0,0.0,1.0,0.0,0.0,0.0,1.0,-2.69108266602,-4.35744702148,9.09796630859,1.0,0.0,0.0,0.0,1.0,0.0,0.0,0.0,1.0
1463994875566482675,280,1463994875561878624,,14.1623258591,-32.5363082886,-113.777786255,0.0011569999624,1.0,0.0,0.0,0.0,1.0,0.0,0.0,0.0,1.0,-8.10975551605,9.51219558716,-1.70731711388,1.0,0.0,0.0,0.0,1.0,0.0,0.0,0.0,1.0,-2.32237546422,-3.85945307617,8.8872765625,1.0,0.0,0.0,0.0,1.0,0.0,0.0,0.0,1.0
1463994875600400192,281,1463994875582401384,,14.2597446442,-32.5019836426,-113.894714355,0.00117499998305,1.0,0.0,0.0,0.0,1.0,0.0,0.0,0.0,1.0,-7.50000047684,7.07317113876,-5.42682933807,1.0,0.0,0.0,0.0,1.0,0.0,0.0,0.0,1.0,-1.92493813477,-3.59609089355,9.84016882324,1.0,0.0,0.0,0.0,1.0,0.0,0.0,0.0,1.0
1463994875609424127,282,1463994875603256383,,14.3290834427,-32.4331092834,-114.033737183,0.00147000001743,1.0,0.0,0.0,0.0,1.0,0.0,0.0,0.0,1.0,-4.93902444839,7.43902492523,-2.56097555161,1.0,0.0,0.0,0.0,1.0,0.0,0.0,0.0,1.0,-1.96324536133,-3.33751711426,9.5193463853,1.0,0.0,0.0,0.0,1.0,0.0,0.0,0.0,1.0
1463994875629398972,283,1463994875624651953,,14.359582901,-32.3151168823,-114.138893127,0.0014600000577,1.0,0.0,0.0,0.0,1.0,0.0,0.0,0.0,1.0,-0.975609779358,8.35365867615,-2.37804889679,1.0,0.0,0.0,0.0,1.0,0.0,0.0,0.0,1.0,-2.04464821777,-3.90733710937,8.75320126953,1.0,0.0,0.0,0.0,1.0,0.0,0.0,0.0,1.0
1463994875657503848,284,1463994875645787889,,14.4791984558,-32.1482009888,-114.248779297,0.00134800001979,1.0,0.0,0.0,0.0,1.0,0.0,0.0,0.0,1.0,-1.34146344662,9.26829242706,0.304878056049,1.0,0.0,0.0,0.0,1.0,0.0,0.0,0.0,1.0,-1.47003981934,-4.86501777344,10.7356002441,1.0,0.0,0.0,0.0,1.0,0.0,0.0,0.0,1.0
1463994875672256363,285,1463994875668200800,,14.6448583603,-31.9679603577,-114.337539673,0.00285500008613,1.0,0.0,0.0,0.0,1.0,0.0,0.0,0.0,1.0,-2.98780488968,8.23170757294,-1.8292683363,1.0,0.0,0.0,0.0,1.0,0.0,0.0,0.0,1.0,-1.15879360352,-3.07415493164,8.19295808105,1.0,0.0,0.0,0.0,1.0,0.0,0.0,0.0,1.0
1463994875752027357,286,1463994875688953455,,14.8890504837,-32.0311355591,-114.571868896,0.00227300007828,1.0,0.0,0.0,0.0,1.0,0.0,0.0,0.0,1.0,-5.79268312454,22.5609760284,-2.62195134163,1.0,0.0,0.0,0.0,1.0,0.0,0.0,0.0,1.0,-2.83473476562,-6.22492431641,8.69095202637,1.0,0.0,0.0,0.0,1.0,0.0,0.0,0.0,1.0
1463994875752281887,287,1463994875711051055,,15.0146903992,-32.0280036926,-114.873977661,0.00338399992324,1.0,0.0,0.0,0.0,1.0,0.0,0.0,0.0,1.0,-1.03658533096,8.10975551605,-12.2560977936,1.0,0.0,0.0,0.0,1.0,0.0,0.0,0.0,1.0,-2.04464821777,-3.9360675293,9.2176763916,1.0,0.0,0.0,0.0,1.0,0.0,0.0,0.0,1.0
1463994875752555168,288,1463994875731890481,,14.9993124008,-31.9302768707,-115.229782104,0.00151800003368,1.0,0.0,0.0,0.0,1.0,0.0,0.0,0.0,1.0,-1.03658533096,13.5975618362,-11.7073173523,1.0,0.0,0.0,0.0,1.0,0.0,0.0,0.0,1.0,-1.95845695801,-3.99352836914,8.66222219097,1.0,0.0,0.0,0.0,1.0,0.0,0.0,0.0,1.0
1463994875809794136,289,1463994875752556626,,15.1482801437,-31.9402294159,-115.465141296,0.00119199999608,1.0,0.0,0.0,0.0,1.0,0.0,0.0,0.0,1.0,-7.80487823486,17.0731716156,0.975609779358,1.0,0.0,0.0,0.0,1.0,0.0,0.0,0.0,1.0,-1.42694418945,-4.55377155762,9.27992563477,1.0,0.0,0.0,0.0,1.0,0.0,0.0,0.0,1.0
1463994875810124396,290,1463994875773576208,,15.4065628052,-32.0089378357,-115.553199768,0.00132599996869,1.0,0.0,0.0,0.0,1.0,0.0,0.0,0.0,1.0,-10.548781395,13.7195129395,3.23170733452,1.0,0.0,0.0,0.0,1.0,0.0,0.0,0.0,1.0,-2.03507141113,-3.66791694336,8.94473740234,1.0,0.0,0.0,0.0,1.0,0.0,0.0,0.0,1.0
1463994875813776105,291,1463994875795765110,,15.6320257187,-32.0810127258,-115.652610779,0.00153100001626,1.0,0.0,0.0,0.0,1.0,0.0,0.0,0.0,1.0,-12.3780488968,16.5243911743,1.09756100178,1.0,0.0,0.0,0.0,1.0,0.0,0.0,0.0,1.0,-1.85311208496,-3.9121255127,9.05487067871,1.0,0.0,0.0,0.0,1.0,0.0,0.0,0.0,1.0
1463994876015854026,292,1463994875818050938,,15.9693479538,-32.1978530884,-115.879104614,0.00282800011337,1.0,0.0,0.0,0.0,1.0,0.0,0.0,0.0,1.0,-9.32926845551,16.158536911,-5.54878091812,1.0,0.0,0.0,0.0,1.0,0.0,0.0,0.0,1.0,-2.71981308594,-3.94564433594,8.57124252788,1.0,0.0,0.0,0.0,1.0,0.0,0.0,0.0,1.0
1463994876016141734,293,1463994875843330665,,16.1791992188,-32.2195320129,-116.228904724,0.00729400012642,1.0,0.0,0.0,0.0,1.0,0.0,0.0,0.0,1.0,1.58536589146,14.3902444839,-8.5365858078,1.0,0.0,0.0,0.0,1.0,0.0,0.0,0.0,1.0,-2.88261879883,-4.2999864739,8.61433815776,1.0,0.0,0.0,0.0,1.0,0.0,0.0,0.0,1.0
1463994876016492879,294,1463994875862440200,,16.360906601,-32.0813560486,-116.540412903,0.00150000001304,1.0,0.0,0.0,0.0,1.0,0.0,0.0,0.0,1.0,8.10975551605,8.10975551605,-11.8292684555,1.0,0.0,0.0,0.0,1.0,0.0,0.0,0.0,1.0,-3.36145913086,-4.47715710449,8.44674287251,1.0,0.0,0.0,0.0,1.0,0.0,0.0,0.0,1.0
1463994876016782774,295,1463994875885451703,,16.3508853912,-31.8561973572,-116.766662598,0.00184499996249,1.0,0.0,0.0,0.0,1.0,0.0,0.0,0.0,1.0,6.7682929039,-1.70731711388,-10.0609760284,1.0,0.0,0.0,0.0,1.0,0.0,0.0,0.0,1.0,-3.064578125,-4.683058155,8.94952580566,1.0,0.0,0.0,0.0,1.0,0.0,0.0,0.0,1.0
1463994876017085273,296,1463994875906892951,,16.2296199799,-31.6995716095,-116.852012634,0.0011930000037,1.0,0.0,0.0,0.0,1.0,0.0,0.0,0.0,1.0,0.548780500889,-4.20731735229,-5.48780488968,1.0,0.0,0.0,0.0,1.0,0.0,0.0,0.0,1.0,-2.66714064941,-4.11802685547,8.84896933594,1.0,0.0,0.0,0.0,1.0,0.0,0.0,0.0,1.0
1463994876017420116,297,1463994875926929983,,16.1032218933,-31.5612163544,-116.850776672,0.00133300002199,1.0,0.0,0.0,0.0,1.0,0.0,0.0,0.0,1.0,0.304878056049,-2.56097555161,-1.09756100178,1.0,0.0,0.0,0.0,1.0,0.0,0.0,0.0,1.0,-2.10210891149,-4.18985261301,8.8154505127,1.0,0.0,0.0,0.0,1.0,0.0,0.0,0.0,1.0
1463994876017725584,298,1463994875948612584,,16.0159568787,-31.3650436401,-116.804458618,0.00190300005488,1.0,0.0,0.0,0.0,1.0,0.0,0.0,0.0,1.0,-0.243902444839,0.914634168148,0.792682945728,1.0,0.0,0.0,0.0,1.0,0.0,0.0,0.0,1.0,-1.87705410156,-3.63439812012,9.07881269531,1.0,0.0,0.0,0.0,1.0,0.0,0.0,0.0,1.0
1463994876018059125,299,1463994875970518153,,15.9991426468,-31.1785907745,-116.783447266,0.00123699998949,1.0,0.0,0.0,0.0,1.0,0.0,0.0,0.0,1.0,-2.68292689323,2.62195134163,-0.914634168148,1.0,0.0,0.0,0.0,1.0,0.0,0.0,0.0,1.0,-1.99197578125,-3.47159240723,9.10275471191,1.0,0.0,0.0,0.0,1.0,0.0,0.0,0.0,1.0
1463994876018375426,300,1463994875991294402,,15.932803154,-31.1058769226,-116.83518219,0.00128500000574,1.0,0.0,0.0,0.0,1.0,0.0,0.0,0.0,1.0,-5.42682933807,5.67073154449,-3.23170733452,1.0,0.0,0.0,0.0,1.0,0.0,0.0,0.0,1.0,-1.54665427246,-4.18027580637,9.2416184082,1.0,0.0,0.0,0.0,1.0,0.0,0.0,0.0,1.0
1463994876061157713,301,1463994876012994503,,16.039680481,-31.1232967377,-116.990158081,0.00199400004931,1.0,0.0,0.0,0.0,1.0,0.0,0.0,0.0,1.0,-3.7804877758,13.7804880142,-0.487804889679,1.0,0.0,0.0,0.0,1.0,0.0,0.0,0.0,1.0,-2.03507141113,-4.50109912109,9.02614025879,1.0,0.0,0.0,0.0,1.0,0.0,0.0,0.0,1.0
1463994876061445316,302,1463994876035463091,,16.2867012024,-31.1820201874,-117.185432434,0.00141999998596,1.0,0.0,0.0,0.0,1.0,0.0,0.0,0.0,1.0,-9.14634132385,17.6219520569,-0.853658556938,1.0,0.0,0.0,0.0,1.0,0.0,0.0,0.0,1.0,-2.3415290775,-4.15154538645,8.91600698242,1.0,0.0,0.0,0.0,1.0,0.0,0.0,0.0,1.0
1463994876084924319,303,1463994876056253611,,16.7148761749,-31.310503006,-117.380577087,0.00156799994875,1.0,0.0,0.0,0.0,1.0,0.0,0.0,0.0,1.0,-15.6097564697,26.158536911,4.39024400711,1.0,0.0,0.0,0.0,1.0,0.0,0.0,0.0,1.0,-2.44687409668,-3.40455476074,8.94952580566,1.0,0.0,0.0,0.0,1.0,0.0,0.0,0.0,1.0
1463994876085268485,304,1463994876078258190,,17.2995605469,-31.5468139648,-117.520782471,0.00278500001878,1.0,0.0,0.0,0.0,1.0,0.0,0.0,0.0,1.0,-20.8536586761,30.0609760284,11.8902444839,1.0,0.0,0.0,0.0,1.0,0.0,0.0,0.0,1.0,-1.5801730957,-4.17069899973,9.14106193848,1.0,0.0,0.0,0.0,1.0,0.0,0.0,0.0,1.0
1463994876126570098,305,1463994876099050845,,18.0491390228,-31.8844814301,-117.538978577,0.00155799998902,1.0,0.0,0.0,0.0,1.0,0.0,0.0,0.0,1.0,-28.4146347046,32.3780517578,20.1829280853,1.0,0.0,0.0,0.0,1.0,0.0,0.0,0.0,1.0,-2.54743056641,-3.30878669434,8.99740983887,1.0,0.0,0.0,0.0,1.0,0.0,0.0,0.0,1.0
1463994876126628639,306,1463994876120410322,,19.0915679932,-32.0841445923,-117.270835876,0.00138499995228,1.0,0.0,0.0,0.0,1.0,0.0,0.0,0.0,1.0,-23.5365848541,43.4756126404,38.0487823486,1.0,0.0,0.0,0.0,1.0,0.0,0.0,0.0,1.0,-2.7581203125,-2.5234885498,7.46512077637,1.0,0.0,0.0,0.0,1.0,0.0,0.0,0.0,1.0
1463994876171791232,307,1463994876140823238,,20.2819347382,-32.3104095459,-116.893959045,0.00155899999663,1.0,0.0,0.0,0.0,1.0,0.0,0.0,0.0,1.0,-26.2195129395,42.8048782349,45.9146347046,1.0,0.0,0.0,0.0,1.0,0.0,0.0,0.0,1.0,-2.45645090332,-4.55855996094,8.43716606587,1.0,0.0,0.0,0.0,1.0,0.0,0.0,0.0,1.0
1463994876221645532,308,1463994876161934435,,21.4580669403,-32.6163520813,-116.632217407,0.00147899996955,1.0,0.0,0.0,0.0,1.0,0.0,0.0,0.0,1.0,-14.0243902206,49.6951217651,41.4024391174,1.0,0.0,0.0,0.0,1.0,0.0,0.0,0.0,1.0,-2.39420180629,-5.10443793945,8.34618640278,1.0,0.0,0.0,0.0,1.0,0.0,0.0,0.0,1.0
1463994876230116083,309,1463994876183575056,,22.6879730225,-32.9134788513,-116.567657471,0.00116900005378,1.0,0.0,0.0,0.0,1.0,0.0,0.0,0.0,1.0,-15.0609760284,42.8658561707,28.2317066193,1.0,0.0,0.0,0.0,1.0,0.0,0.0,0.0,1.0,-3.82114584961,-5.2097828125,8.19774648437,1.0,0.0,0.0,0.0,1.0,0.0,0.0,0.0,1.0
1463994876230157125,310,1463994876204647971,,23.4443435669,-33.3421325684,-116.683235168,0.00153300003149,1.0,0.0,0.0,0.0,1.0,0.0,0.0,0.0,1.0,-22.6219520569,26.4634151459,5.18292713165,1.0,0.0,0.0,0.0,1.0,0.0,0.0,0.0,1.0,-4.08929643555,-5.95677373047,8.51857009136,1.0,0.0,0.0,0.0,1.0,0.0,0.0,0.0,1.0
1463994876290599627,311,1463994876226711925,,23.6764793396,-33.9496231079,-117.074287415,0.00156899995636,1.0,0.0,0.0,0.0,1.0,0.0,0.0,0.0,1.0,-12.4390249252,17.2560977936,-11.341463089,1.0,0.0,0.0,0.0,1.0,0.0,0.0,0.0,1.0,-3.28005627441,-4.63517441406,7.97269152832,1.0,0.0,0.0,0.0,1.0,0.0,0.0,0.0,1.0
1463994876290919522,312,1463994876247666976,,23.879240036,-34.1123085022,-117.657623291,0.00227200007066,1.0,0.0,0.0,0.0,1.0,0.0,0.0,0.0,1.0,4.81707286835,30.3048782349,-14.7560987473,1.0,0.0,0.0,0.0,1.0,0.0,0.0,0.0,1.0,-3.71580097656,-3.86902988281,7.91523068848,1.0,0.0,0.0,0.0,1.0,0.0,0.0,0.0,1.0
1463994876291307281,313,1463994876269335566,,24.2016162872,-34.1835098267,-118.33531189,0.00144699995872,1.0,0.0,0.0,0.0,1.0,0.0,0.0,0.0,1.0,-1.95121955872,35.1829299927,-16.5853652954,1.0,0.0,0.0,0.0,1.0,0.0,0.0,0.0,1.0,-3.18428820801,-4.31914008718,8.3509748061,1.0,0.0,0.0,0.0,1.0,0.0,0.0,0.0,1.0
1463994876351645304,314,1463994876291247281,,24.6971378326,-34.674571991,-119.233306885,0.00163499999326,1.0,0.0,0.0,0.0,1.0,0.0,0.0,0.0,1.0,-10.1829271317,37.682926178,-20.5487823486,1.0,0.0,0.0,0.0,1.0,0.0,0.0,0.0,1.0,-4.41490786133,-5.33906970215,8.28393774414,1.0,0.0,0.0,0.0,1.0,0.0,0.0,0.0,1.0
1463994876351928272,315,1463994876312956705,,25.1033973694,-35.2414588928,-120.123931885,0.00150100002065,1.0,0.0,0.0,0.0,1.0,0.0,0.0,0.0,1.0,-7.50000047684,21.4634151459,-24.3292694092,1.0,0.0,0.0,0.0,1.0,0.0,0.0,0.0,1.0,-6.24886633301,-5.63116230469,7.7093293457,1.0,0.0,0.0,0.0,1.0,0.0,0.0,0.0,1.0
1463994876352310771,316,1463994876332924466,,25.3547153473,-35.3900222778,-120.659507751,0.00128600001335,1.0,0.0,0.0,0.0,1.0,0.0,0.0,0.0,1.0,5.85365867615,6.52439069748,-16.7073173523,1.0,0.0,0.0,0.0,1.0,0.0,0.0,0.0,1.0,-6.59363137207,-3.80678063965,7.20175859375,1.0,0.0,0.0,0.0,1.0,0.0,0.0,0.0,1.0
1463994876375157275,317,1463994876354131183,,25.3551959991,-35.3530502319,-120.875480652,0.0016230000183,1.0,0.0,0.0,0.0,1.0,0.0,0.0,0.0,1.0,-0.975609779358,-14.0853662491,-14.7560987473,1.0,0.0,0.0,0.0,1.0,0.0,0.0,0.0,1.0,-5.37258852539,-4.97993945312,7.68059892578,1.0,0.0,0.0,0.0,1.0,0.0,0.0,0.0,1.0
1463994876394625194,318,1463994876376944250,,24.7514705658,-35.3402786255,-120.872772217,0.00123199995141,1.0,0.0,0.0,0.0,1.0,0.0,0.0,0.0,1.0,1.09756100178,-16.158536911,-14.6951217651,1.0,0.0,0.0,0.0,1.0,0.0,0.0,0.0,1.0,-1.98718737793,-4.56334836426,8.40843564595,1.0,0.0,0.0,0.0,1.0,0.0,0.0,0.0,1.0
1463994876431881922,319,1463994876397270344,,24.1147270203,-35.314868927,-121.039291382,0.00182600005064,1.0,0.0,0.0,0.0,1.0,0.0,0.0,0.0,1.0,4.63414621353,0.670731723309,-15.1219511032,1.0,0.0,0.0,0.0,1.0,0.0,0.0,0.0,1.0,-0.881066210937,-5.54497104492,7.77636699219,1.0,0.0,0.0,0.0,1.0,0.0,0.0,0.0,1.0
1463994876432241244,320,1463994876418519352,,23.7991676331,-35.3878211975,-121.403320312,0.00120599998627,1.0,0.0,0.0,0.0,1.0,0.0,0.0,0.0,1.0,2.25609779358,9.63414573669,-12.8658542633,1.0,0.0,0.0,0.0,1.0,0.0,0.0,0.0,1.0,-2.90177241211,-5.41568415527,8.06367119141,1.0,0.0,0.0,0.0,1.0,0.0,0.0,0.0,1.0
1463994876493876139,321,1463994876438038885,,23.776052475,-35.3883895874,-121.75164032,0.00166900001932,1.0,0.0,0.0,0.0,1.0,0.0,0.0,0.0,1.0,4.87804889679,6.28048801422,-13.5975618362,1.0,0.0,0.0,0.0,1.0,0.0,0.0,0.0,1.0,-4.15633378977,-4.57771357422,7.67102211914,1.0,0.0,0.0,0.0,1.0,0.0,0.0,0.0,1.0
1463994876494593897,322,1463994876458829770,,23.72032547,-35.2336578369,-121.945228577,0.00241099996492,1.0,0.0,0.0,0.0,1.0,0.0,0.0,0.0,1.0,10.1829271317,2.56097555161,-3.84146332741,1.0,0.0,0.0,0.0,1.0,0.0,0.0,0.0,1.0,-3.72058937988,-4.88417138672,8.0397291748,1.0,0.0,0.0,0.0,1.0,0.0,0.0,0.0,1.0
1463994876494799313,323,1463994876479531227,,23.7914028168,-34.999786377,-121.933753967,0.00136200000998,1.0,0.0,0.0,0.0,1.0,0.0,0.0,0.0,1.0,5.42682933807,0.792682945728,4.08536577225,1.0,0.0,0.0,0.0,1.0,0.0,0.0,0.0,1.0,-3.99352836914,-5.22414802246,7.67581052246,1.0,0.0,0.0,0.0,1.0,0.0,0.0,0.0,1.0
1463994876533674058,324,1463994876500312633,,23.7530059814,-34.8159561157,-121.79964447,0.00170000002254,1.0,0.0,0.0,0.0,1.0,0.0,0.0,0.0,1.0,4.02439022064,-9.51219558716,2.68292689323,1.0,0.0,0.0,0.0,1.0,0.0,0.0,0.0,1.0,-3.80678063965,-4.9512090332,7.74284816895,1.0,0.0,0.0,0.0,1.0,0.0,0.0,0.0,1.0
1463994876533996505,325,1463994876520951903,,23.5464496613,-34.589630127,-121.63483429,0.00122700002976,1.0,0.0,0.0,0.0,1.0,0.0,0.0,0.0,1.0,8.96341514587,-10.1829271317,1.52439022064,1.0,0.0,0.0,0.0,1.0,0.0,0.0,0.0,1.0,-3.11725056152,-5.1379567627,7.58004245605,1.0,0.0,0.0,0.0,1.0,0.0,0.0,0.0,1.0
1463994876570932973,326,1463994876541120237,,23.3510379791,-34.3176612854,-121.523010254,0.00154800002929,1.0,0.0,0.0,0.0,1.0,0.0,0.0,0.0,1.0,15.0000009537,-10.6097564697,-0.670731723309,1.0,0.0,0.0,0.0,1.0,0.0,0.0,0.0,1.0,-3.88818349609,-5.56891306152,7.65665690918,1.0,0.0,0.0,0.0,1.0,0.0,0.0,0.0,1.0
1463994876571376618,327,1463994876563772731,,23.0962772369,-33.8852272034,-121.466362,0.00194400001783,1.0,0.0,0.0,0.0,1.0,0.0,0.0,0.0,1.0,22.9268302917,-17.5000019073,-9.08536529541,1.0,0.0,0.0,0.0,1.0,0.0,0.0,0.0,1.0,-4.34308181152,-5.46356818848,7.91523068848,1.0,0.0,0.0,0.0,1.0,0.0,0.0,0.0,1.0
1463994876595087703,328,1463994876583858304,,22.6104202271,-33.2862892151,-121.446395874,0.0014159999555,1.0,0.0,0.0,0.0,1.0,0.0,0.0,0.0,1.0,29.0243911743,-27.5609760284,-15.548781395,1.0,0.0,0.0,0.0,1.0,0.0,0.0,0.0,1.0,-3.9839515625,-4.5968671875,8.42758925923,1.0,0.0,0.0,0.0,1.0,0.0,0.0,0.0,1.0
1463994876633827552,329,1463994876604615699,,21.7790203094,-32.5036239624,-121.287826538,0.00138699996751,1.0,0.0,0.0,0.0,1.0,0.0,0.0,0.0,1.0,29.2682933807,-33.7804870605,-11.4024391174,1.0,0.0,0.0,0.0,1.0,0.0,0.0,0.0,1.0,-1.85790048828,-4.57771357422,8.87291135254,1.0,0.0,0.0,0.0,1.0,0.0,0.0,0.0,1.0
1463994876634170988,330,1463994876628919856,,21.0245227814,-31.8221168518,-121.122512817,0.00233100005426,1.0,0.0,0.0,0.0,1.0,0.0,0.0,0.0,1.0,16.9512195587,-21.341463089,-12.1341466904,1.0,0.0,0.0,0.0,1.0,0.0,0.0,0.0,1.0,-2.77248552246,-4.43406147461,8.36055161274,1.0,0.0,0.0,0.0,1.0,0.0,0.0,0.0,1.0
1463994876655094737,331,1463994876647412361,,20.442647934,-31.5096206665,-121.17906189,0.0022450000979,1.0,0.0,0.0,0.0,1.0,0.0,0.0,0.0,1.0,8.35365867615,-21.2195129395,-18.7195110321,1.0,0.0,0.0,0.0,1.0,0.0,0.0,0.0,1.0,-3.36624753418,-4.77403840261,8.57124252788,1.0,0.0,0.0,0.0,1.0,0.0,0.0,0.0,1.0
1463994876672749379,332,1463994876669292513,,19.8289451599,-31.3000717163,-121.263015747,0.00235500000417,1.0,0.0,0.0,0.0,1.0,0.0,0.0,0.0,1.0,14.2073173523,-29.2073173523,-18.2317085266,1.0,0.0,0.0,0.0,1.0,0.0,0.0,0.0,1.0,-3.82114584961,-5.21935961914,8.04930598145,1.0,0.0,0.0,0.0,1.0,0.0,0.0,0.0,1.0
1463994876694824375,333,1463994876690161262,,19.13763237,-30.9703140259,-121.260795593,0.00139800005127,1.0,0.0,0.0,0.0,1.0,0.0,0.0,0.0,1.0,20.975610733,-36.2804908752,-18.5365848541,1.0,0.0,0.0,0.0,1.0,0.0,0.0,0.0,1.0,-3.9600095459,-5.53060583496,8.10676682129,1.0,0.0,0.0,0.0,1.0,0.0,0.0,0.0,1.0
1463994876841943531,334,1463994876711238917,,18.1954994202,-30.415391922,-121.197631836,0.00127600005362,1.0,0.0,0.0,0.0,1.0,0.0,0.0,0.0,1.0,29.3902435303,-47.0731697083,-23.7195129395,1.0,0.0,0.0,0.0,1.0,0.0,0.0,0.0,1.0,-2.62404501953,-4.45321508789,8.31745598286,1.0,0.0,0.0,0.0,1.0,0.0,0.0,0.0,1.0
1463994876842032280,335,1463994876732119436,,16.9423789978,-29.5979671478,-121.200531006,0.00168999994639,1.0,0.0,0.0,0.0,1.0,0.0,0.0,0.0,1.0,38.1707305908,-49.4512176514,-32.3780517578,1.0,0.0,0.0,0.0,1.0,0.0,0.0,0.0,1.0,-3.43807358398,-3.40934316406,7.97269152832,1.0,0.0,0.0,0.0,1.0,0.0,0.0,0.0,1.0
1463994876842439675,336,1463994876754937607,,15.4815330505,-28.6715202332,-121.31098175,0.00185999996029,1.0,0.0,0.0,0.0,1.0,0.0,0.0,0.0,1.0,43.7195129395,-45.9756088257,-29.4512195587,1.0,0.0,0.0,0.0,1.0,0.0,0.0,0.0,1.0,-0.828393774414,-4.6591161384,9.30865547017,1.0,0.0,0.0,0.0,1.0,0.0,0.0,0.0,1.0
1463994876842586550,337,1463994876774966566,,14.3564090729,-27.8058795929,-121.34487915,0.00149199995212,1.0,0.0,0.0,0.0,1.0,0.0,0.0,0.0,1.0,35.7317085266,-48.2317085266,-24.6951236725,1.0,0.0,0.0,0.0,1.0,0.0,0.0,0.0,1.0,-2.65277543945,-4.41011945801,8.70052883301,1.0,0.0,0.0,0.0,1.0,0.0,0.0,0.0,1.0
1463994876842883268,338,1463994876796726511,,13.1530237198,-27.0668487549,-121.30708313,0.00104999996256,1.0,0.0,0.0,0.0,1.0,0.0,0.0,0.0,1.0,35.6097564697,-63.7195167542,-27.9878063202,1.0,0.0,0.0,0.0,1.0,0.0,0.0,0.0,1.0,-2.43729729004,-3.69664736328,8.89685336914,1.0,0.0,0.0,0.0,1.0,0.0,0.0,0.0,1.0
1463994876851241163,339,1463994876817810155,,11.4810876846,-26.0784225464,-121.154846191,0.00254600006156,1.0,0.0,0.0,0.0,1.0,0.0,0.0,0.0,1.0,39.5121955872,-77.9878082275,-29.5731697083,1.0,0.0,0.0,0.0,1.0,0.0,0.0,0.0,1.0,0.502782348633,-4.37660063477,8.8154505127,1.0,0.0,0.0,0.0,1.0,0.0,0.0,0.0,1.0
1463994877160880059,340,1463994876839156454,,10.0441684723,-24.8161087036,-120.742828369,0.00208300002851,1.0,0.0,0.0,0.0,1.0,0.0,0.0,0.0,1.0,24.7560977936,-55.1219520569,-6.21951246262,1.0,0.0,0.0,0.0,1.0,0.0,0.0,0.0,1.0,-1.09175595703,0.330399829102,9.23204160156,1.0,0.0,0.0,0.0,1.0,0.0,0.0,0.0,1.0
1463994877162157817,341,1463994876862955404,,8.45669269562,-24.3814201355,-120.542907715,0.00564400013536,1.0,0.0,0.0,0.0,1.0,0.0,0.0,0.0,1.0,15.3658533096,-60.0000038147,-7.19512224197,1.0,0.0,0.0,0.0,1.0,0.0,0.0,0.0,1.0,-0.248996972656,-3.06936652832,8.94952580566,1.0,0.0,0.0,0.0,1.0,0.0,0.0,0.0,1.0
1463994877162703649,342,1463994876883713476,,7.17657899857,-23.9242286682,-120.159637451,0.00141499994788,1.0,0.0,0.0,0.0,1.0,0.0,0.0,0.0,1.0,14.4512205124,-55.365852356,-7.25609779358,1.0,0.0,0.0,0.0,1.0,0.0,0.0,0.0,1.0,-0.0287304199219,-1.88184250488,8.26478413086,1.0,0.0,0.0,0.0,1.0,0.0,0.0,0.0,1.0
1463994877162758700,343,1463994876904085663,,5.68676519394,-23.4420852661,-120.020187378,0.00152000004891,1.0,0.0,0.0,0.0,1.0,0.0,0.0,0.0,1.0,12.2560977936,-60.4878044128,-23.2926845551,1.0,0.0,0.0,0.0,1.0,0.0,0.0,0.0,1.0,1.02950671387,-2.12605122035,10.8840407471,1.0,0.0,0.0,0.0,1.0,0.0,0.0,0.0,1.0
1463994877167707334,344,1463994876925799879,,4.42998123169,-23.1258583069,-119.918319702,0.00129499996547,1.0,0.0,0.0,0.0,1.0,0.0,0.0,0.0,1.0,14.4512205124,-52.5,-13.9024391174,1.0,0.0,0.0,0.0,1.0,0.0,0.0,0.0,1.0,-0.756567724609,-3.66791694336,9.77313117676,1.0,0.0,0.0,0.0,1.0,0.0,0.0,0.0,1.0
1463994877168018843,345,1463994876947724354,,3.12935376167,-22.7542724609,-119.759239197,0.00279999990016,1.0,0.0,0.0,0.0,1.0,0.0,0.0,0.0,1.0,11.2195119858,-58.5365867615,-18.7195110321,1.0,0.0,0.0,0.0,1.0,0.0,0.0,0.0,1.0,0.545877978516,-3.4428619873,9.77313117676,1.0,0.0,0.0,0.0,1.0,0.0,0.0,0.0,1.0
1463994877168067697,346,1463994876968869977,,1.81495070457,-22.355764389,-119.665870667,0.00164499995299,1.0,0.0,0.0,0.0,1.0,0.0,0.0,0.0,1.0,13.5365858078,-51.1585388184,-17.0731716156,1.0,0.0,0.0,0.0,1.0,0.0,0.0,0.0,1.0,0.407014282227,-2.51870014648,9.70130512695,1.0,0.0,0.0,0.0,1.0,0.0,0.0,0.0,1.0
1463994877171349616,347,1463994876990036381,,0.71825248003,-21.8915672302,-119.607246399,0.00195499998517,1.0,0.0,0.0,0.0,1.0,0.0,0.0,0.0,1.0,12.9878053665,-45.9756088257,-16.158536911,1.0,0.0,0.0,0.0,1.0,0.0,0.0,0.0,1.0,0.541089611728,-2.66714064941,9.49061596538,1.0,0.0,0.0,0.0,1.0,0.0,0.0,0.0,1.0
1463994877171701855,348,1463994877010807995,,-0.300498098135,-21.6302471161,-119.612106323,0.001304000034,1.0,0.0,0.0,0.0,1.0,0.0,0.0,0.0,1.0,-2.37804889679,-36.8292694092,-16.0365848541,1.0,0.0,0.0,0.0,1.0,0.0,0.0,0.0,1.0,0.804451757813,-1.89141931152,9.31344387349,1.0,0.0,0.0,0.0,1.0,0.0,0.0,0.0,1.0
1463994877171747896,349,1463994877031342265,,-1.0417098999,-21.6230659485,-119.669776917,0.00161699997261,1.0,0.0,0.0,0.0,1.0,0.0,0.0,0.0,1.0,-9.63414573669,-27.5,-16.8902435303,1.0,0.0,0.0,0.0,1.0,0.0,0.0,0.0,1.0,-0.636857641602,-2.92092602539,10.1274730225,1.0,0.0,0.0,0.0,1.0,0.0,0.0,0.0,1.0
1463994877176709082,350,1463994877052163098,,-1.61742603779,-21.667924881,-119.708732605,0.00167100003455,1.0,0.0,0.0,0.0,1.0,0.0,0.0,0.0,1.0,-3.84146332741,-26.4634151459,-10.2439022064,1.0,0.0,0.0,0.0,1.0,0.0,0.0,0.0,1.0,-0.076614453125,-3.88339509277,9.64863327495,1.0,0.0,0.0,0.0,1.0,0.0,0.0,0.0,1.0
1463994877178187046,351,1463994877075340434,,-2.12961149216,-21.7082920074,-119.618186951,0.00183700001799,1.0,0.0,0.0,0.0,1.0,0.0,0.0,0.0,1.0,-0.12195122242,-12.5609760284,3.35365867615,1.0,0.0,0.0,0.0,1.0,0.0,0.0,0.0,1.0,-0.435744702148,-3.03584770508,10.4291424316,1.0,0.0,0.0,0.0,1.0,0.0,0.0,0.0,1.0
1463994877180103969,352,1463994877096251318,,-2.31739521027,-21.6879730225,-119.475502014,0.00137600000016,1.0,0.0,0.0,0.0,1.0,0.0,0.0,0.0,1.0,0.487804889679,-5.48780488968,5.73170757294,1.0,0.0,0.0,0.0,1.0,0.0,0.0,0.0,1.0,0.392649072266,-2.86346518555,9.46667277974,1.0,0.0,0.0,0.0,1.0,0.0,0.0,0.0,1.0
1463994877186953326,353,1463994877118112356,,-2.36264705658,-21.6356163025,-119.351547241,0.00187100004405,1.0,0.0,0.0,0.0,1.0,0.0,0.0,0.0,1.0,-4.14634132385,0.304878056049,4.32926845551,1.0,0.0,0.0,0.0,1.0,0.0,0.0,0.0,1.0,0.713472094727,-2.38462499965,9.39484672993,1.0,0.0,0.0,0.0,1.0,0.0,0.0,0.0,1.0
1463994877187019628,354,1463994877139201782,,-2.38751149178,-21.6935214996,-119.351379395,0.00248100003228,1.0,0.0,0.0,0.0,1.0,0.0,0.0,0.0,1.0,-12.0731716156,0.670731723309,-1.2195122242,1.0,0.0,0.0,0.0,1.0,0.0,0.0,0.0,1.0,0.933738647461,-3.12682736816,9.61511445171,1.0,0.0,0.0,0.0,1.0,0.0,0.0,0.0,1.0
1463994877187406450,355,1463994877160623758,,-2.3408703804,-21.9007797241,-119.407295227,0.00125900004059,1.0,0.0,0.0,0.0,1.0,0.0,0.0,0.0,1.0,-10.7926826477,6.40243911743,-1.70731711388,1.0,0.0,0.0,0.0,1.0,0.0,0.0,0.0,1.0,0.612915625,-4.04620080566,9.56723041851,1.0,0.0,0.0,0.0,1.0,0.0,0.0,0.0,1.0
1463994877190050037,356,1463994877182475838,,-2.13224363327,-22.0810108185,-119.523696899,0.00475300010294,1.0,0.0,0.0,0.0,1.0,0.0,0.0,0.0,1.0,-9.26829242706,11.2804880142,-0.975609779358,1.0,0.0,0.0,0.0,1.0,0.0,0.0,0.0,1.0,0.679953271484,-3.57693728027,9.41400034321,1.0,0.0,0.0,0.0,1.0,0.0,0.0,0.0,1.0
1463994878221451152,357,1463994877203456253,,-1.94175136089,-22.284198761,-119.668434143,0.00136200000998,1.0,0.0,0.0,0.0,1.0,0.0,0.0,0.0,1.0,-14.3902444839,11.4024391174,-2.56097555161,1.0,0.0,0.0,0.0,1.0,0.0,0.0,0.0,1.0,0.986411083984,-3.48116921387,9.39005832661,1.0,0.0,0.0,0.0,1.0,0.0,0.0,0.0,1.0
1463994878221723183,358,1463994877225076093,,-1.77850997448,-22.5827693939,-119.841491699,0.00155299995095,1.0,0.0,0.0,0.0,1.0,0.0,0.0,0.0,1.0,-16.158536911,15.4268302917,-2.25609779358,1.0,0.0,0.0,0.0,1.0,0.0,0.0,0.0,1.0,1.29286889648,-3.58651408691,9.42357714985,1.0,0.0,0.0,0.0,1.0,0.0,0.0,0.0,1.0
1463994878222013078,359,1463994877247175933,,-1.53020834923,-22.8864688873,-120.057327271,0.00189199997112,1.0,0.0,0.0,0.0,1.0,0.0,0.0,0.0,1.0,-15.8536596298,16.8902435303,-3.65853667259,1.0,0.0,0.0,0.0,1.0,0.0,0.0,0.0,1.0,0.837970581055,-3.6535517334,9.37090471333,1.0,0.0,0.0,0.0,1.0,0.0,0.0,0.0,1.0
1463994878222304535,360,1463994877267477548,,-1.23514580727,-23.1676445007,-120.290748596,0.00208100001328,1.0,0.0,0.0,0.0,1.0,0.0,0.0,0.0,1.0,-15.0609760284,16.158536911,-4.63414621353,1.0,0.0,0.0,0.0,1.0,0.0,0.0,0.0,1.0,0.656011254883,-3.59130249023,9.33738589009,1.0,0.0,0.0,0.0,1.0,0.0,0.0,0.0,1.0
1463994878222582087,361,1463994877288068589,,-0.960690617561,-23.4128913879,-120.548294067,0.00182699994184,1.0,0.0,0.0,0.0,1.0,0.0,0.0,0.0,1.0,-15.7317075729,17.8048782349,-5.18292713165,1.0,0.0,0.0,0.0,1.0,0.0,0.0,0.0,1.0,0.560243188477,-3.51468803711,9.32780908345,1.0,0.0,0.0,0.0,1.0,0.0,0.0,0.0,1.0
1463994878222852503,362,1463994877308985254,,-0.722649753094,-23.6979026794,-120.822006226,0.00240999995731,1.0,0.0,0.0,0.0,1.0,0.0,0.0,0.0,1.0,-17.8048782349,16.7073173523,-6.15853643417,1.0,0.0,0.0,0.0,1.0,0.0,0.0,0.0,1.0,1.00077629395,-3.67749375,9.33259748677,1.0,0.0,0.0,0.0,1.0,0.0,0.0,0.0,1.0
1463994878223105835,363,1463994877331163427,,-0.449076741934,-24.050201416,-121.100654602,0.00167200004216,1.0,0.0,0.0,0.0,1.0,0.0,0.0,0.0,1.0,-19.3292694092,19.3292694092,-3.41463422775,1.0,0.0,0.0,0.0,1.0,0.0,0.0,0.0,1.0,0.593762048251,-3.63439812012,9.07881269531,1.0,0.0,0.0,0.0,1.0,0.0,0.0,0.0,1.0
1463994878223168127,364,1463994877352784361,,-0.115464426577,-24.4059410095,-121.343711853,0.0012150000548,1.0,0.0,0.0,0.0,1.0,0.0,0.0,0.0,1.0,-17.317073822,18.7195110321,-2.56097555161,1.0,0.0,0.0,0.0,1.0,0.0,0.0,0.0,1.0,0.512359155273,-3.9600095459,9.40442353657,1.0,0.0,0.0,0.0,1.0,0.0,0.0,0.0,1.0
1463994878223234168,365,1463994877373066601,,0.192249700427,-24.7188282013,-121.568756104,0.00161899998784,1.0,0.0,0.0,0.0,1.0,0.0,0.0,0.0,1.0,-15.4268302917,17.8658542633,-3.23170733452,1.0,0.0,0.0,0.0,1.0,0.0,0.0,0.0,1.0,0.383072265625,-4.18985261301,8.86812294922,1.0,0.0,0.0,0.0,1.0,0.0,0.0,0.0,1.0
1463994878223272814,366,1463994877395167534,,0.466185182333,-25.0639381409,-121.7915802,0.00167300004978,1.0,0.0,0.0,0.0,1.0,0.0,0.0,0.0,1.0,-16.8292694092,14.8780498505,-2.56097555161,1.0,0.0,0.0,0.0,1.0,0.0,0.0,0.0,1.0,0.201112939453,-4.34787021484,9.08838950195,1.0,0.0,0.0,0.0,1.0,0.0,0.0,0.0,1.0
1463994878223617397,367,1463994877418993931,,0.738038599491,-25.4223880768,-121.961395264,0.00220400001854,1.0,0.0,0.0,0.0,1.0,0.0,0.0,0.0,1.0,-15.2439022064,11.9512195587,0.12195122242,1.0,0.0,0.0,0.0,1.0,0.0,0.0,0.0,1.0,0.177170922852,-4.46758029785,9.20331118164,1.0,0.0,0.0,0.0,1.0,0.0,0.0,0.0,1.0
1463994878227717438,368,1463994877438817214,,0.952379703522,-25.73919487,-122.0652771,0.00241299998015,1.0,0.0,0.0,0.0,1.0,0.0,0.0,0.0,1.0,-15.1219511032,11.2804880142,1.64634156227,1.0,0.0,0.0,0.0,1.0,0.0,0.0,0.0,1.0,0.445321508789,-4.18027580637,9.02614025879,1.0,0.0,0.0,0.0,1.0,0.0,0.0,0.0,1.0
1463994878227784313,369,1463994877459691796,,1.14584577084,-26.0526161194,-122.140319824,0.00183900003321,1.0,0.0,0.0,0.0,1.0,0.0,0.0,0.0,1.0,-15.975610733,11.7682924271,2.80487799644,1.0,0.0,0.0,0.0,1.0,0.0,0.0,0.0,1.0,0.368707055664,-4.31914008718,9.02135185547,1.0,0.0,0.0,0.0,1.0,0.0,0.0,0.0,1.0
1463994878227821500,370,1463994877480984242,,1.38717699051,-26.3713588715,-122.214698792,0.00211400003172,1.0,0.0,0.0,0.0,1.0,0.0,0.0,0.0,1.0,-14.5121955872,10.4268293381,2.25609779358,1.0,0.0,0.0,0.0,1.0,0.0,0.0,0.0,1.0,-0.15801730957,-4.45321508789,8.93994899902,1.0,0.0,0.0,0.0,1.0,0.0,0.0,0.0,1.0
1463994878227861865,371,1463994877500899087,,1.56624126434,-26.6174545288,-122.266960144,0.00136800005566,1.0,0.0,0.0,0.0,1.0,0.0,0.0,0.0,1.0,-10.9756097794,7.92682981491,3.17073178291,1.0,0.0,0.0,0.0,1.0,0.0,0.0,0.0,1.0,0.253785375977,-4.31914008718,9.05487067871,1.0,0.0,0.0,0.0,1.0,0.0,0.0,0.0,1.0
1463994878227898636,372,1463994877522961374,,1.74056231976,-26.7902355194,-122.279266357,0.00162600004114,1.0,0.0,0.0,0.0,1.0,0.0,0.0,0.0,1.0,-10.9756097794,8.17073154449,5.18292713165,1.0,0.0,0.0,0.0,1.0,0.0,0.0,0.0,1.0,0.282515795898,-4.14675698313,8.96389101563,1.0,0.0,0.0,0.0,1.0,0.0,0.0,0.0,1.0
1463994878227932646,373,1463994877543638561,,1.89795207977,-26.9790802002,-122.276741028,0.00148400000762,1.0,0.0,0.0,0.0,1.0,0.0,0.0,0.0,1.0,-9.93902492523,7.19512224197,4.57317066193,1.0,0.0,0.0,0.0,1.0,0.0,0.0,0.0,1.0,0.598550451572,-4.50109912109,8.89206496582,1.0,0.0,0.0,0.0,1.0,0.0,0.0,0.0,1.0
1463994878227975667,374,1463994877564108196,,2.02548336983,-27.1732616425,-122.261825562,0.00166900001932,1.0,0.0,0.0,0.0,1.0,0.0,0.0,0.0,1.0,-9.39024448395,6.70731735229,5.48780488968,1.0,0.0,0.0,0.0,1.0,0.0,0.0,0.0,1.0,0.0814028564453,-4.46279189453,8.82502731934,1.0,0.0,0.0,0.0,1.0,0.0,0.0,0.0,1.0
1463994878228574780,375,1463994877586222202,,2.13807058334,-27.272195816,-122.229888916,0.00165200000629,1.0,0.0,0.0,0.0,1.0,0.0,0.0,0.0,1.0,-7.80487823486,7.31707334518,4.63414621353,1.0,0.0,0.0,0.0,1.0,0.0,0.0,0.0,1.0,-0.411802685547,-4.38138903809,8.85375773926,1.0,0.0,0.0,0.0,1.0,0.0,0.0,0.0,1.0
1463994878228831602,376,1463994877607061732,,2.27189445496,-27.3365421295,-122.192047119,0.00161899998784,1.0,0.0,0.0,0.0,1.0,0.0,0.0,0.0,1.0,-8.59756088257,5.36585378647,6.52439069748,1.0,0.0,0.0,0.0,1.0,0.0,0.0,0.0,1.0,0.972045874023,-4.78840361257,8.70531723633,1.0,0.0,0.0,0.0,1.0,0.0,0.0,0.0,1.0
1463994878229581965,377,1463994877628435792,,2.45787072182,-27.4992980957,-122.21875,0.00295699993148,1.0,0.0,0.0,0.0,1.0,0.0,0.0,0.0,1.0,-9.45121955872,8.96341514587,2.80487799644,1.0,0.0,0.0,0.0,1.0,0.0,0.0,0.0,1.0,-0.191536132812,-4.58729038086,9.16021555176,1.0,0.0,0.0,0.0,1.0,0.0,0.0,0.0,1.0
1463994878230119880,378,1463994877650245997,,2.61828827858,-27.6759586334,-122.331069946,0.00126399996225,1.0,0.0,0.0,0.0,1.0,0.0,0.0,0.0,1.0,-8.5365858078,9.20731735229,-2.25609779358,1.0,0.0,0.0,0.0,1.0,0.0,0.0,0.0,1.0,-0.00478840332031,-4.29519807058,9.12669672852,1.0,0.0,0.0,0.0,1.0,0.0,0.0,0.0,1.0
1463994878230211182,379,1463994877670854069,,2.71790194511,-27.8244628906,-122.507263184,0.00152100005653,1.0,0.0,0.0,0.0,1.0,0.0,0.0,0.0,1.0,-10.0609760284,11.2804880142,-3.41463422775,1.0,0.0,0.0,0.0,1.0,0.0,0.0,0.0,1.0,0.253785375977,-4.3239284905,9.04050546875,1.0,0.0,0.0,0.0,1.0,0.0,0.0,0.0,1.0
1463994878230255088,380,1463994877694069531,,2.88788676262,-28.0282516479,-122.733932495,0.00355200003833,1.0,0.0,0.0,0.0,1.0,0.0,0.0,0.0,1.0,-10.4878053665,12.6219520569,-3.59756112099,1.0,0.0,0.0,0.0,1.0,0.0,0.0,0.0,1.0,0.181959326172,-4.40054265137,8.85375773926,1.0,0.0,0.0,0.0,1.0,0.0,0.0,0.0,1.0
1463994878230294463,381,1463994877725412836,,3.12037730217,-28.36835289,-123.025634766,0.0123929996043,1.0,0.0,0.0,0.0,1.0,0.0,0.0,0.0,1.0,-9.75609779358,12.2560977936,-2.80487799644,1.0,0.0,0.0,0.0,1.0,0.0,0.0,0.0,1.0,-0.0191536132812,-5.00388146973,8.72925925293,1.0,0.0,0.0,0.0,1.0,0.0,0.0,0.0,1.0
1463994878230332431,382,1463994877747457728,,3.30773568153,-28.5894832611,-123.22114563,0.0019199999515,1.0,0.0,0.0,0.0,1.0,0.0,0.0,0.0,1.0,-8.04878044128,12.9268293381,-0.914634168148,1.0,0.0,0.0,0.0,1.0,0.0,0.0,0.0,1.0,-0.320823022461,-4.84586416016,8.71010563965,1.0,0.0,0.0,0.0,1.0,0.0,0.0,0.0,1.0
1463994878230365713,383,1463994877770493294,,3.59176850319,-28.7693996429,-123.370788574,0.00599100021645,1.0,0.0,0.0,0.0,1.0,0.0,0.0,0.0,1.0,-6.58536624908,8.59756088257,0.12195122242,1.0,0.0,0.0,0.0,1.0,0.0,0.0,0.0,1.0,-0.857124194336,-4.63517441406,8.79150849609,1.0,0.0,0.0,0.0,1.0,0.0,0.0,0.0,1.0
1463994878232900394,384,1463994877792703966,,3.67894768715,-28.8858528137,-123.45110321,0.0087280003354,1.0,0.0,0.0,0.0,1.0,0.0,0.0,0.0,1.0,-5.79268312454,3.47560977936,-0.487804889679,1.0,0.0,0.0,0.0,1.0,0.0,0.0,0.0,1.0,0.0335188255255,-4.84107575684,8.70531723633,1.0,0.0,0.0,0.0,1.0,0.0,0.0,0.0,1.0
1463994878232959664,385,1463994877813364590,,3.69210243225,-29.0231533051,-123.497146606,0.00191400002223,1.0,0.0,0.0,0.0,1.0,0.0,0.0,0.0,1.0,-5.30487823486,2.92682933807,1.03658533096,1.0,0.0,0.0,0.0,1.0,0.0,0.0,0.0,1.0,-0.0622492431641,-5.26724365234,8.78193168945,1.0,0.0,0.0,0.0,1.0,0.0,0.0,0.0,1.0
1463994878233203882,386,1463994877835073389,,3.73254013062,-29.1299209595,-123.495796204,0.00140399998054,1.0,0.0,0.0,0.0,1.0,0.0,0.0,0.0,1.0,-2.37804889679,1.95121955872,3.84146332741,1.0,0.0,0.0,0.0,1.0,0.0,0.0,0.0,1.0,-0.196324536133,-5.19541760254,8.38449362935,1.0,0.0,0.0,0.0,1.0,0.0,0.0,0.0,1.0
1463994878233458778,387,1463994877856779271,,3.79186677933,-29.1765060425,-123.446861267,0.00127999996766,1.0,0.0,0.0,0.0,1.0,0.0,0.0,0.0,1.0,1.34146344662,-0.365853667259,3.65853667259,1.0,0.0,0.0,0.0,1.0,0.0,0.0,0.0,1.0,-0.732625708008,-4.80755722585,9.29907866352,1.0,0.0,0.0,0.0,1.0,0.0,0.0,0.0,1.0
1463994878236142469,388,1463994877877753697,,3.73761105537,-29.1821899414,-123.383476257,0.00186499999836,1.0,0.0,0.0,0.0,1.0,0.0,0.0,0.0,1.0,1.64634156227,-5.60975599289,2.25609779358,1.0,0.0,0.0,0.0,1.0,0.0,0.0,0.0,1.0,-0.258573779297,-5.27682045898,8.44195446919,1.0,0.0,0.0,0.0,1.0,0.0,0.0,0.0,1.0
1463994878236289135,389,1463994877898487602,,3.6021168232,-29.1281070709,-123.315223694,0.00252499990165,1.0,0.0,0.0,0.0,1.0,0.0,0.0,0.0,1.0,4.51219558716,-8.17073154449,-0.609756112099,1.0,0.0,0.0,0.0,1.0,0.0,0.0,0.0,1.0,-0.368707055664,-4.90811340332,8.56166572124,1.0,0.0,0.0,0.0,1.0,0.0,0.0,0.0,1.0
1463994878236392156,390,1463994877920645983,,3.37201118469,-28.9876403809,-123.281341553,0.00391699979082,1.0,0.0,0.0,0.0,1.0,0.0,0.0,0.0,1.0,6.34146356583,-8.65853691101,-2.92682933807,1.0,0.0,0.0,0.0,1.0,0.0,0.0,0.0,1.0,0.129286889648,-4.79319201589,8.40364724263,1.0,0.0,0.0,0.0,1.0,0.0,0.0,0.0,1.0
1463994878236438718,391,1463994877942293844,,3.1812171936,-28.8662528992,-123.297210693,0.0011569999624,1.0,0.0,0.0,0.0,1.0,0.0,0.0,0.0,1.0,7.98780536652,-4.02439022064,-2.68292689323,1.0,0.0,0.0,0.0,1.0,0.0,0.0,0.0,1.0,-0.234631762695,-5.2816088623,8.9351605957,1.0,0.0,0.0,0.0,1.0,0.0,0.0,0.0,1.0
1463994878236485853,392,1463994877963751602,,3.15301322937,-28.6131343842,-123.333824158,0.00116600003093,1.0,0.0,0.0,0.0,1.0,0.0,0.0,0.0,1.0,13.7195129395,-4.57317066193,-3.84146332741,1.0,0.0,0.0,0.0,1.0,0.0,0.0,0.0,1.0,-1.08217922346,-4.30477487722,8.77714328613,1.0,0.0,0.0,0.0,1.0,0.0,0.0,0.0,1.0
1463994878236526114,393,1463994877984177487,,2.93428277969,-28.28008461,-123.423217773,0.00135999999475,1.0,0.0,0.0,0.0,1.0,0.0,0.0,0.0,1.0,13.048781395,-8.17073154449,-10.3048782349,1.0,0.0,0.0,0.0,1.0,0.0,0.0,0.0,1.0,0.287304199219,-4.11323845215,8.94473740234,1.0,0.0,0.0,0.0,1.0,0.0,0.0,0.0,1.0
1463994878236564603,394,1463994878006929096,,2.67106938362,-27.9338283539,-123.628601074,0.00180099997669,1.0,0.0,0.0,0.0,1.0,0.0,0.0,0.0,1.0,13.9634151459,-2.86585378647,-13.2317075729,1.0,0.0,0.0,0.0,1.0,0.0,0.0,0.0,1.0,0.430956298828,-4.3382934082,9.2176763916,1.0,0.0,0.0,0.0,1.0,0.0,0.0,0.0,1.0
1463994878239686991,395,1463994878027495346,,2.50815415382,-27.6328125,-123.896644592,0.0017269999953,1.0,0.0,0.0,0.0,1.0,0.0,0.0,0.0,1.0,13.1097564697,3.23170733452,-12.9268293381,1.0,0.0,0.0,0.0,1.0,0.0,0.0,0.0,1.0,0.177170922852,-4.39096584473,9.43794235981,1.0,0.0,0.0,0.0,1.0,0.0,0.0,0.0,1.0
1463994878239747928,396,1463994878048739614,,2.41017603874,-27.2715873718,-124.210845947,0.00265899999067,1.0,0.0,0.0,0.0,1.0,0.0,0.0,0.0,1.0,12.9878053665,6.21951246262,-12.0121955872,1.0,0.0,0.0,0.0,1.0,0.0,0.0,0.0,1.0,0.627280834961,-4.13239206543,9.58638403179,1.0,0.0,0.0,0.0,1.0,0.0,0.0,0.0,1.0
1463994878239862095,397,1463994878069298780,,2.41547679901,-26.9612789154,-124.513710022,0.00138000003062,1.0,0.0,0.0,0.0,1.0,0.0,0.0,0.0,1.0,11.0365858078,11.2195119858,-10.3658542633,1.0,0.0,0.0,0.0,1.0,0.0,0.0,0.0,1.0,0.359130249023,-4.17548740305,9.68693991699,1.0,0.0,0.0,0.0,1.0,0.0,0.0,0.0,1.0
1463994878242843233,398,1463994878092122420,,2.50813531876,-26.6865692139,-124.863021851,0.00463999994099,1.0,0.0,0.0,0.0,1.0,0.0,0.0,0.0,1.0,7.74390268326,14.6951217651,-9.69512176514,1.0,0.0,0.0,0.0,1.0,0.0,0.0,0.0,1.0,0.383072265625,-4.12281525879,9.48103915874,1.0,0.0,0.0,0.0,1.0,0.0,0.0,0.0,1.0
1463994878243132868,399,1463994878111719349,,2.6173157692,-26.5027561188,-125.188331604,0.0017719999887,1.0,0.0,0.0,0.0,1.0,0.0,0.0,0.0,1.0,3.17073178291,15.2439022064,-8.84146404266,1.0,0.0,0.0,0.0,1.0,0.0,0.0,0.0,1.0,0.986411083984,-3.74453139648,9.54807680523,1.0,0.0,0.0,0.0,1.0,0.0,0.0,0.0,1.0
1463994878243177607,400,1463994878133045701,,2.72960329056,-26.4255161285,-125.534042358,0.00141400005668,1.0,0.0,0.0,0.0,1.0,0.0,0.0,0.0,1.0,-3.84146332741,18.5365848541,-8.59756088257,1.0,0.0,0.0,0.0,1.0,0.0,0.0,0.0,1.0,0.656011254883,-3.7253777832,9.37569311665,1.0,0.0,0.0,0.0,1.0,0.0,0.0,0.0,1.0
1463994878243570731,401,1463994878154497052,,2.98890590668,-26.4918746948,-125.888092041,0.0016309999628,1.0,0.0,0.0,0.0,1.0,0.0,0.0,0.0,1.0,-8.47560977936,20.0609760284,-6.89024400711,1.0,0.0,0.0,0.0,1.0,0.0,0.0,0.0,1.0,-0.0814028564453,-3.84508786621,9.39005832661,1.0,0.0,0.0,0.0,1.0,0.0,0.0,0.0,1.0
1463994878243620002,402,1463994878176366996,,3.28391194344,-26.6828804016,-126.171638489,0.00115799997002,1.0,0.0,0.0,0.0,1.0,0.0,0.0,0.0,1.0,-14.2682924271,16.2195110321,-3.90243911743,1.0,0.0,0.0,0.0,1.0,0.0,0.0,0.0,1.0,-0.205901342773,-3.86424147949,9.12669672852,1.0,0.0,0.0,0.0,1.0,0.0,0.0,0.0,1.0
1463994878243655522,403,1463994878197208662,,3.48083043098,-26.9572048187,-126.394012451,0.00196000002325,1.0,0.0,0.0,0.0,1.0,0.0,0.0,0.0,1.0,-17.1951217651,14.5121955872,-3.17073178291,1.0,0.0,0.0,0.0,1.0,0.0,0.0,0.0,1.0,0.430956298828,-4.17548740305,9.193734375,1.0,0.0,0.0,0.0,1.0,0.0,0.0,0.0,1.0
1463994878247388273,404,1463994878218061838,,3.63517522812,-27.3376293182,-126.596000671,0.00180500000715,1.0,0.0,0.0,0.0,1.0,0.0,0.0,0.0,1.0,-19.9390239716,13.5975618362,-2.07317066193,1.0,0.0,0.0,0.0,1.0,0.0,0.0,0.0,1.0,0.569819995117,-5.32949289551,9.67257470703,1.0,0.0,0.0,0.0,1.0,0.0,0.0,0.0,1.0
1463994878511554109,405,1463994878238033922,,3.86254715919,-27.7561016083,-126.804092407,0.00232600001618,1.0,0.0,0.0,0.0,1.0,0.0,0.0,0.0,1.0,-15.6707315445,17.134147644,-2.01219511032,1.0,0.0,0.0,0.0,1.0,0.0,0.0,0.0,1.0,-0.138863696289,-4.87459458008,9.20809958496,1.0,0.0,0.0,0.0,1.0,0.0,0.0,0.0,1.0
1463994878511848119,406,1463994878259339545,,4.08241415024,-28.0847263336,-127.056640625,0.00303700007498,1.0,0.0,0.0,0.0,1.0,0.0,0.0,0.0,1.0,-16.5243911743,16.0975608826,-3.47560977936,1.0,0.0,0.0,0.0,1.0,0.0,0.0,0.0,1.0,0.100556469727,-4.60165559082,8.88248815918,1.0,0.0,0.0,0.0,1.0,0.0,0.0,0.0,1.0
1463994878512124576,407,1463994878283274588,,4.33439016342,-28.5208454132,-127.30355072,0.00486500002444,1.0,0.0,0.0,0.0,1.0,0.0,0.0,0.0,1.0,-19.3902435303,12.5609760284,-2.92682933807,1.0,0.0,0.0,0.0,1.0,0.0,0.0,0.0,1.0,-0.512359155273,-4.5729251709,8.94952580566,1.0,0.0,0.0,0.0,1.0,0.0,0.0,0.0,1.0
1463994878512442336,408,1463994878306893278,,4.49634075165,-28.9540538788,-127.487686157,0.00755200022832,1.0,0.0,0.0,0.0,1.0,0.0,0.0,0.0,1.0,-19.7560977936,9.69512176514,-2.25609779358,1.0,0.0,0.0,0.0,1.0,0.0,0.0,0.0,1.0,-0.129286889648,-4.78361520925,8.67658681641,1.0,0.0,0.0,0.0,1.0,0.0,0.0,0.0,1.0
1463994878512732491,409,1463994878327484735,,4.65456008911,-29.3818626404,-127.645431519,0.00345700001344,1.0,0.0,0.0,0.0,1.0,0.0,0.0,0.0,1.0,-18.2317085266,14.0243902206,0.426829278469,1.0,0.0,0.0,0.0,1.0,0.0,0.0,0.0,1.0,-0.215478149414,-4.98951625977,8.74841286621,1.0,0.0,0.0,0.0,1.0,0.0,0.0,0.0,1.0
1463994878513047438,410,1463994878347755829,,4.94796991348,-29.7142772675,-127.810661316,0.00341499992646,1.0,0.0,0.0,0.0,1.0,0.0,0.0,0.0,1.0,-14.6951217651,16.2195110321,0.12195122242,1.0,0.0,0.0,0.0,1.0,0.0,0.0,0.0,1.0,-0.708683691406,-4.97036264648,8.43237766255,1.0,0.0,0.0,0.0,1.0,0.0,0.0,0.0,1.0
1463994878513306448,411,1463994878369079785,,5.16216468811,-30.0498027802,-128.03062439,0.00177099998109,1.0,0.0,0.0,0.0,1.0,0.0,0.0,0.0,1.0,-13.5975618362,12.9878053665,-4.2682929039,1.0,0.0,0.0,0.0,1.0,0.0,0.0,0.0,1.0,-0.426167895508,-5.06613071289,8.70052883301,1.0,0.0,0.0,0.0,1.0,0.0,0.0,0.0,1.0
1463994878513577437,412,1463994878389375671,,5.30776977539,-30.3446559906,-128.287155151,0.0019349999493,1.0,0.0,0.0,0.0,1.0,0.0,0.0,0.0,1.0,-11.5243911743,13.9634151459,-6.21951246262,1.0,0.0,0.0,0.0,1.0,0.0,0.0,0.0,1.0,-0.488417138672,-5.1618987793,8.63828017437,1.0,0.0,0.0,0.0,1.0,0.0,0.0,0.0,1.0
1463994878513946863,413,1463994878409640098,,5.46590852737,-30.6317386627,-128.587692261,0.00114800001029,1.0,0.0,0.0,0.0,1.0,0.0,0.0,0.0,1.0,-11.5243911743,14.6951217651,-7.80487823486,1.0,0.0,0.0,0.0,1.0,0.0,0.0,0.0,1.0,-0.502782348633,-5.35822331543,8.70052883301,1.0,0.0,0.0,0.0,1.0,0.0,0.0,0.0,1.0
1463994878514381498,414,1463994878431065721,,5.64309740067,-30.9083156586,-128.943603516,0.0012309999438,1.0,0.0,0.0,0.0,1.0,0.0,0.0,0.0,1.0,-9.32926845551,15.9146347046,-9.14634132385,1.0,0.0,0.0,0.0,1.0,0.0,0.0,0.0,1.0,-0.45489831543,-5.26245524902,8.51857009136,1.0,0.0,0.0,0.0,1.0,0.0,0.0,0.0,1.0
1463994878514735455,415,1463994878452828426,,5.81647253036,-31.1529331207,-129.326049805,0.00161000003573,1.0,0.0,0.0,0.0,1.0,0.0,0.0,0.0,1.0,-8.41463470459,16.0365848541,-9.5731716156,1.0,0.0,0.0,0.0,1.0,0.0,0.0,0.0,1.0,-0.536301208408,-5.30076247559,8.38928203267,1.0,0.0,0.0,0.0,1.0,0.0,0.0,0.0,1.0
1463994878515058371,416,1463994878474097330,,5.99440383911,-31.350938797,-129.693115234,0.00122400000691,1.0,0.0,0.0,0.0,1.0,0.0,0.0,0.0,1.0,-6.34146356583,15.9146347046,-8.78048801422,1.0,0.0,0.0,0.0,1.0,0.0,0.0,0.0,1.0,-0.699106884766,-5.11880314941,8.76756647949,1.0,0.0,0.0,0.0,1.0,0.0,0.0,0.0,1.0
1463994878515381807,417,1463994878495895763,,6.15852022171,-31.509853363,-130.05770874,0.00215100008063,1.0,0.0,0.0,0.0,1.0,0.0,0.0,0.0,1.0,-6.0365858078,12.7439022064,-8.78048801422,1.0,0.0,0.0,0.0,1.0,0.0,0.0,0.0,1.0,-0.579396801758,-5.28639726562,8.53772370464,1.0,0.0,0.0,0.0,1.0,0.0,0.0,0.0,1.0
1463994878561123670,418,1463994878517143313,,6.2903637886,-31.6939296722,-130.450790405,0.00213699997403,1.0,0.0,0.0,0.0,1.0,0.0,0.0,0.0,1.0,-6.82926845551,16.6463413239,-11.341463089,1.0,0.0,0.0,0.0,1.0,0.0,0.0,0.0,1.0,-0.392649072266,-5.40131894531,8.61433815776,1.0,0.0,0.0,0.0,1.0,0.0,0.0,0.0,1.0
1463994878561404554,419,1463994878539414402,,6.41391277313,-31.8739700317,-130.906845093,0.00180099997669,1.0,0.0,0.0,0.0,1.0,0.0,0.0,0.0,1.0,-5.30487823486,17.6829280853,-13.048781395,1.0,0.0,0.0,0.0,1.0,0.0,0.0,0.0,1.0,-0.699106884766,-5.1618987793,8.65264538433,1.0,0.0,0.0,0.0,1.0,0.0,0.0,0.0,1.0
1463994878592440673,420,1463994878559978464,,6.54835700989,-31.9952430725,-131.349914551,0.00256199995056,1.0,0.0,0.0,0.0,1.0,0.0,0.0,0.0,1.0,-4.02439022064,16.0975608826,-13.3536586761,1.0,0.0,0.0,0.0,1.0,0.0,0.0,0.0,1.0,-0.536301208408,-5.05655390625,8.44195446919,1.0,0.0,0.0,0.0,1.0,0.0,0.0,0.0,1.0
1463994878592755308,421,1463994878581207629,,6.63583135605,-32.1104164124,-131.777389526,0.00186499999836,1.0,0.0,0.0,0.0,1.0,0.0,0.0,0.0,1.0,-5.30487823486,15.6097564697,-11.7073173523,1.0,0.0,0.0,0.0,1.0,0.0,0.0,0.0,1.0,-0.411802685547,-5.23851323242,8.60476135112,1.0,0.0,0.0,0.0,1.0,0.0,0.0,0.0,1.0
1463994878643216377,422,1463994878601572369,,6.74646568298,-32.2511482239,-132.157516479,0.00113700004295,1.0,0.0,0.0,0.0,1.0,0.0,0.0,0.0,1.0,-4.39024400711,15.4268302917,-10.4878053665,1.0,0.0,0.0,0.0,1.0,0.0,0.0,0.0,1.0,-0.809240161133,-5.33906970215,8.42758925923,1.0,0.0,0.0,0.0,1.0,0.0,0.0,0.0,1.0
1463994878643808250,423,1463994878623827312,,6.87610387802,-32.3800697327,-132.551574707,0.00188700004946,1.0,0.0,0.0,0.0,1.0,0.0,0.0,0.0,1.0,-2.86585378647,13.4756097794,-10.0609760284,1.0,0.0,0.0,0.0,1.0,0.0,0.0,0.0,1.0,-0.694318481445,-5.37258852539,8.46110808247,1.0,0.0,0.0,0.0,1.0,0.0,0.0,0.0,1.0
1463994878696769000,424,1463994878644887050,,6.96255397797,-32.4231414795,-132.874801636,0.00114800001029,1.0,0.0,0.0,0.0,1.0,0.0,0.0,0.0,1.0,-1.2195122242,11.2804880142,-8.65853691101,1.0,0.0,0.0,0.0,1.0,0.0,0.0,0.0,1.0,-0.713472094727,-5.02782348633,8.40843564595,1.0,0.0,0.0,0.0,1.0,0.0,0.0,0.0,1.0
1463994878700111231,425,1463994878665761840,,6.99970388412,-32.472240448,-133.164810181,0.00126000004821,1.0,0.0,0.0,0.0,1.0,0.0,0.0,0.0,1.0,-1.70731711388,8.96341514587,-8.10975551605,1.0,0.0,0.0,0.0,1.0,0.0,0.0,0.0,1.0,-0.46447512207,-5.40131894531,8.60476135112,1.0,0.0,0.0,0.0,1.0,0.0,0.0,0.0,1.0
1463994878700538053,426,1463994878686442308,,7.0262298584,-32.5513114929,-133.416168213,0.00165400002152,1.0,0.0,0.0,0.0,1.0,0.0,0.0,0.0,1.0,-2.31707310677,9.02439117432,-6.34146356583,1.0,0.0,0.0,0.0,1.0,0.0,0.0,0.0,1.0,-0.569819995117,-5.53539423828,8.47547329243,1.0,0.0,0.0,0.0,1.0,0.0,0.0,0.0,1.0
1463994878763021696,427,1463994878707784128,,7.07203817368,-32.6114120483,-133.627944946,0.00115499994718,1.0,0.0,0.0,0.0,1.0,0.0,0.0,0.0,1.0,-2.31707310677,6.82926845551,-4.39024400711,1.0,0.0,0.0,0.0,1.0,0.0,0.0,0.0,1.0,-0.603338854892,-5.32470449219,8.5520889146,1.0,0.0,0.0,0.0,1.0,0.0,0.0,0.0,1.0
1463994878767709340,428,1463994878728898970,,7.10853338242,-32.6501808167,-133.758056641,0.00129399995785,1.0,0.0,0.0,0.0,1.0,0.0,0.0,0.0,1.0,-3.84146332741,5.12195110321,-0.731707334518,1.0,0.0,0.0,0.0,1.0,0.0,0.0,0.0,1.0,-0.584185168546,-5.21935961914,8.71968244629,1.0,0.0,0.0,0.0,1.0,0.0,0.0,0.0,1.0
1463994878769200586,429,1463994878749454334,,7.15563821793,-32.6966972351,-133.823516846,0.00254400004633,1.0,0.0,0.0,0.0,1.0,0.0,0.0,0.0,1.0,-4.02439022064,3.47560977936,0.0609756112099,1.0,0.0,0.0,0.0,1.0,0.0,0.0,0.0,1.0,-0.622492431641,-5.22893642578,8.5760309312,1.0,0.0,0.0,0.0,1.0,0.0,0.0,0.0,1.0
1463994878795900258,430,1463994878771186935,,7.15217161179,-32.781829834,-133.874252319,0.00132499996107,1.0,0.0,0.0,0.0,1.0,0.0,0.0,0.0,1.0,-4.93902444839,2.86585378647,0.12195122242,1.0,0.0,0.0,0.0,1.0,0.0,0.0,0.0,1.0,-0.574608398438,-5.37737692871,8.5520889146,1.0,0.0,0.0,0.0,1.0,0.0,0.0,0.0,1.0
1463994878797215723,431,1463994878793434743,,7.16918802261,-32.8466720581,-133.916473389,0.00118300004397,1.0,0.0,0.0,0.0,1.0,0.0,0.0,0.0,1.0,-4.69512224197,2.68292689323,0.975609779358,1.0,0.0,0.0,0.0,1.0,0.0,0.0,0.0,1.0,-0.60812722168,-5.02303508301,8.5760309312,1.0,0.0,0.0,0.0,1.0,0.0,0.0,0.0,1.0
1463994878827152834,432,1463994878813982503,,7.19742870331,-32.9122619629,-133.937988281,0.00140700000338,1.0,0.0,0.0,0.0,1.0,0.0,0.0,0.0,1.0,-5.12195110321,2.37804889679,1.46341466904,1.0,0.0,0.0,0.0,1.0,0.0,0.0,0.0,1.0,-0.718260498047,-5.17626398926,8.4802628648,1.0,0.0,0.0,0.0,1.0,0.0,0.0,0.0,1.0
1463994878860052489,433,1463994878835819791,,7.21267175674,-32.972984314,-133.935745239,0.00144400005229,1.0,0.0,0.0,0.0,1.0,0.0,0.0,0.0,1.0,-5.36585378647,2.43902444839,3.29268312454,1.0,0.0,0.0,0.0,1.0,0.0,0.0,0.0,1.0,-0.61770402832,-5.02303508301,8.68137521973,1.0,0.0,0.0,0.0,1.0,0.0,0.0,0.0,1.0
1463994878861390663,434,1463994878856473436,,7.24591159821,-33.0485229492,-133.92288208,0.00161299994215,1.0,0.0,0.0,0.0,1.0,0.0,0.0,0.0,1.0,-5.85365867615,2.07317066193,3.17073178291,1.0,0.0,0.0,0.0,1.0,0.0,0.0,0.0,1.0,-0.622492431641,-5.30555087891,8.49941647808,1.0,0.0,0.0,0.0,1.0,0.0,0.0,0.0,1.0
1463994878888094553,435,1463994878877297966,,7.28407096863,-33.1448440552,-133.906738281,0.00131500000134,1.0,0.0,0.0,0.0,1.0,0.0,0.0,0.0,1.0,-5.91463422775,2.07317066193,3.59756112099,1.0,0.0,0.0,0.0,1.0,0.0,0.0,0.0,1.0,-0.598550451572,-5.30555087891,8.46110808247,1.0,0.0,0.0,0.0,1.0,0.0,0.0,0.0,1.0
1463994878907312837,436,1463994878898393329,,7.31736135483,-33.2374534607,-133.87663269,0.0012529999949,1.0,0.0,0.0,0.0,1.0,0.0,0.0,0.0,1.0,-6.28048801422,2.01219511032,4.45121955872,1.0,0.0,0.0,0.0,1.0,0.0,0.0,0.0,1.0,-0.646434448242,-5.38695373535,8.26957253418,1.0,0.0,0.0,0.0,1.0,0.0,0.0,0.0,1.0
1463994878932726210,437,1463994878919343067,,7.35897445679,-33.339717865,-133.847396851,0.00126900000032,1.0,0.0,0.0,0.0,1.0,0.0,0.0,0.0,1.0,-4.20731735229,0.487804889679,3.10975623131,1.0,0.0,0.0,0.0,1.0,0.0,0.0,0.0,1.0,-0.837970581055,-5.59764348145,8.57124252788,1.0,0.0,0.0,0.0,1.0,0.0,0.0,0.0,1.0
1463994878950682206,438,1463994878940668950,,7.38189888,-33.3845710754,-133.82131958,0.00161299994215,1.0,0.0,0.0,0.0,1.0,0.0,0.0,0.0,1.0,-1.2195122242,0.792682945728,3.04878044128,1.0,0.0,0.0,0.0,1.0,0.0,0.0,0.0,1.0,-0.77093293457,-5.43483776855,8.3030907729,1.0,0.0,0.0,0.0,1.0,0.0,0.0,0.0,1.0
1463994878975400945,439,1463994878961268689,,7.39079666138,-33.3816757202,-133.788848877,0.00121999997646,1.0,0.0,0.0,0.0,1.0,0.0,0.0,0.0,1.0,-0.304878056049,-2.37804889679,3.53658556938,1.0,0.0,0.0,0.0,1.0,0.0,0.0,0.0,1.0,-0.670376464844,-5.56891306152,7.95832631836,1.0,0.0,0.0,0.0,1.0,0.0,0.0,0.0,1.0
1463994878988502370,440,1463994878981704054,,7.40172338486,-33.3773002625,-133.758331299,0.00128700002097,1.0,0.0,0.0,0.0,1.0,0.0,0.0,0.0,1.0,-1.09756100178,0.426829278469,3.35365867615,1.0,0.0,0.0,0.0,1.0,0.0,0.0,0.0,1.0,-0.718260498047,-5.70298835449,8.41322404927,1.0,0.0,0.0,0.0,1.0,0.0,0.0,0.0,1.0
1463994879015930320,441,1463994879002255460,,7.42641115189,-33.3827285767,-133.727279663,0.0012309999438,1.0,0.0,0.0,0.0,1.0,0.0,0.0,0.0,1.0,0.12195122242,-0.731707334518,3.17073178291,1.0,0.0,0.0,0.0,1.0,0.0,0.0,0.0,1.0,-0.948103857422,-5.5401826416,8.40843564595,1.0,0.0,0.0,0.0,1.0,0.0,0.0,0.0,1.0
1463994879032617934,442,1463994879022760303,,7.42155170441,-33.3695068359,-133.683990479,0.00115799997002,1.0,0.0,0.0,0.0,1.0,0.0,0.0,0.0,1.0,1.2804877758,-1.2804877758,3.35365867615,1.0,0.0,0.0,0.0,1.0,0.0,0.0,0.0,1.0,-0.756567724609,-5.72214196777,8.42758925923,1.0,0.0,0.0,0.0,1.0,0.0,0.0,0.0,1.0
1463994879050650388,443,1463994879043319521,,7.4153213501,-33.3369979858,-133.625976562,0.00145099998917,1.0,0.0,0.0,0.0,1.0,0.0,0.0,0.0,1.0,1.52439022064,-0.670731723309,4.14634132385,1.0,0.0,0.0,0.0,1.0,0.0,0.0,0.0,1.0,-0.76135612793,-5.5401826416,8.40364724263,1.0,0.0,0.0,0.0,1.0,0.0,0.0,0.0,1.0
1463994879068802842,444,1463994879064023218,,7.42259311676,-33.2888832092,-133.570251465,0.00132499996107,1.0,0.0,0.0,0.0,1.0,0.0,0.0,0.0,1.0,2.07317066193,-1.2804877758,3.41463422775,1.0,0.0,0.0,0.0,1.0,0.0,0.0,0.0,1.0,-0.76135612793,-5.48272180176,8.41801245259,1.0,0.0,0.0,0.0,1.0,0.0,0.0,0.0,1.0
1463994879088616020,445,1463994879085283997,,7.38794088364,-33.2279014587,-133.512756348,0.00113300001249,1.0,0.0,0.0,0.0,1.0,0.0,0.0,0.0,1.0,2.37804889679,-1.76829278469,3.53658556938,1.0,0.0,0.0,0.0,1.0,0.0,0.0,0.0,1.0,-0.584185168546,-5.51145222168,8.32224438618,1.0,0.0,0.0,0.0,1.0,0.0,0.0,0.0,1.0
1463994879112023825,446,1463994879105924101,,7.36489963531,-33.1599311829,-133.452392578,0.00142200000118,1.0,0.0,0.0,0.0,1.0,0.0,0.0,0.0,1.0,2.43902444839,-1.52439022064,3.71951246262,1.0,0.0,0.0,0.0,1.0,0.0,0.0,0.0,1.0,-0.818816967773,-5.51145222168,8.46110808247,1.0,0.0,0.0,0.0,1.0,0.0,0.0,0.0,1.0
1463994879135041891,447,1463994879127351702,,7.35848712921,-33.0822296143,-133.382278442,0.00118200003635,1.0,0.0,0.0,0.0,1.0,0.0,0.0,0.0,1.0,3.23170733452,-1.8292683363,3.84146332741,1.0,0.0,0.0,0.0,1.0,0.0,0.0,0.0,1.0,-1.02471831055,-5.24809003906,8.43716606587,1.0,0.0,0.0,0.0,1.0,0.0,0.0,0.0,1.0
1463994879173617470,448,1463994879170872789,,7.32858419418,-32.9825401306,-133.316055298,0.00911200046539,1.0,0.0,0.0,0.0,1.0,0.0,0.0,0.0,1.0,1.8292683363,-1.34146344662,2.68292689323,1.0,0.0,0.0,0.0,1.0,0.0,0.0,0.0,1.0,-0.579396801758,-5.2097828125,8.38928203267,1.0,0.0,0.0,0.0,1.0,0.0,0.0,0.0,1.0
1463994879184016454,449,1463994879181019222,,7.29612874985,-32.907951355,-133.28553772,0.00793499965221,1.0,0.0,0.0,0.0,1.0,0.0,0.0,0.0,1.0,1.70731711388,-0.792682945728,2.01219511032,1.0,0.0,0.0,0.0,1.0,0.0,0.0,0.0,1.0,-0.76135612793,-5.41568415527,8.51378168804,1.0,0.0,0.0,0.0,1.0,0.0,0.0,0.0,1.0
1463994879205509576,450,1463994879201565159,,7.29128789902,-32.8628311157,-133.256637573,0.00120299996343,1.0,0.0,0.0,0.0,1.0,0.0,0.0,0.0,1.0,0.914634168148,-0.365853667259,2.43902444839,1.0,0.0,0.0,0.0,1.0,0.0,0.0,0.0,1.0,-0.833182177734,-5.55454785156,8.38928203267,1.0,0.0,0.0,0.0,1.0,0.0,0.0,0.0,1.0
1463994879250876751,451,1463994879222155054,,7.28310251236,-32.8323402405,-133.234115601,0.00157700001728,1.0,0.0,0.0,0.0,1.0,0.0,0.0,0.0,1.0,1.03658533096,0.12195122242,2.31707310677,1.0,0.0,0.0,0.0,1.0,0.0,0.0,0.0,1.0,-0.660799658203,-5.49708701172,8.51857009136,1.0,0.0,0.0,0.0,1.0,0.0,0.0,0.0,1.0
1463994879251330084,452,1463994879242708283,,7.26712799072,-32.7995567322,-133.22177124,0.00179300003219,1.0,0.0,0.0,0.0,1.0,0.0,0.0,0.0,1.0,0.365853667259,-0.0609756112099,1.70731711388,1.0,0.0,0.0,0.0,1.0,0.0,0.0,0.0,1.0,-0.60812722168,-5.20499440918,8.54251210796,1.0,0.0,0.0,0.0,1.0,0.0,0.0,0.0,1.0
1463994879280642978,453,1463994879264013280,,7.24018716812,-32.7688331604,-133.216400146,0.00134600000456,1.0,0.0,0.0,0.0,1.0,0.0,0.0,0.0,1.0,0.18292683363,0.853658556938,1.8902438879,1.0,0.0,0.0,0.0,1.0,0.0,0.0,0.0,1.0,-0.694318481445,-5.24809003906,8.49941647808,1.0,0.0,0.0,0.0,1.0,0.0,0.0,0.0,1.0
1463994879303695419,454,1463994879284938852,,7.24980783463,-32.7398071289,-133.207000732,0.00133600004483,1.0,0.0,0.0,0.0,1.0,0.0,0.0,0.0,1.0,0.0,0.487804889679,1.8902438879,1.0,0.0,0.0,0.0,1.0,0.0,0.0,0.0,1.0,-0.76614453125,-5.27682045898,8.61433815776,1.0,0.0,0.0,0.0,1.0,0.0,0.0,0.0,1.0
1463994879308895197,455,1463994879305484581,,7.24476242065,-32.7095413208,-133.195083618,0.00125900004059,1.0,0.0,0.0,0.0,1.0,0.0,0.0,0.0,1.0,0.609756112099,0.487804889679,1.8292683363,1.0,0.0,0.0,0.0,1.0,0.0,0.0,0.0,1.0,-0.632069238281,-5.31991608887,8.49941647808,1.0,0.0,0.0,0.0,1.0,0.0,0.0,0.0,1.0
1463994879328589157,456,1463994879326813172,,7.23789024353,-32.6685371399,-133.193252563,0.00148300000001,1.0,0.0,0.0,0.0,1.0,0.0,0.0,0.0,1.0,0.914634168148,0.975609779358,1.46341466904,1.0,0.0,0.0,0.0,1.0,0.0,0.0,0.0,1.0,-0.670376464844,-5.19541760254,8.40364724263,1.0,0.0,0.0,0.0,1.0,0.0,0.0,0.0,1.0
1463994879355423099,457,1463994879348040305,,7.22836065292,-32.6374931335,-133.213043213,0.0014600000577,1.0,0.0,0.0,0.0,1.0,0.0,0.0,0.0,1.0,1.34146344662,0.792682945728,0.0609756112099,1.0,0.0,0.0,0.0,1.0,0.0,0.0,0.0,1.0,-0.646434448242,-5.33906970215,8.43716606587,1.0,0.0,0.0,0.0,1.0,0.0,0.0,0.0,1.0
1463994879371888682,458,1463994879368691086,,7.20315742493,-32.6044082642,-133.246749878,0.00129799998831,1.0,0.0,0.0,0.0,1.0,0.0,0.0,0.0,1.0,1.34146344662,1.2804877758,-0.18292683363,1.0,0.0,0.0,0.0,1.0,0.0,0.0,0.0,1.0,-0.660799658203,-5.33428129883,8.61433815776,1.0,0.0,0.0,0.0,1.0,0.0,0.0,0.0,1.0
1463994879392015037,459,1463994879389520772,,7.18514251709,-32.5728912354,-133.280639648,0.00125900004059,1.0,0.0,0.0,0.0,1.0,0.0,0.0,0.0,1.0,1.09756100178,1.52439022064,0.487804889679,1.0,0.0,0.0,0.0,1.0,0.0,0.0,0.0,1.0,-0.632069238281,-5.37258852539,8.47547329243,1.0,0.0,0.0,0.0,1.0,0.0,0.0,0.0,1.0
1463994879413902273,460,1463994879411303060,,7.1857676506,-32.5386657715,-133.308609009,0.00141000002623,1.0,0.0,0.0,0.0,1.0,0.0,0.0,0.0,1.0,1.03658533096,1.2804877758,0.609756112099,1.0,0.0,0.0,0.0,1.0,0.0,0.0,0.0,1.0,-0.603338854892,-5.43483776855,8.47547329243,1.0,0.0,0.0,0.0,1.0,0.0,0.0,0.0,1.0
1463994879435749925,461,1463994879432887849,,7.16967630386,-32.5051422119,-133.329193115,0.00127699994482,1.0,0.0,0.0,0.0,1.0,0.0,0.0,0.0,1.0,1.03658533096,0.670731723309,0.426829278469,1.0,0.0,0.0,0.0,1.0,0.0,0.0,0.0,1.0,-0.76614453125,-5.31991608887,8.43716606587,1.0,0.0,0.0,0.0,1.0,0.0,0.0,0.0,1.0
1463994879485214226,462,1463994879453781181,,7.13535881042,-32.4823570251,-133.341598511,0.00127400003839,1.0,0.0,0.0,0.0,1.0,0.0,0.0,0.0,1.0,1.40243899822,-0.12195122242,1.09756100178,1.0,0.0,0.0,0.0,1.0,0.0,0.0,0.0,1.0,-0.541089611728,-5.60243188477,8.53772370464,1.0,0.0,0.0,0.0,1.0,0.0,0.0,0.0,1.0
1463994879486326046,463,1463994879474974304,,7.13342237473,-32.4469223022,-133.329788208,0.00159999995958,1.0,0.0,0.0,0.0,1.0,0.0,0.0,0.0,1.0,1.46341466904,0.731707334518,2.62195134163,1.0,0.0,0.0,0.0,1.0,0.0,0.0,0.0,1.0,-0.76614453125,-5.24809003906,8.35576320942,1.0,0.0,0.0,0.0,1.0,0.0,0.0,0.0,1.0
1463994879639653571,464,1463994879496232375,,7.15227127075,-32.4164161682,-133.301177979,0.00153799995314,1.0,0.0,0.0,0.0,1.0,0.0,0.0,0.0,1.0,0.792682945728,-0.365853667259,2.5,1.0,0.0,0.0,0.0,1.0,0.0,0.0,0.0,1.0,-0.76135612793,-5.41089575195,8.48505126812,1.0,0.0,0.0,0.0,1.0,0.0,0.0,0.0,1.0
1463994879639968414,465,1463994879517897736,,7.13632440567,-32.3846321106,-133.267852783,0.00158299994655,1.0,0.0,0.0,0.0,1.0,0.0,0.0,0.0,1.0,1.2195122242,-1.15853655338,2.13414645195,1.0,0.0,0.0,0.0,1.0,0.0,0.0,0.0,1.0,-0.632069238281,-5.2576668457,8.54251210796,1.0,0.0,0.0,0.0,1.0,0.0,0.0,0.0,1.0
1463994879642285075,466,1463994879539588983,,7.10055112839,-32.3267211914,-133.240142822,0.00162500003353,1.0,0.0,0.0,0.0,1.0,0.0,0.0,0.0,1.0,2.37804889679,-1.2804877758,1.64634156227,1.0,0.0,0.0,0.0,1.0,0.0,0.0,0.0,1.0,-0.708683691406,-5.30076247559,8.47068488911,1.0,0.0,0.0,0.0,1.0,0.0,0.0,0.0,1.0
1463994879642688511,467,1463994879561164917,,7.05226182938,-32.2525405884,-133.224395752,0.00132000003941,1.0,0.0,0.0,0.0,1.0,0.0,0.0,0.0,1.0,2.98780488968,-0.670731723309,1.2195122242,1.0,0.0,0.0,0.0,1.0,0.0,0.0,0.0,1.0,-0.569819995117,-5.4444145752,8.53293530132,1.0,0.0,0.0,0.0,1.0,0.0,0.0,0.0,1.0
1463994879644466892,468,1463994879582493613,,7.02200651169,-32.1799545288,-133.225219727,0.00125099997967,1.0,0.0,0.0,0.0,1.0,0.0,0.0,0.0,1.0,2.98780488968,0.18292683363,0.914634168148,1.0,0.0,0.0,0.0,1.0,0.0,0.0,0.0,1.0,-0.612915625,-5.32470449219,8.48983967144,1.0,0.0,0.0,0.0,1.0,0.0,0.0,0.0,1.0
1463994879644846943,469,1463994879603069862,,6.99743700027,-32.1058540344,-133.237808228,0.00156799994875,1.0,0.0,0.0,0.0,1.0,0.0,0.0,0.0,1.0,3.17073178291,0.243902444839,0.426829278469,1.0,0.0,0.0,0.0,1.0,0.0,0.0,0.0,1.0,-0.675164868164,-5.34385810547,8.60476135112,1.0,0.0,0.0,0.0,1.0,0.0,0.0,0.0,1.0
1463994880198223394,470,1463994879623857101,,6.97030687332,-32.0225639343,-133.246810913,0.00131700001657,1.0,0.0,0.0,0.0,1.0,0.0,0.0,0.0,1.0,3.7804877758,-0.304878056049,0.426829278469,1.0,0.0,0.0,0.0,1.0,0.0,0.0,0.0,1.0,-0.579396801758,-5.2576668457,8.69095202637,1.0,0.0,0.0,0.0,1.0,0.0,0.0,0.0,1.0
1463994880198563237,471,1463994879646308398,,6.92826080322,-31.9268455505,-133.250198364,0.0021279999055,1.0,0.0,0.0,0.0,1.0,0.0,0.0,0.0,1.0,3.04878044128,-0.731707334518,0.731707334518,1.0,0.0,0.0,0.0,1.0,0.0,0.0,0.0,1.0,-0.569819995117,-5.2576668457,8.73883605957,1.0,0.0,0.0,0.0,1.0,0.0,0.0,0.0,1.0
1463994880200094223,472,1463994879667010324,,6.87597417831,-31.8332080841,-133.254119873,0.00162700004876,1.0,0.0,0.0,0.0,1.0,0.0,0.0,0.0,1.0,3.65853667259,-0.670731723309,0.548780500889,1.0,0.0,0.0,0.0,1.0,0.0,0.0,0.0,1.0,-0.483628735352,-5.09964953613,8.61433815776,1.0,0.0,0.0,0.0,1.0,0.0,0.0,0.0,1.0
1463994880200425680,473,1463994879687536782,,6.8378071785,-31.7381000519,-133.246398926,0.0012969999807,1.0,0.0,0.0,0.0,1.0,0.0,0.0,0.0,1.0,3.17073178291,-0.365853667259,2.01219511032,1.0,0.0,0.0,0.0,1.0,0.0,0.0,0.0,1.0,-0.555454785156,-5.2097828125,8.63828017437,1.0,0.0,0.0,0.0,1.0,0.0,0.0,0.0,1.0
1463994880200708075,474,1463994879708185583,,6.8181014061,-31.6456317902,-133.221740723,0.0016459999606,1.0,0.0,0.0,0.0,1.0,0.0,0.0,0.0,1.0,2.5,-0.487804889679,2.37804889679,1.0,0.0,0.0,0.0,1.0,0.0,0.0,0.0,1.0,-0.574608398438,-5.17626398926,8.74362446289,1.0,0.0,0.0,0.0,1.0,0.0,0.0,0.0,1.0
1463994880203902911,475,1463994879728713968,,6.79221153259,-31.5702056885,-133.18081665,0.00150799995754,1.0,0.0,0.0,0.0,1.0,0.0,0.0,0.0,1.0,0.792682945728,-0.487804889679,3.04878044128,1.0,0.0,0.0,0.0,1.0,0.0,0.0,0.0,1.0,-0.493205541992,-4.9512090332,8.59518454448,1.0,0.0,0.0,0.0,1.0,0.0,0.0,0.0,1.0
1463994880204363795,476,1463994879749777456,,6.77188587189,-31.5200634003,-133.142837524,0.00155399995856,1.0,0.0,0.0,0.0,1.0,0.0,0.0,0.0,1.0,-0.426829278469,-0.12195122242,2.19512200356,1.0,0.0,0.0,0.0,1.0,0.0,0.0,0.0,1.0,-0.45968671875,-5.08049592285,8.74841286621,1.0,0.0,0.0,0.0,1.0,0.0,0.0,0.0,1.0
1463994880204727440,477,1463994879770597976,,6.74332475662,-31.5236797333,-133.127304077,0.0013190000318,1.0,0.0,0.0,0.0,1.0,0.0,0.0,0.0,1.0,-2.13414645195,0.304878056049,1.58536589146,1.0,0.0,0.0,0.0,1.0,0.0,0.0,0.0,1.0,-0.46447512207,-5.12359155273,8.87769975586,1.0,0.0,0.0,0.0,1.0,0.0,0.0,0.0,1.0
1463994880205011085,478,1463994879791457558,,6.73515605927,-31.5627765656,-133.132568359,0.00134800001979,1.0,0.0,0.0,0.0,1.0,0.0,0.0,0.0,1.0,-3.7804877758,2.62195134163,1.8292683363,1.0,0.0,0.0,0.0,1.0,0.0,0.0,0.0,1.0,-0.507570751953,-4.9751510498,8.60476135112,1.0,0.0,0.0,0.0,1.0,0.0,0.0,0.0,1.0
1463994880205341240,479,1463994879812261151,,6.77270460129,-31.6270503998,-133.148605347,0.00157800002489,1.0,0.0,0.0,0.0,1.0,0.0,0.0,0.0,1.0,-4.63414621353,2.13414645195,1.58536589146,1.0,0.0,0.0,0.0,1.0,0.0,0.0,0.0,1.0,-0.699106884766,-5.20499440918,8.77714328613,1.0,0.0,0.0,0.0,1.0,0.0,0.0,0.0,1.0
1463994880205672021,480,1463994879833257243,,6.79560375214,-31.7061576843,-133.167770386,0.00142999994569,1.0,0.0,0.0,0.0,1.0,0.0,0.0,0.0,1.0,-4.08536577225,2.13414645195,1.34146344662,1.0,0.0,0.0,0.0,1.0,0.0,0.0,0.0,1.0,-0.660799658203,-5.2576668457,8.6239149644,1.0,0.0,0.0,0.0,1.0,0.0,0.0,0.0,1.0
1463994880208912533,481,1463994879855796040,,6.83016490936,-31.7845726013,-133.183898926,0.0015569999814,1.0,0.0,0.0,0.0,1.0,0.0,0.0,0.0,1.0,-3.53658556938,2.13414645195,1.52439022064,1.0,0.0,0.0,0.0,1.0,0.0,0.0,0.0,1.0,-0.718260498047,-5.28639726562,8.54730051128,1.0,0.0,0.0,0.0,1.0,0.0,0.0,0.0,1.0
1463994880209235189,482,1463994879876099373,,6.84294223785,-31.8515415192,-133.200790405,0.00142500002403,1.0,0.0,0.0,0.0,1.0,0.0,0.0,0.0,1.0,-3.04878044128,0.609756112099,1.09756100178,1.0,0.0,0.0,0.0,1.0,0.0,0.0,0.0,1.0,-0.670376464844,-5.35822331543,8.38449362935,1.0,0.0,0.0,0.0,1.0,0.0,0.0,0.0,1.0
1463994880211657631,483,1463994879898313952,,6.83476829529,-31.8961544037,-133.210479736,0.00183399999514,1.0,0.0,0.0,0.0,1.0,0.0,0.0,0.0,1.0,-0.975609779358,1.52439022064,1.8292683363,1.0,0.0,0.0,0.0,1.0,0.0,0.0,0.0,1.0,-0.60812722168,-5.31033928223,8.44195446919,1.0,0.0,0.0,0.0,1.0,0.0,0.0,0.0,1.0
1463994880214488613,484,1463994879919060618,,6.85977458954,-31.9139862061,-133.205459595,0.00169800000731,1.0,0.0,0.0,0.0,1.0,0.0,0.0,0.0,1.0,0.609756112099,1.46341466904,2.37804889679,1.0,0.0,0.0,0.0,1.0,0.0,0.0,0.0,1.0,-0.742202514648,-5.38695373535,8.35576320942,1.0,0.0,0.0,0.0,1.0,0.0,0.0,0.0,1.0
1463994880214812935,485,1463994879939878637,,6.87597513199,-31.9073562622,-133.200531006,0.00173799996264,1.0,0.0,0.0,0.0,1.0,0.0,0.0,0.0,1.0,1.52439022064,0.365853667259,1.46341466904,1.0,0.0,0.0,0.0,1.0,0.0,0.0,0.0,1.0,-0.837970581055,-5.34864650879,8.46110808247,1.0,0.0,0.0,0.0,1.0,0.0,0.0,0.0,1.0
1463994880215101007,486,1463994879960477647,,6.85971403122,-31.8731231689,-133.204574585,0.00160900002811,1.0,0.0,0.0,0.0,1.0,0.0,0.0,0.0,1.0,2.31707310677,-0.18292683363,0.609756112099,1.0,0.0,0.0,0.0,1.0,0.0,0.0,0.0,1.0,-0.651222851562,-5.30555087891,8.43237766255,1.0,0.0,0.0,0.0,1.0,0.0,0.0,0.0,1.0
1463994880215373923,487,1463994879982088061,,6.83310174942,-31.8254299164,-133.215087891,0.00138999999035,1.0,0.0,0.0,0.0,1.0,0.0,0.0,0.0,1.0,2.37804889679,0.853658556938,1.15853655338,1.0,0.0,0.0,0.0,1.0,0.0,0.0,0.0,1.0,-0.622492431641,-5.35822331543,8.46589648579,1.0,0.0,0.0,0.0,1.0,0.0,0.0,0.0,1.0
1463994880216883867,488,1463994880003024518,,6.82761287689,-31.7791118622,-133.234725952,0.0014459999511,1.0,0.0,0.0,0.0,1.0,0.0,0.0,0.0,1.0,2.31707310677,0.914634168148,0.426829278469,1.0,0.0,0.0,0.0,1.0,0.0,0.0,0.0,1.0,-0.646434448242,-5.29597407227,8.63349177105,1.0,0.0,0.0,0.0,1.0,0.0,0.0,0.0,1.0
1463994880217205689,489,1463994880025515189,,6.81749105453,-31.7312297821,-133.266967773,0.00168800004758,1.0,0.0,0.0,0.0,1.0,0.0,0.0,0.0,1.0,1.70731711388,1.46341466904,-0.12195122242,1.0,0.0,0.0,0.0,1.0,0.0,0.0,0.0,1.0,-0.641646044922,-5.19541760254,8.51857009136,1.0,0.0,0.0,0.0,1.0,0.0,0.0,0.0,1.0
1463994880217490116,490,1463994880045996231,,6.80487442017,-31.6936168671,-133.308746338,0.001704000053,1.0,0.0,0.0,0.0,1.0,0.0,0.0,0.0,1.0,1.2804877758,1.34146344662,-0.304878056049,1.0,0.0,0.0,0.0,1.0,0.0,0.0,0.0,1.0,-0.569819995117,-5.21457121582,8.74362446289,1.0,0.0,0.0,0.0,1.0,0.0,0.0,0.0,1.0
1463994880218903654,491,1463994880066743261,,6.792532444,-31.6552448273,-133.354980469,0.00146499997936,1.0,0.0,0.0,0.0,1.0,0.0,0.0,0.0,1.0,2.01219511032,1.40243899822,-0.914634168148,1.0,0.0,0.0,0.0,1.0,0.0,0.0,0.0,1.0,-0.632069238281,-5.2097828125,8.65264538433,1.0,0.0,0.0,0.0,1.0,0.0,0.0,0.0,1.0
1463994880220234744,492,1463994880087390448,,6.76740550995,-31.6123352051,-133.399261475,0.00172399997246,1.0,0.0,0.0,0.0,1.0,0.0,0.0,0.0,1.0,1.2804877758,1.58536589146,-0.670731723309,1.0,0.0,0.0,0.0,1.0,0.0,0.0,0.0,1.0,-0.416591088867,-5.22893642578,8.47547329243,1.0,0.0,0.0,0.0,1.0,0.0,0.0,0.0,1.0
1463994880220538545,493,1463994880108975184,,6.74824094772,-31.5754756927,-133.45652771,0.00157199997921,1.0,0.0,0.0,0.0,1.0,0.0,0.0,0.0,1.0,1.2804877758,1.64634156227,-0.853658556938,1.0,0.0,0.0,0.0,1.0,0.0,0.0,0.0,1.0,-0.541089611728,-5.21935961914,8.5999729478,1.0,0.0,0.0,0.0,1.0,0.0,0.0,0.0,1.0
1463994880220837190,494,1463994880129960756,,6.73435592651,-31.5527935028,-133.509246826,0.00127699994482,1.0,0.0,0.0,0.0,1.0,0.0,0.0,0.0,1.0,0.975609779358,1.40243899822,-0.487804889679,1.0,0.0,0.0,0.0,1.0,0.0,0.0,0.0,1.0,-0.622492431641,-5.35822331543,8.58560773784,1.0,0.0,0.0,0.0,1.0,0.0,0.0,0.0,1.0
1463994880223065258,495,1463994880151380024,,6.73245954514,-31.5315990448,-133.56086731,0.00154600001406,1.0,0.0,0.0,0.0,1.0,0.0,0.0,0.0,1.0,1.40243899822,1.8902438879,-0.365853667259,1.0,0.0,0.0,0.0,1.0,0.0,0.0,0.0,1.0,-0.632069238281,-5.26245524902,8.41801245259,1.0,0.0,0.0,0.0,1.0,0.0,0.0,0.0,1.0
1463994880223402288,496,1463994880173085958,,6.7215924263,-31.4962844849,-133.612045288,0.00167000002693,1.0,0.0,0.0,0.0,1.0,0.0,0.0,0.0,1.0,1.58536589146,0.853658556938,-1.2804877758,1.0,0.0,0.0,0.0,1.0,0.0,0.0,0.0,1.0,-0.531512805087,-5.16668718262,8.60476135112,1.0,0.0,0.0,0.0,1.0,0.0,0.0,0.0,1.0
1463994880227982276,497,1463994880193904603,,6.68607568741,-31.4568958282,-133.651275635,0.00129100005142,1.0,0.0,0.0,0.0,1.0,0.0,0.0,0.0,1.0,1.46341466904,1.40243899822,-0.12195122242,1.0,0.0,0.0,0.0,1.0,0.0,0.0,0.0,1.0,-0.474051928711,-5.1379567627,8.58560773784,1.0,0.0,0.0,0.0,1.0,0.0,0.0,0.0,1.0
1463994880228462952,498,1463994880215343559,,6.67904186249,-31.4242706299,-133.689407349,0.00130500004161,1.0,0.0,0.0,0.0,1.0,0.0,0.0,0.0,1.0,1.09756100178,2.25609779358,0.426829278469,1.0,0.0,0.0,0.0,1.0,0.0,0.0,0.0,1.0,-0.603338854892,-5.31512768555,8.54730051128,1.0,0.0,0.0,0.0,1.0,0.0,0.0,0.0,1.0
1463994880977404424,499,1463994880235828610,,6.68874645233,-31.3958683014,-133.732376099,0.00141300004907,1.0,0.0,0.0,0.0,1.0,0.0,0.0,0.0,1.0,1.03658533096,1.52439022064,-0.731707334518,1.0,0.0,0.0,0.0,1.0,0.0,0.0,0.0,1.0,-0.703895288086,-5.14753356934,8.4802628648,1.0,0.0,0.0,0.0,1.0,0.0,0.0,0.0,1.0
1463994880977727861,500,1463994880256891005,,6.66694164276,-31.3707065582,-133.781188965,0.00157399999443,1.0,0.0,0.0,0.0,1.0,0.0,0.0,0.0,1.0,0.914634168148,1.03658533096,-0.670731723309,1.0,0.0,0.0,0.0,1.0,0.0,0.0,0.0,1.0,-0.521935925381,-5.2337248291,8.58081933452,1.0,0.0,0.0,0.0,1.0,0.0,0.0,0.0,1.0
1463994880978037287,501,1463994880277647254,,6.64380455017,-31.337808609,-133.820419312,0.00133500003722,1.0,0.0,0.0,0.0,1.0,0.0,0.0,0.0,1.0,1.09756100178,1.15853655338,-0.0609756112099,1.0,0.0,0.0,0.0,1.0,0.0,0.0,0.0,1.0,-0.588973571866,-5.15232197266,8.62870336773,1.0,0.0,0.0,0.0,1.0,0.0,0.0,0.0,1.0
1463994880978330464,502,1463994880298655273,,6.63604021072,-31.298210144,-133.84034729,0.00165200000629,1.0,0.0,0.0,0.0,1.0,0.0,0.0,0.0,1.0,1.34146344662,1.09756100178,0.914634168148,1.0,0.0,0.0,0.0,1.0,0.0,0.0,0.0,1.0,-0.569819995117,-5.1618987793,8.63828017437,1.0,0.0,0.0,0.0,1.0,0.0,0.0,0.0,1.0
1463994880979755460,503,1463994880319058137,,6.62751150131,-31.2686805725,-133.853561401,0.00165400002152,1.0,0.0,0.0,0.0,1.0,0.0,0.0,0.0,1.0,0.609756112099,1.52439022064,1.15853655338,1.0,0.0,0.0,0.0,1.0,0.0,0.0,0.0,1.0,-0.488417138672,-5.20020600586,8.60476135112,1.0,0.0,0.0,0.0,1.0,0.0,0.0,0.0,1.0
1463994880980042282,504,1463994880340650947,,6.6266503334,-31.2545471191,-133.87322998,0.00126399996225,1.0,0.0,0.0,0.0,1.0,0.0,0.0,0.0,1.0,0.18292683363,1.09756100178,0.609756112099,1.0,0.0,0.0,0.0,1.0,0.0,0.0,0.0,1.0,-0.627280834961,-5.2097828125,8.64306857769,1.0,0.0,0.0,0.0,1.0,0.0,0.0,0.0,1.0
1463994880980314730,505,1463994880361054593,,6.61821079254,-31.2412223816,-133.891555786,0.00136500003282,1.0,0.0,0.0,0.0,1.0,0.0,0.0,0.0,1.0,0.0,1.09756100178,0.609756112099,1.0,0.0,0.0,0.0,1.0,0.0,0.0,0.0,1.0,-0.603338854892,-5.22414802246,8.74841286621,1.0,0.0,0.0,0.0,1.0,0.0,0.0,0.0,1.0
1463994880981806340,506,1463994880381621207,,6.61612081528,-31.2267932892,-133.898406982,0.00165099999867,1.0,0.0,0.0,0.0,1.0,0.0,0.0,0.0,1.0,-0.243902444839,1.15853655338,1.58536589146,1.0,0.0,0.0,0.0,1.0,0.0,0.0,0.0,1.0,-0.488417138672,-5.14753356934,8.55687731792,1.0,0.0,0.0,0.0,1.0,0.0,0.0,0.0,1.0
1463994880982101496,507,1463994880403088079,,6.60878992081,-31.2218742371,-133.900924683,0.00152100005653,1.0,0.0,0.0,0.0,1.0,0.0,0.0,0.0,1.0,-0.548780500889,0.975609779358,1.15853655338,1.0,0.0,0.0,0.0,1.0,0.0,0.0,0.0,1.0,-0.536301208408,-5.20499440918,8.55687731792,1.0,0.0,0.0,0.0,1.0,0.0,0.0,0.0,1.0
1463994880986279298,508,1463994880424857034,,6.5979552269,-31.2412719727,-133.913757324,0.00171800004318,1.0,0.0,0.0,0.0,1.0,0.0,0.0,0.0,1.0,-0.731707334518,1.2804877758,1.09756100178,1.0,0.0,0.0,0.0,1.0,0.0,0.0,0.0,1.0,-0.593762048251,-5.2576668457,8.5760309312,1.0,0.0,0.0,0.0,1.0,0.0,0.0,0.0,1.0
1463994880986623568,509,1463994880445538023,,6.61353731155,-31.249414444,-133.922637939,0.00160700001288,1.0,0.0,0.0,0.0,1.0,0.0,0.0,0.0,1.0,-0.365853667259,1.8902438879,1.76829278469,1.0,0.0,0.0,0.0,1.0,0.0,0.0,0.0,1.0,-0.675164868164,-5.10443793945,8.46589648579,1.0,0.0,0.0,0.0,1.0,0.0,0.0,0.0,1.0
1463994880986917317,510,1463994880466594323,,6.63450956345,-31.248052597,-133.930023193,0.00191899994388,1.0,0.0,0.0,0.0,1.0,0.0,0.0,0.0,1.0,0.0,1.40243899822,1.40243899822,1.0,0.0,0.0,0.0,1.0,0.0,0.0,0.0,1.0,-0.598550451572,-5.29597407227,8.64306857769,1.0,0.0,0.0,0.0,1.0,0.0,0.0,0.0,1.0
1463994880987173879,511,1463994880487262604,,6.62956237793,-31.2453804016,-133.94619751,0.00164399994537,1.0,0.0,0.0,0.0,1.0,0.0,0.0,0.0,1.0,0.0609756112099,0.609756112099,0.365853667259,1.0,0.0,0.0,0.0,1.0,0.0,0.0,0.0,1.0,-0.407014282227,-5.24809003906,8.5760309312,1.0,0.0,0.0,0.0,1.0,0.0,0.0,0.0,1.0
1463994880987430441,512,1463994880507982967,,6.6055598259,-31.2416973114,-133.970336914,0.00147200003266,1.0,0.0,0.0,0.0,1.0,0.0,0.0,0.0,1.0,0.609756112099,0.731707334518,0.426829278469,1.0,0.0,0.0,0.0,1.0,0.0,0.0,0.0,1.0,-0.565031591797,-5.23851323242,8.63828017437,1.0,0.0,0.0,0.0,1.0,0.0,0.0,0.0,1.0
1463994880987716950,513,1463994880528488592,,6.60380554199,-31.2270889282,-133.994186401,0.001615999965,1.0,0.0,0.0,0.0,1.0,0.0,0.0,0.0,1.0,1.03658533096,1.58536589146,0.670731723309,1.0,0.0,0.0,0.0,1.0,0.0,0.0,0.0,1.0,-0.651222851562,-5.2337248291,8.39407043599,1.0,0.0,0.0,0.0,1.0,0.0,0.0,0.0,1.0
1463994880990589339,514,1463994880550888795,,6.60515165329,-31.1983547211,-134.018203735,0.00220099999569,1.0,0.0,0.0,0.0,1.0,0.0,0.0,0.0,1.0,1.40243899822,0.853658556938,0.304878056049,1.0,0.0,0.0,0.0,1.0,0.0,0.0,0.0,1.0,-0.656011254883,-5.19062919922,8.47068488911,1.0,0.0,0.0,0.0,1.0,0.0,0.0,0.0,1.0
1463994880990893973,515,1463994880572744729,,6.58295202255,-31.1639404297,-134.045471191,0.00135499995667,1.0,0.0,0.0,0.0,1.0,0.0,0.0,0.0,1.0,1.58536589146,0.731707334518,-0.243902444839,1.0,0.0,0.0,0.0,1.0,0.0,0.0,0.0,1.0,-0.536301208408,-5.23851323242,8.6239149644,1.0,0.0,0.0,0.0,1.0,0.0,0.0,0.0,1.0
1463994880991215639,516,1463994880593411395,,6.55804252625,-31.1355609894,-134.08140564,0.00155199994333,1.0,0.0,0.0,0.0,1.0,0.0,0.0,0.0,1.0,1.15853655338,1.09756100178,-0.487804889679,1.0,0.0,0.0,0.0,1.0,0.0,0.0,0.0,1.0,-0.541089611728,-5.24809003906,8.62870336773,1.0,0.0,0.0,0.0,1.0,0.0,0.0,0.0,1.0
1463994880991520118,517,1463994880615741025,,6.54826021194,-31.106300354,-134.120407104,0.0014009999577,1.0,0.0,0.0,0.0,1.0,0.0,0.0,0.0,1.0,1.46341466904,1.15853655338,-0.18292683363,1.0,0.0,0.0,0.0,1.0,0.0,0.0,0.0,1.0,-0.603338854892,-5.1618987793,8.43716606587,1.0,0.0,0.0,0.0,1.0,0.0,0.0,0.0,1.0
1463994880994068132,518,1463994880636308577,,6.52897453308,-31.066034317,-134.156768799,0.00128800002858,1.0,0.0,0.0,0.0,1.0,0.0,0.0,0.0,1.0,1.52439022064,0.609756112099,-0.548780500889,1.0,0.0,0.0,0.0,1.0,0.0,0.0,0.0,1.0,-0.531512805087,-5.15232197266,8.69574042969,1.0,0.0,0.0,0.0,1.0,0.0,0.0,0.0,1.0
1463994880994837036,519,1463994880657662168,,6.49179172516,-31.0215644836,-134.186279297,0.00130999996327,1.0,0.0,0.0,0.0,1.0,0.0,0.0,0.0,1.0,1.34146344662,0.975609779358,0.243902444839,1.0,0.0,0.0,0.0,1.0,0.0,0.0,0.0,1.0,-0.478840332031,-5.07570751953,8.73404765625,1.0,0.0,0.0,0.0,1.0,0.0,0.0,0.0,1.0
1463994880995204275,520,1463994880678386542,,6.48099088669,-30.979101181,-134.206878662,0.0017490000464,1.0,0.0,0.0,0.0,1.0,0.0,0.0,0.0,1.0,1.46341466904,1.40243899822,0.670731723309,1.0,0.0,0.0,0.0,1.0,0.0,0.0,0.0,1.0,-0.536301208408,-5.10922634277,8.5760309312,1.0,0.0,0.0,0.0,1.0,0.0,0.0,0.0,1.0
1463994880997917289,521,1463994880700298674,,6.46892690659,-30.9469261169,-134.231185913,0.0013190000318,1.0,0.0,0.0,0.0,1.0,0.0,0.0,0.0,1.0,1.03658533096,0.914634168148,0.365853667259,1.0,0.0,0.0,0.0,1.0,0.0,0.0,0.0,1.0,-0.474051928711,-5.2097828125,8.65743378765,1.0,0.0,0.0,0.0,1.0,0.0,0.0,0.0,1.0
1463994880998243382,522,1463994880726659596,,6.44797611237,-30.912361145,-134.262359619,0.00618600007147,1.0,0.0,0.0,0.0,1.0,0.0,0.0,0.0,1.0,0.853658556938,1.34146344662,0.487804889679,1.0,0.0,0.0,0.0,1.0,0.0,0.0,0.0,1.0,-0.584185168546,-5.04697709961,8.61912656108,1.0,0.0,0.0,0.0,1.0,0.0,0.0,0.0,1.0
1463994880998533798,523,1463994880747736990,,6.44426584244,-30.8914203644,-134.280456543,0.00171400001273,1.0,0.0,0.0,0.0,1.0,0.0,0.0,0.0,1.0,0.792682945728,1.03658533096,1.03658533096,1.0,0.0,0.0,0.0,1.0,0.0,0.0,0.0,1.0,-0.598550451572,-5.12837995605,8.58081933452,1.0,0.0,0.0,0.0,1.0,0.0,0.0,0.0,1.0
1463994880998857495,524,1463994880769220269,,6.43672418594,-30.8733062744,-134.297027588,0.00128800002858,1.0,0.0,0.0,0.0,1.0,0.0,0.0,0.0,1.0,0.426829278469,0.304878056049,0.426829278469,1.0,0.0,0.0,0.0,1.0,0.0,0.0,0.0,1.0,-0.469263525391,-5.19062919922,8.65743378765,1.0,0.0,0.0,0.0,1.0,0.0,0.0,0.0,1.0
1463994881000984521,525,1463994880790169955,,6.41658115387,-30.852186203,-134.316329956,0.00127300003078,1.0,0.0,0.0,0.0,1.0,0.0,0.0,0.0,1.0,0.609756112099,1.03658533096,0.731707334518,1.0,0.0,0.0,0.0,1.0,0.0,0.0,0.0,1.0,-0.497993945312,-5.00388146973,8.56166572124,1.0,0.0,0.0,0.0,1.0,0.0,0.0,0.0,1.0
1463994881001335249,526,1463994880811389640,,6.40467977524,-30.8257522583,-134.337402344,0.00163499999326,1.0,0.0,0.0,0.0,1.0,0.0,0.0,0.0,1.0,0.12195122242,1.34146344662,0.853658556938,1.0,0.0,0.0,0.0,1.0,0.0,0.0,0.0,1.0,-0.536301208408,-5.08049592285,8.67658681641,1.0,0.0,0.0,0.0,1.0,0.0,0.0,0.0,1.0
1463994881001625613,527,1463994880832137191,,6.4062333107,-30.8170471191,-134.355712891,0.00126199994702,1.0,0.0,0.0,0.0,1.0,0.0,0.0,0.0,1.0,0.243902444839,1.70731711388,1.34146344662,1.0,0.0,0.0,0.0,1.0,0.0,0.0,0.0,1.0,-0.588973571866,-5.25287844238,8.58081933452,1.0,0.0,0.0,0.0,1.0,0.0,0.0,0.0,1.0
1463994881001898737,528,1463994880852947294,,6.41486978531,-30.8081016541,-134.382324219,0.00139800005127,1.0,0.0,0.0,0.0,1.0,0.0,0.0,0.0,1.0,0.304878056049,1.40243899822,0.18292683363,1.0,0.0,0.0,0.0,1.0,0.0,0.0,0.0,1.0,-0.584185168546,-5.14753356934,8.62870336773,1.0,0.0,0.0,0.0,1.0,0.0,0.0,0.0,1.0
1463994881004007898,529,1463994880873548648,,6.38844156265,-30.8013916016,-134.41355896,0.00162899994757,1.0,0.0,0.0,0.0,1.0,0.0,0.0,0.0,1.0,0.18292683363,1.15853655338,-0.0609756112099,1.0,0.0,0.0,0.0,1.0,0.0,0.0,0.0,1.0,-0.426167895508,-5.20499440918,8.54730051128,1.0,0.0,0.0,0.0,1.0,0.0,0.0,0.0,1.0
1463994881004488209,530,1463994880894123960,,6.3851518631,-30.7934951782,-134.438964844,0.00167799997143,1.0,0.0,0.0,0.0,1.0,0.0,0.0,0.0,1.0,0.12195122242,2.01219511032,1.03658533096,1.0,0.0,0.0,0.0,1.0,0.0,0.0,0.0,1.0,-0.478840332031,-5.1858407959,8.63828017437,1.0,0.0,0.0,0.0,1.0,0.0,0.0,0.0,1.0
1463994881006674037,531,1463994880915186875,,6.39816141129,-30.786605835,-134.46144104,0.0012969999807,1.0,0.0,0.0,0.0,1.0,0.0,0.0,0.0,1.0,0.18292683363,1.58536589146,0.731707334518,1.0,0.0,0.0,0.0,1.0,0.0,0.0,0.0,1.0,-0.612915625,-5.15232197266,8.69095202637,1.0,0.0,0.0,0.0,1.0,0.0,0.0,0.0,1.0
1463994881007015234,532,1463994880935670625,,6.3913025856,-30.7756710052,-134.488937378,0.00173500005621,1.0,0.0,0.0,0.0,1.0,0.0,0.0,0.0,1.0,0.365853667259,1.03658533096,0.12195122242,1.0,0.0,0.0,0.0,1.0,0.0,0.0,0.0,1.0,-0.622492431641,-5.14753356934,8.62870336773,1.0,0.0,0.0,0.0,1.0,0.0,0.0,0.0,1.0
1463994881007282734,533,1463994880957984370,,6.37828826904,-30.758140564,-134.515411377,0.00170599995181,1.0,0.0,0.0,0.0,1.0,0.0,0.0,0.0,1.0,0.365853667259,1.34146344662,0.670731723309,1.0,0.0,0.0,0.0,1.0,0.0,0.0,0.0,1.0,-0.588973571866,-5.13316835937,8.64785698101,1.0,0.0,0.0,0.0,1.0,0.0,0.0,0.0,1.0
1463994881007567056,534,1463994880978534578,,6.37867212296,-30.753484726,-134.541305542,0.00177600001916,1.0,0.0,0.0,0.0,1.0,0.0,0.0,0.0,1.0,0.18292683363,1.2804877758,0.731707334518,1.0,0.0,0.0,0.0,1.0,0.0,0.0,0.0,1.0,-0.593762048251,-5.19062919922,8.5520889146,1.0,0.0,0.0,0.0,1.0,0.0,0.0,0.0,1.0
1463994882396898403,535,1463994881000430720,,6.37496328354,-30.7530460358,-134.570205688,0.00160499999765,1.0,0.0,0.0,0.0,1.0,0.0,0.0,0.0,1.0,0.365853667259,0.975609779358,0.365853667259,1.0,0.0,0.0,0.0,1.0,0.0,0.0,0.0,1.0,-0.703895288086,-5.2337248291,8.69095202637,1.0,0.0,0.0,0.0,1.0,0.0,0.0,0.0,1.0
1463994882396932101,536,1463994881022344726,,6.36575269699,-30.7354946136,-134.596313477,0.00161699997261,1.0,0.0,0.0,0.0,1.0,0.0,0.0,0.0,1.0,0.914634168148,1.09756100178,0.548780500889,1.0,0.0,0.0,0.0,1.0,0.0,0.0,0.0,1.0,-0.541089611728,-5.09964953613,8.64306857769,1.0,0.0,0.0,0.0,1.0,0.0,0.0,0.0,1.0
1463994882396966892,537,1463994881044426701,,6.35268831253,-30.7070865631,-134.618988037,0.00161499995738,1.0,0.0,0.0,0.0,1.0,0.0,0.0,0.0,1.0,1.46341466904,0.792682945728,0.487804889679,1.0,0.0,0.0,0.0,1.0,0.0,0.0,0.0,1.0,-0.541089611728,-5.17626398926,8.64306857769,1.0,0.0,0.0,0.0,1.0,0.0,0.0,0.0,1.0
1463994882397022257,538,1463994881065890761,,6.33798742294,-30.6708831787,-134.639572144,0.00126000004821,1.0,0.0,0.0,0.0,1.0,0.0,0.0,0.0,1.0,2.07317066193,0.670731723309,0.18292683363,1.0,0.0,0.0,0.0,1.0,0.0,0.0,0.0,1.0,-0.478840332031,-5.15232197266,8.62870336773,1.0,0.0,0.0,0.0,1.0,0.0,0.0,0.0,1.0
1463994882397061684,539,1463994881085929824,,6.3195066452,-30.6272945404,-134.659866333,0.00160299998242,1.0,0.0,0.0,0.0,1.0,0.0,0.0,0.0,1.0,2.07317066193,0.609756112099,0.548780500889,1.0,0.0,0.0,0.0,1.0,0.0,0.0,0.0,1.0,-0.612915625,-5.14753356934,8.74841286621,1.0,0.0,0.0,0.0,1.0,0.0,0.0,0.0,1.0
1463994882397097777,540,1463994881107140760,,6.29703855515,-30.5778064728,-134.67906189,0.00208900007419,1.0,0.0,0.0,0.0,1.0,0.0,0.0,0.0,1.0,1.95121955872,0.914634168148,0.670731723309,1.0,0.0,0.0,0.0,1.0,0.0,0.0,0.0,1.0,-0.497993945312,-4.98951625977,8.76277807617,1.0,0.0,0.0,0.0,1.0,0.0,0.0,0.0,1.0
1463994882397276527,541,1463994881127940707,,6.28471088409,-30.5370044708,-134.700576782,0.00182699994184,1.0,0.0,0.0,0.0,1.0,0.0,0.0,0.0,1.0,1.40243899822,1.09756100178,0.426829278469,1.0,0.0,0.0,0.0,1.0,0.0,0.0,0.0,1.0,-0.512359155273,-5.11401474609,8.70052883301,1.0,0.0,0.0,0.0,1.0,0.0,0.0,0.0,1.0
1463994882397532308,542,1463994881149273621,,6.32182598114,-30.4158115387,-134.711929321,0.00134099996649,1.0,0.0,0.0,0.0,1.0,0.0,0.0,0.0,1.0,-0.12195122242,0.365853667259,-0.426829278469,1.0,0.0,0.0,0.0,1.0,0.0,0.0,0.0,1.0,-0.579396801758,-2.67671745605,11.4538607422,1.0,0.0,0.0,0.0,1.0,0.0,0.0,0.0,1.0
1463994882397656161,543,1463994881170185911,,6.34317779541,-30.5094509125,-134.77583313,0.00160900002811,1.0,0.0,0.0,0.0,1.0,0.0,0.0,0.0,1.0,-0.243902444839,2.62195134163,1.09756100178,1.0,0.0,0.0,0.0,1.0,0.0,0.0,0.0,1.0,0.172382519531,-6.21534750977,8.08282480469,1.0,0.0,0.0,0.0,1.0,0.0,0.0,0.0,1.0
1463994882407221345,544,1463994881190767421,,6.6325545311,-30.5625305176,-134.80632019,0.00124799995683,1.0,0.0,0.0,0.0,1.0,0.0,0.0,0.0,1.0,7.19512224197,-12.1951217651,-8.59756088257,1.0,0.0,0.0,0.0,1.0,0.0,0.0,0.0,1.0,-3.33272871094,-5.5880666748,3.46201560059,1.0,0.0,0.0,0.0,1.0,0.0,0.0,0.0,1.0
1463994882407364887,545,1463994881211659607,,6.24951314926,-30.4940547943,-134.864059448,0.00129299995024,1.0,0.0,0.0,0.0,1.0,0.0,0.0,0.0,1.0,9.51219558716,3.10975623131,-3.41463422775,1.0,0.0,0.0,0.0,1.0,0.0,0.0,0.0,1.0,-0.598550451572,-5.68862314453,9.1219083252,1.0,0.0,0.0,0.0,1.0,0.0,0.0,0.0,1.0
1463994882407416709,546,1463994881232455023,,6.26069831848,-30.3603744507,-134.87121582,0.00167699996382,1.0,0.0,0.0,0.0,1.0,0.0,0.0,0.0,1.0,3.65853667259,0.12195122242,-1.64634156227,1.0,0.0,0.0,0.0,1.0,0.0,0.0,0.0,1.0,-2.53306535645,-5.43962617188,6.38294162598,1.0,0.0,0.0,0.0,1.0,0.0,0.0,0.0,1.0
1463994882407459730,547,1463994881254421529,,6.2308382988,-30.1652050018,-134.837646484,0.00214600004256,1.0,0.0,0.0,0.0,1.0,0.0,0.0,0.0,1.0,6.0365858078,-6.34146356583,3.10975623131,1.0,0.0,0.0,0.0,1.0,0.0,0.0,0.0,1.0,-1.40779057617,-5.19062919922,9.45230756977,1.0,0.0,0.0,0.0,1.0,0.0,0.0,0.0,1.0
1463994882407497282,548,1463994881275514913,,6.17081260681,-29.9391002655,-134.794723511,0.00161999999546,1.0,0.0,0.0,0.0,1.0,0.0,0.0,0.0,1.0,5.73170757294,-4.08536577225,4.14634132385,1.0,0.0,0.0,0.0,1.0,0.0,0.0,0.0,1.0,1.92972653809,-4.32871689382,9.99339772949,1.0,0.0,0.0,0.0,1.0,0.0,0.0,0.0,1.0
1463994882407540563,549,1463994881297056056,,6.13180303574,-29.7986278534,-134.76789856,0.00146299996413,1.0,0.0,0.0,0.0,1.0,0.0,0.0,0.0,1.0,2.19512200356,-2.56097555161,-1.15853655338,1.0,0.0,0.0,0.0,1.0,0.0,0.0,0.0,1.0,2.30801040039,-5.17626398926,6.65109221191,1.0,0.0,0.0,0.0,1.0,0.0,0.0,0.0,1.0
1463994882407576032,550,1463994881318665063,,5.99660778046,-29.6515026093,-134.745819092,0.00163600000087,1.0,0.0,0.0,0.0,1.0,0.0,0.0,0.0,1.0,4.87804889679,0.304878056049,0.975609779358,1.0,0.0,0.0,0.0,1.0,0.0,0.0,0.0,1.0,-2.12126281703,-5.05655390625,11.2335941895,1.0,0.0,0.0,0.0,1.0,0.0,0.0,0.0,1.0
1463994882407610615,551,1463994881339269490,,5.85700654984,-29.5387229919,-134.699966431,0.00161399994977,1.0,0.0,0.0,0.0,1.0,0.0,0.0,0.0,1.0,6.15853643417,-5.30487823486,5.18292713165,1.0,0.0,0.0,0.0,1.0,0.0,0.0,0.0,1.0,1.90578452148,-3.84029946289,8.54251210796,1.0,0.0,0.0,0.0,1.0,0.0,0.0,0.0,1.0
1463994882407647542,552,1463994881361334798,,5.7680015564,-29.5232257843,-134.658447266,0.00137499999255,1.0,0.0,0.0,0.0,1.0,0.0,0.0,0.0,1.0,4.69512224197,0.0609756112099,1.52439022064,1.0,0.0,0.0,0.0,1.0,0.0,0.0,0.0,1.0,0.138863696289,-4.55855996094,6.65588061523,1.0,0.0,0.0,0.0,1.0,0.0,0.0,0.0,1.0
1463994882407682177,553,1463994881382398130,,5.90379524231,-29.4949932098,-134.648757935,0.00120199995581,1.0,0.0,0.0,0.0,1.0,0.0,0.0,0.0,1.0,6.09756088257,-1.34146344662,0.0609756112099,1.0,0.0,0.0,0.0,1.0,0.0,0.0,0.0,1.0,0.421379492187,-3.59130249023,7.59440766602,1.0,0.0,0.0,0.0,1.0,0.0,0.0,0.0,1.0
1463994882407717177,554,1463994881402641880,,5.81053447723,-29.405790329,-134.624038696,0.00152599997818,1.0,0.0,0.0,0.0,1.0,0.0,0.0,0.0,1.0,2.56097555161,2.98780488968,0.609756112099,1.0,0.0,0.0,0.0,1.0,0.0,0.0,0.0,1.0,2.74375510254,-6.7660138916,10.7068698242,1.0,0.0,0.0,0.0,1.0,0.0,0.0,0.0,1.0
1463994882407753011,555,1463994881424834844,,5.88081979752,-29.3328113556,-134.600265503,0.00147599994671,1.0,0.0,0.0,0.0,1.0,0.0,0.0,0.0,1.0,-5.0,1.8292683363,7.37804937363,1.0,0.0,0.0,0.0,1.0,0.0,0.0,0.0,1.0,1.63763393555,-3.62482131348,6.3877300293,1.0,0.0,0.0,0.0,1.0,0.0,0.0,0.0,1.0
1463994882407789886,556,1463994881445861509,,5.98094701767,-29.4500484467,-134.591918945,0.00184899999294,1.0,0.0,0.0,0.0,1.0,0.0,0.0,0.0,1.0,-6.64634132385,-6.0365858078,2.31707310677,1.0,0.0,0.0,0.0,1.0,0.0,0.0,0.0,1.0,1.57538469238,-7.81946262207,6.85220515137,1.0,0.0,0.0,0.0,1.0,0.0,0.0,0.0,1.0
1463994882407862073,557,1463994881467612079,,5.93083524704,-29.3968524933,-134.609603882,0.00127000000793,1.0,0.0,0.0,0.0,1.0,0.0,0.0,0.0,1.0,2.68292689323,14.5731706619,0.0609756112099,1.0,0.0,0.0,0.0,1.0,0.0,0.0,0.0,1.0,-5.26245524902,-2.56658417969,9.65342167827,1.0,0.0,0.0,0.0,1.0,0.0,0.0,0.0,1.0
1463994882407929781,558,1463994881488855514,,5.92479705811,-29.4619655609,-134.608352661,0.00176300003659,1.0,0.0,0.0,0.0,1.0,0.0,0.0,0.0,1.0,2.37804889679,0.853658556938,0.548780500889,1.0,0.0,0.0,0.0,1.0,0.0,0.0,0.0,1.0,-3.31357509766,-3.12203896484,10.7547538574,1.0,0.0,0.0,0.0,1.0,0.0,0.0,0.0,1.0
1463994882407970875,559,1463994881510677125,,5.90490865707,-29.5300140381,-134.638702393,0.00146399997175,1.0,0.0,0.0,0.0,1.0,0.0,0.0,0.0,1.0,-4.2682929039,3.17073178291,4.81707286835,1.0,0.0,0.0,0.0,1.0,0.0,0.0,0.0,1.0,0.588973571866,-6.82347473145,5.52581743164,1.0,0.0,0.0,0.0,1.0,0.0,0.0,0.0,1.0
1463994882408005354,560,1463994881531347489,,5.93237257004,-29.5124568939,-134.688186646,0.0015269999858,1.0,0.0,0.0,0.0,1.0,0.0,0.0,0.0,1.0,-2.62195134163,-1.70731711388,2.13414645195,1.0,0.0,0.0,0.0,1.0,0.0,0.0,0.0,1.0,-2.15478164027,-2.75333190918,9.05965908203,1.0,0.0,0.0,0.0,1.0,0.0,0.0,0.0,1.0
1463994882408042645,561,1463994881552656913,,5.90649366379,-29.4981784821,-134.685073853,0.00143199996091,1.0,0.0,0.0,0.0,1.0,0.0,0.0,0.0,1.0,-1.03658533096,5.30487823486,-0.365853667259,1.0,0.0,0.0,0.0,1.0,0.0,0.0,0.0,1.0,0.852335791016,-4.46279189453,7.92480749512,1.0,0.0,0.0,0.0,1.0,0.0,0.0,0.0,1.0
1463994882408076812,562,1463994881573545350,,5.84174442291,-29.5104236603,-134.718704224,0.0012300000526,1.0,0.0,0.0,0.0,1.0,0.0,0.0,0.0,1.0,0.18292683363,0.0609756112099,1.76829278469,1.0,0.0,0.0,0.0,1.0,0.0,0.0,0.0,1.0,1.41736738281,-2.06380183105,9.93593688965,1.0,0.0,0.0,0.0,1.0,0.0,0.0,0.0,1.0
1463994882408109468,563,1463994881595712741,,5.86218547821,-29.604385376,-134.75428772,0.00162700004876,1.0,0.0,0.0,0.0,1.0,0.0,0.0,0.0,1.0,5.73170757294,5.12195110321,-4.2682929039,1.0,0.0,0.0,0.0,1.0,0.0,0.0,0.0,1.0,1.79565124512,-3.78283862305,7.50342800293,1.0,0.0,0.0,0.0,1.0,0.0,0.0,0.0,1.0
1463994882408142228,564,1463994881616269511,,5.80539989471,-29.7184085846,-134.82019043,0.00157299998682,1.0,0.0,0.0,0.0,1.0,0.0,0.0,0.0,1.0,9.02439117432,-2.98780488968,0.487804889679,1.0,0.0,0.0,0.0,1.0,0.0,0.0,0.0,1.0,0.742202514648,-3.73974299316,12.2487356934,1.0,0.0,0.0,0.0,1.0,0.0,0.0,0.0,1.0
1463994882408177593,565,1463994881637890758,,5.92809534073,-29.7279129028,-134.878128052,0.00187999999616,1.0,0.0,0.0,0.0,1.0,0.0,0.0,0.0,1.0,4.39024400711,3.53658556938,-1.2195122242,1.0,0.0,0.0,0.0,1.0,0.0,0.0,0.0,1.0,-0.45968671875,-5.85142885742,8.34618640278,1.0,0.0,0.0,0.0,1.0,0.0,0.0,0.0,1.0
1463994882408214155,566,1463994881659363099,,5.87579536438,-29.5919380188,-134.91078186,0.00161899998784,1.0,0.0,0.0,0.0,1.0,0.0,0.0,0.0,1.0,-1.15853655338,-8.10975551605,-5.97560977936,1.0,0.0,0.0,0.0,1.0,0.0,0.0,0.0,1.0,-0.493205541992,-3.52905324707,12.004527124,1.0,0.0,0.0,0.0,1.0,0.0,0.0,0.0,1.0
1463994882408278999,567,1463994881680996794,,5.72543525696,-29.6308841705,-134.91394043,0.00155599997379,1.0,0.0,0.0,0.0,1.0,0.0,0.0,0.0,1.0,1.76829278469,-1.15853655338,-0.548780500889,1.0,0.0,0.0,0.0,1.0,0.0,0.0,0.0,1.0,6.40688364258,-5.2097828125,8.3270327895,1.0,0.0,0.0,0.0,1.0,0.0,0.0,0.0,1.0
1463994882408321238,568,1463994881701824762,,5.75604963303,-29.5060100555,-134.987197876,0.00146800000221,1.0,0.0,0.0,0.0,1.0,0.0,0.0,0.0,1.0,-1.64634156227,15.1829271317,-4.93902444839,1.0,0.0,0.0,0.0,1.0,0.0,0.0,0.0,1.0,0.210689746094,-7.46033237305,7.57525405273,1.0,0.0,0.0,0.0,1.0,0.0,0.0,0.0,1.0
1463994882408356447,569,1463994881723532831,,5.57335519791,-29.4489593506,-134.998168945,0.00165099999867,1.0,0.0,0.0,0.0,1.0,0.0,0.0,0.0,1.0,-4.63414621353,-2.07317066193,0.853658556938,1.0,0.0,0.0,0.0,1.0,0.0,0.0,0.0,1.0,-0.239420166016,-8.82981572266,8.9112185791,1.0,0.0,0.0,0.0,1.0,0.0,0.0,0.0,1.0
1463994882408390144,570,1463994881744392257,,5.56452608109,-29.5143280029,-135.060806274,0.00119700003415,1.0,0.0,0.0,0.0,1.0,0.0,0.0,0.0,1.0,-3.17073178291,-0.731707334518,7.74390268326,1.0,0.0,0.0,0.0,1.0,0.0,0.0,0.0,1.0,2.37983659633,-4.33350529714,11.3006318359,1.0,0.0,0.0,0.0,1.0,0.0,0.0,0.0,1.0
1463994882408424780,571,1463994881765859963,,5.5404586792,-29.5307846069,-135.078887939,0.00161200005095,1.0,0.0,0.0,0.0,1.0,0.0,0.0,0.0,1.0,-3.23170733452,1.46341466904,0.0,1.0,0.0,0.0,0.0,1.0,0.0,0.0,0.0,1.0,3.92649072266,-4.74051957937,7.55131203613,1.0,0.0,0.0,0.0,1.0,0.0,0.0,0.0,1.0
1463994882408458217,572,1463994881786747201,,5.51529216766,-29.5742073059,-135.136199951,0.00150599994231,1.0,0.0,0.0,0.0,1.0,0.0,0.0,0.0,1.0,-6.64634132385,12.1341466904,-5.85365867615,1.0,0.0,0.0,0.0,1.0,0.0,0.0,0.0,1.0,-1.39821376953,-5.70298835449,7.34062229004,1.0,0.0,0.0,0.0,1.0,0.0,0.0,0.0,1.0
1463994882408495457,573,1463994881807748606,,5.52985239029,-29.614736557,-135.17288208,0.00162999995518,1.0,0.0,0.0,0.0,1.0,0.0,0.0,0.0,1.0,5.48780488968,3.96341490746,-3.7804877758,1.0,0.0,0.0,0.0,1.0,0.0,0.0,0.0,1.0,3.18907661133,-1.19710090314,9.47146118306,1.0,0.0,0.0,0.0,1.0,0.0,0.0,0.0,1.0
1463994882408529988,574,1463994881828898552,,5.45387220383,-29.6767921448,-135.222427368,0.00127999996766,1.0,0.0,0.0,0.0,1.0,0.0,0.0,0.0,1.0,2.68292689323,3.59756112099,7.13414621353,1.0,0.0,0.0,0.0,1.0,0.0,0.0,0.0,1.0,-0.981622680664,-2.45645090332,13.8145435791,1.0,0.0,0.0,0.0,1.0,0.0,0.0,0.0,1.0
1463994882408566759,575,1463994881849354124,,5.52686595917,-29.6977024078,-135.231018066,0.0012300000526,1.0,0.0,0.0,0.0,1.0,0.0,0.0,0.0,1.0,-1.15853655338,-2.01219511032,9.14634132385,1.0,0.0,0.0,0.0,1.0,0.0,0.0,0.0,1.0,-3.15076938477,-1.74776721191,12.7467296387,1.0,0.0,0.0,0.0,1.0,0.0,0.0,0.0,1.0
1463994882408602383,576,1463994881870147561,,5.46044778824,-29.8372440338,-135.290496826,0.00121699995361,1.0,0.0,0.0,0.0,1.0,0.0,0.0,0.0,1.0,-1.52439022064,8.5365858078,-3.23170733452,1.0,0.0,0.0,0.0,1.0,0.0,0.0,0.0,1.0,-0.493205541992,-4.14196887207,5.4683565918,1.0,0.0,0.0,0.0,1.0,0.0,0.0,0.0,1.0
1463994882410825659,577,1463994881890957039,,5.45500326157,-29.8224029541,-135.312316895,0.00142700003926,1.0,0.0,0.0,0.0,1.0,0.0,0.0,0.0,1.0,-2.74390244484,2.43902444839,-4.51219558716,1.0,0.0,0.0,0.0,1.0,0.0,0.0,0.0,1.0,-1.98239897461,-0.191536132812,7.4028715332,1.0,0.0,0.0,0.0,1.0,0.0,0.0,0.0,1.0
1463994882410981909,578,1463994881911702351,,5.47320747375,-29.8861522675,-135.340835571,0.00135999999475,1.0,0.0,0.0,0.0,1.0,0.0,0.0,0.0,1.0,2.86585378647,2.37804889679,2.37804889679,1.0,0.0,0.0,0.0,1.0,0.0,0.0,0.0,1.0,-2.9927520752,-3.48595761719,10.1609918457,1.0,0.0,0.0,0.0,1.0,0.0,0.0,0.0,1.0
1463994882411119148,579,1463994881932572193,,5.59968757629,-29.8748817444,-135.401733398,0.00124699994922,1.0,0.0,0.0,0.0,1.0,0.0,0.0,0.0,1.0,2.13414645195,-2.98780488968,-4.39024400711,1.0,0.0,0.0,0.0,1.0,0.0,0.0,0.0,1.0,-2.67192905273,-8.93994899902,8.69574042969,1.0,0.0,0.0,0.0,1.0,0.0,0.0,0.0,1.0
1463994882411262689,580,1463994881953333442,,5.52452802658,-29.7910575867,-135.382766724,0.00116300000809,1.0,0.0,0.0,0.0,1.0,0.0,0.0,0.0,1.0,5.73170757294,0.609756112099,2.62195134163,1.0,0.0,0.0,0.0,1.0,0.0,0.0,0.0,1.0,-0.660799658203,-1.90099611816,13.1633207275,1.0,0.0,0.0,0.0,1.0,0.0,0.0,0.0,1.0
1463994882413899297,581,1463994881974831356,,5.68697547913,-29.8420219421,-135.428314209,0.00124899996445,1.0,0.0,0.0,0.0,1.0,0.0,0.0,0.0,1.0,2.25609779358,10.7926826477,-4.69512224197,1.0,0.0,0.0,0.0,1.0,0.0,0.0,0.0,1.0,-4.09408483887,-3.81635744629,10.6063133545,1.0,0.0,0.0,0.0,1.0,0.0,0.0,0.0,1.0
1463994882419580064,582,1463994881996591405,,5.6717748642,-29.871509552,-135.457839966,0.00177900004201,1.0,0.0,0.0,0.0,1.0,0.0,0.0,0.0,1.0,3.65853667259,-7.98780536652,3.35365867615,1.0,0.0,0.0,0.0,1.0,0.0,0.0,0.0,1.0,4.76924999929,-2.71502468262,12.9334773682,1.0,0.0,0.0,0.0,1.0,0.0,0.0,0.0,1.0
1463994882419653501,583,1463994882017215414,,5.73230743408,-29.9546279907,-135.551773071,0.00188800005708,1.0,0.0,0.0,0.0,1.0,0.0,0.0,0.0,1.0,0.853658556938,0.487804889679,-4.57317066193,1.0,0.0,0.0,0.0,1.0,0.0,0.0,0.0,1.0,1.96324536133,-7.50342800293,8.45153127583,1.0,0.0,0.0,0.0,1.0,0.0,0.0,0.0,1.0
1463994882419697095,584,1463994882037715883,,5.68473958969,-29.8714771271,-135.548919678,0.00208400003612,1.0,0.0,0.0,0.0,1.0,0.0,0.0,0.0,1.0,-1.03658533096,-8.10975551605,2.19512200356,1.0,0.0,0.0,0.0,1.0,0.0,0.0,0.0,1.0,0.134075302102,1.49877023926,12.6270195557,1.0,0.0,0.0,0.0,1.0,0.0,0.0,0.0,1.0
1463994882419765688,585,1463994882059343484,,5.68946647644,-30.034368515,-135.584991455,0.00226400000975,1.0,0.0,0.0,0.0,1.0,0.0,0.0,0.0,1.0,4.14634132385,13.2317075729,-4.81707286835,1.0,0.0,0.0,0.0,1.0,0.0,0.0,0.0,1.0,-3.05978972168,-4.64953933176,6.26801994629,1.0,0.0,0.0,0.0,1.0,0.0,0.0,0.0,1.0
1463994882419811157,586,1463994882080683690,,5.67261648178,-29.9877357483,-135.604019165,0.00149900000542,1.0,0.0,0.0,0.0,1.0,0.0,0.0,0.0,1.0,2.56097555161,3.84146332741,9.87804889679,1.0,0.0,0.0,0.0,1.0,0.0,0.0,0.0,1.0,-2.27449157715,-2.97359846191,12.6892687988,1.0,0.0,0.0,0.0,1.0,0.0,0.0,0.0,1.0
1463994882419847771,587,1463994882101740719,,5.71318531036,-30.1047134399,-135.693557739,0.00134600000456,1.0,0.0,0.0,0.0,1.0,0.0,0.0,0.0,1.0,13.9024391174,-3.17073178291,-4.75609779358,1.0,0.0,0.0,0.0,1.0,0.0,0.0,0.0,1.0,-1.97761057129,-3.69664736328,7.57525405273,1.0,0.0,0.0,0.0,1.0,0.0,0.0,0.0,1.0
1463994882419883553,588,1463994882123681913,,5.57287931442,-30.0433940887,-135.66229248,0.00124000001233,1.0,0.0,0.0,0.0,1.0,0.0,0.0,0.0,1.0,-1.70731711388,5.18292713165,0.792682945728,1.0,0.0,0.0,0.0,1.0,0.0,0.0,0.0,1.0,0.31124621582,-7.39329472656,9.20331118164,1.0,0.0,0.0,0.0,1.0,0.0,0.0,0.0,1.0
1463994882419987250,589,1463994882144956286,,5.41242647171,-29.9869689941,-135.62260437,0.00149000005331,1.0,0.0,0.0,0.0,1.0,0.0,0.0,0.0,1.0,-2.92682933807,-7.86585378647,7.19512224197,1.0,0.0,0.0,0.0,1.0,0.0,0.0,0.0,1.0,5.19541760254,0.933738647461,11.7315881348,1.0,0.0,0.0,0.0,1.0,0.0,0.0,0.0,1.0
1463994882420033344,590,1463994882171180542,,5.33072900772,-30.0903015137,-135.607833862,0.00673600006849,1.0,0.0,0.0,0.0,1.0,0.0,0.0,0.0,1.0,1.2195122242,-2.56097555161,5.24390268326,1.0,0.0,0.0,0.0,1.0,0.0,0.0,0.0,1.0,-0.373495458984,-4.77403840261,12.2104284668,1.0,0.0,0.0,0.0,1.0,0.0,0.0,0.0,1.0
1463994882420067510,591,1463994882192582987,,5.35894823074,-30.2675590515,-135.626937866,0.00156500004232,1.0,0.0,0.0,0.0,1.0,0.0,0.0,0.0,1.0,6.89024400711,-9.14634132385,4.69512224197,1.0,0.0,0.0,0.0,1.0,0.0,0.0,0.0,1.0,2.23139594727,-2.94486804199,14.9015111328,1.0,0.0,0.0,0.0,1.0,0.0,0.0,0.0,1.0
1463994882420101677,592,1463994882214109130,,5.32210922241,-30.2782897949,-135.623352051,0.00143699999899,1.0,0.0,0.0,0.0,1.0,0.0,0.0,0.0,1.0,1.34146344662,-5.36585378647,-2.5,1.0,0.0,0.0,0.0,1.0,0.0,0.0,0.0,1.0,4.23773664622,-4.28562126394,6.19140549316,1.0,0.0,0.0,0.0,1.0,0.0,0.0,0.0,1.0
1463994882420139333,593,1463994882235790794,,5.40010690689,-30.4551010132,-135.677505493,0.00123699998949,1.0,0.0,0.0,0.0,1.0,0.0,0.0,0.0,1.0,-2.43902444839,17.6219520569,-3.41463422775,1.0,0.0,0.0,0.0,1.0,0.0,0.0,0.0,1.0,-11.3149970459,-8.88248815918,4.20421782297,1.0,0.0,0.0,0.0,1.0,0.0,0.0,0.0,1.0
1463994882420173083,594,1463994882255634285,,5.34689474106,-30.4473705292,-135.680496216,0.0016009999672,1.0,0.0,0.0,0.0,1.0,0.0,0.0,0.0,1.0,-5.79268312454,5.60975599289,1.34146344662,1.0,0.0,0.0,0.0,1.0,0.0,0.0,0.0,1.0,-6.06690700684,-10.5488525146,5.516240625,1.0,0.0,0.0,0.0,1.0,0.0,0.0,0.0,1.0
1463994882420206677,595,1463994882277387302,,5.16743183136,-30.3874187469,-135.66394043,0.00198599998839,1.0,0.0,0.0,0.0,1.0,0.0,0.0,0.0,1.0,-1.09756100178,-10.9146347046,8.29268264771,1.0,0.0,0.0,0.0,1.0,0.0,0.0,0.0,1.0,-1.15879360352,-2.46123930664,15.2127573486,1.0,0.0,0.0,0.0,1.0,0.0,0.0,0.0,1.0
1463994882420240895,596,1463994882298401675,,5.3057346344,-30.4070835114,-135.697418213,0.00184499996249,1.0,0.0,0.0,0.0,1.0,0.0,0.0,0.0,1.0,8.90243911743,15.1219511032,-0.365853667259,1.0,0.0,0.0,0.0,1.0,0.0,0.0,0.0,1.0,-2.94007963867,1.20188930646,8.06367119141,1.0,0.0,0.0,0.0,1.0,0.0,0.0,0.0,1.0
1463994882420276729,597,1463994882319943547,,5.3846783638,-30.5279350281,-135.763336182,0.00119900004938,1.0,0.0,0.0,0.0,1.0,0.0,0.0,0.0,1.0,-5.60975599289,2.68292689323,-8.78048801422,1.0,0.0,0.0,0.0,1.0,0.0,0.0,0.0,1.0,-5.47314499512,-9.79228479004,3.94085593262,1.0,0.0,0.0,0.0,1.0,0.0,0.0,0.0,1.0
1463994882420312093,598,1463994882340189329,,5.51269245148,-30.6107196808,-135.808319092,0.00144499994349,1.0,0.0,0.0,0.0,1.0,0.0,0.0,0.0,1.0,-4.2682929039,13.9634151459,3.17073178291,1.0,0.0,0.0,0.0,1.0,0.0,0.0,0.0,1.0,-6.44997927246,-5.83706364746,7.10120212402,1.0,0.0,0.0,0.0,1.0,0.0,0.0,0.0,1.0
1463994882420386103,599,1463994882360901620,,5.37681007385,-30.6095104218,-135.859588623,0.00176799995825,1.0,0.0,0.0,0.0,1.0,0.0,0.0,0.0,1.0,2.56097555161,-11.4024391174,1.95121955872,1.0,0.0,0.0,0.0,1.0,0.0,0.0,0.0,1.0,5.5401826416,-5.29597407227,12.3253501465,1.0,0.0,0.0,0.0,1.0,0.0,0.0,0.0,1.0
1463994882420433707,600,1463994882381727817,,5.42726898193,-30.6803684235,-135.909179688,0.0015419999836,1.0,0.0,0.0,0.0,1.0,0.0,0.0,0.0,1.0,-1.09756100178,-4.51219558716,-0.609756112099,1.0,0.0,0.0,0.0,1.0,0.0,0.0,0.0,1.0,1.99197578125,-1.70945998535,12.5551935059,1.0,0.0,0.0,0.0,1.0,0.0,0.0,0.0,1.0
1463994884508848217,601,1463994882403141668,,5.61495018005,-30.7304134369,-136.035232544,0.00365100009367,1.0,0.0,0.0,0.0,1.0,0.0,0.0,0.0,1.0,-4.51219558716,-12.3780488968,-6.34146356583,1.0,0.0,0.0,0.0,1.0,0.0,0.0,0.0,1.0,3.44765039062,-4.70700017161,14.6525141602,1.0,0.0,0.0,0.0,1.0,0.0,0.0,0.0,1.0
1463994884511771231,602,1463994882423459325,,5.79646158218,-30.9315948486,-136.159988403,0.00135799997952,1.0,0.0,0.0,0.0,1.0,0.0,0.0,0.0,1.0,3.59756112099,8.84146404266,-7.25609779358,1.0,0.0,0.0,0.0,1.0,0.0,0.0,0.0,1.0,-1.28808049316,-9.20809958496,2.45645090332,1.0,0.0,0.0,0.0,1.0,0.0,0.0,0.0,1.0
1463994884512076438,603,1463994882444310157,,5.89679193497,-30.8531246185,-136.151824951,0.00168999994639,1.0,0.0,0.0,0.0,1.0,0.0,0.0,0.0,1.0,2.31707310677,0.975609779358,-0.609756112099,1.0,0.0,0.0,0.0,1.0,0.0,0.0,0.0,1.0,-6.40209523926,-4.96557424316,6.9767036377,1.0,0.0,0.0,0.0,1.0,0.0,0.0,0.0,1.0
1463994884512376854,604,1463994882465143593,,5.82618236542,-30.8969554901,-136.179656982,0.00123299995903,1.0,0.0,0.0,0.0,1.0,0.0,0.0,0.0,1.0,-0.243902444839,10.1219511032,0.853658556938,1.0,0.0,0.0,0.0,1.0,0.0,0.0,0.0,1.0,-0.646434448242,-5.65031591797,8.58560773784,1.0,0.0,0.0,0.0,1.0,0.0,0.0,0.0,1.0
1463994884512634718,605,1463994882487326089,,5.91409254074,-30.9799423218,-136.272979736,0.00221100007184,1.0,0.0,0.0,0.0,1.0,0.0,0.0,0.0,1.0,0.609756112099,13.3536586761,-0.731707334518,1.0,0.0,0.0,0.0,1.0,0.0,0.0,0.0,1.0,0.852335791016,-8.15465085449,1.50355864258,1.0,0.0,0.0,0.0,1.0,0.0,0.0,0.0,1.0
1463994884512903259,606,1463994882507943119,,5.98918628693,-30.8745002747,-136.252593994,0.00188500003424,1.0,0.0,0.0,0.0,1.0,0.0,0.0,0.0,1.0,-4.93902444839,10.9146347046,5.73170757294,1.0,0.0,0.0,0.0,1.0,0.0,0.0,0.0,1.0,-3.80199223633,-3.47638081055,6.42603725586,1.0,0.0,0.0,0.0,1.0,0.0,0.0,0.0,1.0
1463994884513163519,607,1463994882528852962,,5.93773031235,-30.8599967957,-136.246292114,0.00124699994922,1.0,0.0,0.0,0.0,1.0,0.0,0.0,0.0,1.0,-8.84146404266,8.29268264771,2.43902444839,1.0,0.0,0.0,0.0,1.0,0.0,0.0,0.0,1.0,4.8793829834,-6.55532414551,7.3789295166,1.0,0.0,0.0,0.0,1.0,0.0,0.0,0.0,1.0
1463994884515937262,608,1463994882550571552,,6.1577911377,-30.8827133179,-136.285690308,0.00145199999679,1.0,0.0,0.0,0.0,1.0,0.0,0.0,0.0,1.0,-10.3658542633,11.1585359573,3.71951246262,1.0,0.0,0.0,0.0,1.0,0.0,0.0,0.0,1.0,0.565031591797,-8.51857009136,3.50989963379,1.0,0.0,0.0,0.0,1.0,0.0,0.0,0.0,1.0
1463994884516224500,609,1463994882571548426,,6.15112543106,-30.9192771912,-136.323242188,0.00144200003706,1.0,0.0,0.0,0.0,1.0,0.0,0.0,0.0,1.0,3.53658556938,10.3658542633,6.09756088257,1.0,0.0,0.0,0.0,1.0,0.0,0.0,0.0,1.0,5.91367810059,-3.91691391602,2.48518132324,1.0,0.0,0.0,0.0,1.0,0.0,0.0,0.0,1.0
1463994884516481896,610,1463994882593358057,,6.11091709137,-30.9509487152,-136.321289062,0.00155399995856,1.0,0.0,0.0,0.0,1.0,0.0,0.0,0.0,1.0,-5.30487823486,10.548781395,2.37804889679,1.0,0.0,0.0,0.0,1.0,0.0,0.0,0.0,1.0,5.40131894531,-8.90164177246,0.555454785156,1.0,0.0,0.0,0.0,1.0,0.0,0.0,0.0,1.0
1463994884516749187,611,1463994882614532222,,6.08346509933,-31.1195278168,-136.348632812,0.00144100002944,1.0,0.0,0.0,0.0,1.0,0.0,0.0,0.0,1.0,-4.20731735229,9.93902492523,3.84146332741,1.0,0.0,0.0,0.0,1.0,0.0,0.0,0.0,1.0,-1.43173259277,-6.84741674805,4.01747038574,1.0,0.0,0.0,0.0,1.0,0.0,0.0,0.0,1.0
1463994884518209287,612,1463994882635098003,,6.09814453125,-31.2289524078,-136.409988403,0.00125700002536,1.0,0.0,0.0,0.0,1.0,0.0,0.0,0.0,1.0,-3.35365867615,11.4634151459,6.52439069748,1.0,0.0,0.0,0.0,1.0,0.0,0.0,0.0,1.0,-5.15711037598,-6.4595560791,3.0885201416,1.0,0.0,0.0,0.0,1.0,0.0,0.0,0.0,1.0
1463994884518531995,613,1463994882656679354,,6.21712732315,-31.2512207031,-136.436935425,0.00180299999192,1.0,0.0,0.0,0.0,1.0,0.0,0.0,0.0,1.0,-3.7804877758,17.0731716156,2.19512200356,1.0,0.0,0.0,0.0,1.0,0.0,0.0,0.0,1.0,-5.75566079102,-2.91613762207,5.93283171387,1.0,0.0,0.0,0.0,1.0,0.0,0.0,0.0,1.0
1463994884518808660,614,1463994882678123778,,6.2008357048,-31.2898902893,-136.425506592,0.00173200003337,1.0,0.0,0.0,0.0,1.0,0.0,0.0,0.0,1.0,-1.76829278469,9.39024448395,-0.426829278469,1.0,0.0,0.0,0.0,1.0,0.0,0.0,0.0,1.0,0.77093293457,-10.8313683105,2.41814367676,1.0,0.0,0.0,0.0,1.0,0.0,0.0,0.0,1.0
1463994884519108712,615,1463994882699193933,,6.26927089691,-31.2165908813,-136.49395752,0.00181100005284,1.0,0.0,0.0,0.0,1.0,0.0,0.0,0.0,1.0,-1.40243899822,4.69512224197,-4.69512224197,1.0,0.0,0.0,0.0,1.0,0.0,0.0,0.0,1.0,-5.73171877441,-9.18894597168,5.24330163574,1.0,0.0,0.0,0.0,1.0,0.0,0.0,0.0,1.0
1463994884519384805,616,1463994882721788198,,6.29774427414,-30.9838600159,-136.476272583,0.00303700007498,1.0,0.0,0.0,0.0,1.0,0.0,0.0,0.0,1.0,3.84146332741,-13.4146347046,1.03658533096,1.0,0.0,0.0,0.0,1.0,0.0,0.0,0.0,1.0,-1.50355864258,-0.837970581055,18.4305643799,1.0,0.0,0.0,0.0,1.0,0.0,0.0,0.0,1.0
1463994884519646627,617,1463994882743633038,,6.15040683746,-31.0413074493,-136.507476807,0.00284199998714,1.0,0.0,0.0,0.0,1.0,0.0,0.0,0.0,1.0,-5.60975599289,2.25609779358,1.8902438879,1.0,0.0,0.0,0.0,1.0,0.0,0.0,0.0,1.0,-0.248996972656,-6.80432111816,8.8872765625,1.0,0.0,0.0,0.0,1.0,0.0,0.0,0.0,1.0
1463994884521133550,618,1463994882764093455,,5.93984937668,-30.9790763855,-136.55027771,0.00158299994655,1.0,0.0,0.0,0.0,1.0,0.0,0.0,0.0,1.0,0.975609779358,2.80487799644,-2.37804889679,1.0,0.0,0.0,0.0,1.0,0.0,0.0,0.0,1.0,0.359130249023,-3.26569106445,6.29196196289,1.0,0.0,0.0,0.0,1.0,0.0,0.0,0.0,1.0
1463994884521419279,619,1463994882784932308,,5.80619764328,-31.0156497955,-136.591781616,0.00152900000103,1.0,0.0,0.0,0.0,1.0,0.0,0.0,0.0,1.0,6.95121955872,4.75609779358,5.12195110321,1.0,0.0,0.0,0.0,1.0,0.0,0.0,0.0,1.0,-2.5234885498,-6.22492431641,3.3231519043,1.0,0.0,0.0,0.0,1.0,0.0,0.0,0.0,1.0
