%time,field.header.seq,field.header.stamp,field.header.frame_id,field.orientation.x,field.orientation.y,field.orientation.z,field.orientation.w,field.orientation_covariance0,field.orientation_covariance1,field.orientation_covariance2,field.orientation_covariance3,field.orientation_covariance4,field.orientation_covariance5,field.orientation_covariance6,field.orientation_covariance7,field.orientation_covariance8,field.angular_velocity.x,field.angular_velocity.y,field.angular_velocity.z,field.angular_velocity_covariance0,field.angular_velocity_covariance1,field.angular_velocity_covariance2,field.angular_velocity_covariance3,field.angular_velocity_covariance4,field.angular_velocity_covariance5,field.angular_velocity_covariance6,field.angular_velocity_covariance7,field.angular_velocity_covariance8,field.linear_acceleration.x,field.linear_acceleration.y,field.linear_acceleration.z,field.linear_acceleration_covariance0,field.linear_acceleration_covariance1,field.linear_acceleration_covariance2,field.linear_acceleration_covariance3,field.linear_acceleration_covariance4,field.linear_acceleration_covariance5,field.linear_acceleration_covariance6,field.linear_acceleration_covariance7,field.linear_acceleration_covariance8
1463922949691786542,222,1463922949689042751,,3.58185815811,-7.8671746254,144.889297485,0.0202530007809,1.0,0.0,0.0,0.0,1.0,0.0,0.0,0.0,1.0,-3.29268312454,9.63414573669,12.3170728683,1.0,0.0,0.0,0.0,1.0,0.0,0.0,0.0,1.0,-0.445321508789,-1.44609780273,11.9135474609,1.0,0.0,0.0,0.0,1.0,0.0,0.0,0.0,1.0
1463922949711753800,223,1463922949709532664,,3.90341806412,-7.89178943634,145.141098022,0.0203399993479,1.0,0.0,0.0,0.0,1.0,0.0,0.0,0.0,1.0,-5.91463422775,13.4146347046,22.5609760284,1.0,0.0,0.0,0.0,1.0,0.0,0.0,0.0,1.0,-0.679953271484,-0.512359155273,11.3533042725,1.0,0.0,0.0,0.0,1.0,0.0,0.0,0.0,1.0
1463922949732142619,224,1463922949730091013,,4.20083379745,-7.98111963272,145.461456299,0.020386999473,1.0,0.0,0.0,0.0,1.0,0.0,0.0,0.0,1.0,-12.8048782349,10.548781395,25.2439041138,1.0,0.0,0.0,0.0,1.0,0.0,0.0,0.0,1.0,-0.871489404297,0.15801730957,10.0364933594,1.0,0.0,0.0,0.0,1.0,0.0,0.0,0.0,1.0
1463922949751863629,225,1463922949750137178,,4.36533212662,-8.22172832489,145.739654541,0.0204310007393,1.0,0.0,0.0,0.0,1.0,0.0,0.0,0.0,1.0,-18.2317085266,2.98780488968,22.1951236725,1.0,0.0,0.0,0.0,1.0,0.0,0.0,0.0,1.0,-1.04387185076,-0.172382519531,8.99262143555,1.0,0.0,0.0,0.0,1.0,0.0,0.0,0.0,1.0
1463922949772488905,226,1463922949770539851,,4.32646989822,-8.53364658356,145.958084106,0.0203709993511,1.0,0.0,0.0,0.0,1.0,0.0,0.0,0.0,1.0,-20.3048782349,-5.30487823486,18.1707305908,1.0,0.0,0.0,0.0,1.0,0.0,0.0,0.0,1.0,-0.847547387695,-0.402225878906,8.71968244629,1.0,0.0,0.0,0.0,1.0,0.0,0.0,0.0,1.0
1463922949795486932,227,1463922949790984659,,4.13359880447,-8.80916118622,146.106384277,0.0204620007426,1.0,0.0,0.0,0.0,1.0,0.0,0.0,0.0,1.0,-17.9878044128,-7.98780536652,14.2682924271,1.0,0.0,0.0,0.0,1.0,0.0,0.0,0.0,1.0,-0.172382519531,-0.483628735352,8.71968244629,1.0,0.0,0.0,0.0,1.0,0.0,0.0,0.0,1.0
1463922949813595031,228,1463922949811385041,,3.94037938118,-9.05165100098,146.19833374,0.0203639995307,1.0,0.0,0.0,0.0,1.0,0.0,0.0,0.0,1.0,-14.2682924271,-5.73170757294,12.0121955872,1.0,0.0,0.0,0.0,1.0,0.0,0.0,0.0,1.0,0.15322890625,-0.790086547852,8.31745598286,1.0,0.0,0.0,0.0,1.0,0.0,0.0,0.0,1.0
1463922949836077696,229,1463922949832237035,,3.90152430534,-9.19709968567,146.255966187,0.0204230006784,1.0,0.0,0.0,0.0,1.0,0.0,0.0,0.0,1.0,-9.14634132385,2.07317066193,11.5853662491,1.0,0.0,0.0,0.0,1.0,0.0,0.0,0.0,1.0,0.191536132812,-0.861912597656,8.36534001606,1.0,0.0,0.0,0.0,1.0,0.0,0.0,0.0,1.0
1463922949854648658,230,1463922949852992832,,3.97713851929,-9.2263469696,146.277206421,0.0203889999539,1.0,0.0,0.0,0.0,1.0,0.0,0.0,0.0,1.0,-1.03658533096,7.13414621353,10.7926826477,1.0,0.0,0.0,0.0,1.0,0.0,0.0,0.0,1.0,0.0861912597656,-1.23061965332,8.3749168227,1.0,0.0,0.0,0.0,1.0,0.0,0.0,0.0,1.0
1463922949874845603,231,1463922949872655560,,4.12362384796,-9.08553886414,146.271820068,0.0204290002584,1.0,0.0,0.0,0.0,1.0,0.0,0.0,0.0,1.0,7.19512224197,9.69512176514,9.87804889679,1.0,0.0,0.0,0.0,1.0,0.0,0.0,0.0,1.0,-0.0909796630859,-1.25456166992,8.71010563965,1.0,0.0,0.0,0.0,1.0,0.0,0.0,0.0,1.0
1463922949900623045,232,1463922949893003182,,4.3035402298,-8.79364013672,146.252853394,0.0204179994762,1.0,0.0,0.0,0.0,1.0,0.0,0.0,0.0,1.0,13.048781395,10.3048782349,9.14634132385,1.0,0.0,0.0,0.0,1.0,0.0,0.0,0.0,1.0,-0.296881024126,-1.00077629395,8.88248815918,1.0,0.0,0.0,0.0,1.0,0.0,0.0,0.0,1.0
1463922949917816982,233,1463922949913308355,,4.45771121979,-8.46901798248,146.233505249,0.0203799996525,1.0,0.0,0.0,0.0,1.0,0.0,0.0,0.0,1.0,16.2804889679,8.10975551605,8.84146404266,1.0,0.0,0.0,0.0,1.0,0.0,0.0,0.0,1.0,-0.502782348633,-1.26892687988,9.32780908345,1.0,0.0,0.0,0.0,1.0,0.0,0.0,0.0,1.0
1463922949938023874,234,1463922949934137068,,4.55201101303,-8.10914325714,146.221603394,0.0205729994923,1.0,0.0,0.0,0.0,1.0,0.0,0.0,0.0,1.0,20.0,3.96341490746,8.71951198578,1.0,0.0,0.0,0.0,1.0,0.0,0.0,0.0,1.0,-0.775721337891,-1.70467158203,10.0412817627,1.0,0.0,0.0,0.0,1.0,0.0,0.0,0.0,1.0
1463922949959267742,235,1463922949954141306,,4.56602859497,-7.68680334091,146.243667603,0.0202489998192,1.0,0.0,0.0,0.0,1.0,0.0,0.0,0.0,1.0,22.0731716156,-0.12195122242,9.69512176514,1.0,0.0,0.0,0.0,1.0,0.0,0.0,0.0,1.0,-0.871489404297,-1.57059628906,11.04684646,1.0,0.0,0.0,0.0,1.0,0.0,0.0,0.0,1.0
1463922949977503237,236,1463922949974916581,,4.51661109924,-7.26100635529,146.318649292,0.020773999393,1.0,0.0,0.0,0.0,1.0,0.0,0.0,0.0,1.0,21.2195129395,-3.29268312454,11.7682924271,1.0,0.0,0.0,0.0,1.0,0.0,0.0,0.0,1.0,-0.861912597656,-1.47482822266,11.405976709,1.0,0.0,0.0,0.0,1.0,0.0,0.0,0.0,1.0
1463922950008241231,237,1463922949995089308,,4.39272356033,-6.89200353622,146.414276123,0.0200319997966,1.0,0.0,0.0,0.0,1.0,0.0,0.0,0.0,1.0,19.9390239716,-6.95121955872,12.5609760284,1.0,0.0,0.0,0.0,1.0,0.0,0.0,0.0,1.0,-0.804451757813,-1.57538469238,11.4490723389,1.0,0.0,0.0,0.0,1.0,0.0,0.0,0.0,1.0
1463922950017711190,238,1463922950015509064,,4.22971534729,-6.57976818085,146.500930786,0.0204269997776,1.0,0.0,0.0,0.0,1.0,0.0,0.0,0.0,1.0,21.7682933807,-12.0731716156,11.8292684555,1.0,0.0,0.0,0.0,1.0,0.0,0.0,0.0,1.0,-1.53707746582,-2.60489140625,11.750741748,1.0,0.0,0.0,0.0,1.0,0.0,0.0,0.0,1.0
1463922950039663596,239,1463922950035689447,,3.90955805779,-6.15511274338,146.693893433,0.0203930009156,1.0,0.0,0.0,0.0,1.0,0.0,0.0,0.0,1.0,27.682926178,-14.5731706619,16.8902435303,1.0,0.0,0.0,0.0,1.0,0.0,0.0,0.0,1.0,-0.282515795898,-2.84431157227,12.4402718262,1.0,0.0,0.0,0.0,1.0,0.0,0.0,0.0,1.0
1463922950059210127,240,1463922950056330869,,3.73422551155,-5.61318778992,147.041320801,0.0204140003771,1.0,0.0,0.0,0.0,1.0,0.0,0.0,0.0,1.0,29.5731697083,-3.10975623131,25.4878044128,1.0,0.0,0.0,0.0,1.0,0.0,0.0,0.0,1.0,0.928950244141,-1.98239897461,12.4833674561,1.0,0.0,0.0,0.0,1.0,0.0,0.0,0.0,1.0
1463922950099459226,241,1463922950076643178,,3.96826815605,-5.06789398193,147.493438721,0.0204189997166,1.0,0.0,0.0,0.0,1.0,0.0,0.0,0.0,1.0,21.8902435303,17.2560977936,32.0121955872,1.0,0.0,0.0,0.0,1.0,0.0,0.0,0.0,1.0,1.07739082014,-0.181959326172,12.1721212402,1.0,0.0,0.0,0.0,1.0,0.0,0.0,0.0,1.0
1463922950099498913,242,1463922950097135225,,4.41579866409,-4.76697015762,147.858520508,0.0203840006143,1.0,0.0,0.0,0.0,1.0,0.0,0.0,0.0,1.0,10.1829271317,25.975610733,28.3536586761,1.0,0.0,0.0,0.0,1.0,0.0,0.0,0.0,1.0,0.483628735352,-0.076614453125,11.166556543,1.0,0.0,0.0,0.0,1.0,0.0,0.0,0.0,1.0
1463922950123549227,243,1463922950117423368,,4.88731145859,-4.69653129578,148.072570801,0.0204300004989,1.0,0.0,0.0,0.0,1.0,0.0,0.0,0.0,1.0,3.84146332741,24.5121955872,21.0365848541,1.0,0.0,0.0,0.0,1.0,0.0,0.0,0.0,1.0,-0.244208569336,-0.895431420898,10.9415015869,1.0,0.0,0.0,0.0,1.0,0.0,0.0,0.0,1.0
1463922950173658596,244,1463922950160501777,,5.29667758942,-4.63414430618,147.986526489,0.0208540000021,1.0,0.0,0.0,0.0,1.0,0.0,0.0,0.0,1.0,8.23170757294,27.0731716156,7.01219511032,1.0,0.0,0.0,0.0,1.0,0.0,0.0,0.0,1.0,0.636857641602,-1.65199914551,11.3245738525,1.0,0.0,0.0,0.0,1.0,0.0,0.0,0.0,1.0
1463922950173928855,245,1463922950165716339,,6.03379917145,-4.48273897171,147.758758545,0.0254069995135,1.0,0.0,0.0,0.0,1.0,0.0,0.0,0.0,1.0,13.2926826477,38.1707305908,3.23170733452,1.0,0.0,0.0,0.0,1.0,0.0,0.0,0.0,1.0,0.852335791016,-1.98718737793,11.4442839355,1.0,0.0,0.0,0.0,1.0,0.0,0.0,0.0,1.0
1463922950203694353,246,1463922950179261124,,6.64980840683,-4.36288690567,147.604507446,0.0150269996375,1.0,0.0,0.0,0.0,1.0,0.0,0.0,0.0,1.0,18.0487823486,55.365852356,3.53658556938,1.0,0.0,0.0,0.0,1.0,0.0,0.0,0.0,1.0,1.84353527832,-2.5234885498,11.540052002,1.0,0.0,0.0,0.0,1.0,0.0,0.0,0.0,1.0
1463922950203749770,247,1463922950199414997,,8.02479362488,-3.96112394333,147.36164856,0.0203409995884,1.0,0.0,0.0,0.0,1.0,0.0,0.0,0.0,1.0,29.0243911743,84.634147644,3.7804877758,1.0,0.0,0.0,0.0,1.0,0.0,0.0,0.0,1.0,2.15478164027,-2.12126281703,10.8936175537,1.0,0.0,0.0,0.0,1.0,0.0,0.0,0.0,1.0
1463922950222766459,248,1463922950219917617,,10.1026096344,-3.42658042908,147.026657104,0.0203900001943,1.0,0.0,0.0,0.0,1.0,0.0,0.0,0.0,1.0,33.2317085266,118.292678833,0.609756112099,1.0,0.0,0.0,0.0,1.0,0.0,0.0,0.0,1.0,1.44130939941,-1.17794714373,9.38526992329,1.0,0.0,0.0,0.0,1.0,0.0,0.0,0.0,1.0
1463922950246398806,249,1463922950240902736,,12.6483926773,-2.84508538246,146.483673096,0.020585000515,1.0,0.0,0.0,0.0,1.0,0.0,0.0,0.0,1.0,32.5,137.439025879,-9.93902492523,1.0,0.0,0.0,0.0,1.0,0.0,0.0,0.0,1.0,0.483628735352,-0.15801730957,8.41322404927,1.0,0.0,0.0,0.0,1.0,0.0,0.0,0.0,1.0
1463922950273643481,250,1463922950260311299,,15.5045156479,-2.52736639977,145.713897705,0.0202489998192,1.0,0.0,0.0,0.0,1.0,0.0,0.0,0.0,1.0,28.2926845551,158.475616455,-20.1219520569,1.0,0.0,0.0,0.0,1.0,0.0,0.0,0.0,1.0,0.579396801758,-0.679953271484,7.81946262207,1.0,0.0,0.0,0.0,1.0,0.0,0.0,0.0,1.0
1463922950284409477,251,1463922950281347771,,19.0012702942,-2.37590265274,144.647674561,0.020428000018,1.0,0.0,0.0,0.0,1.0,0.0,0.0,0.0,1.0,28.5975608826,182.195129395,-31.8902454376,1.0,0.0,0.0,0.0,1.0,0.0,0.0,0.0,1.0,-0.76135612793,-0.948103857422,7.50821640625,1.0,0.0,0.0,0.0,1.0,0.0,0.0,0.0,1.0
1463922950328602517,252,1463922950301630810,,22.6840305328,-2.3594865799,143.253326416,0.0203970000148,1.0,0.0,0.0,0.0,1.0,0.0,0.0,0.0,1.0,25.3048782349,187.317077637,-47.5,1.0,0.0,0.0,0.0,1.0,0.0,0.0,0.0,1.0,-1.8626888916,-0.15322890625,7.3071034668,1.0,0.0,0.0,0.0,1.0,0.0,0.0,0.0,1.0
1463922950328700121,253,1463922950321650932,,26.3624706268,-2.71195244789,141.798614502,0.0203949995339,1.0,0.0,0.0,0.0,1.0,0.0,0.0,0.0,1.0,14.5731706619,195.365859985,-46.7682952881,1.0,0.0,0.0,0.0,1.0,0.0,0.0,0.0,1.0,-1.44130939941,-0.517147558594,8.34618640278,1.0,0.0,0.0,0.0,1.0,0.0,0.0,0.0,1.0
1463922950345364008,254,1463922950342090689,,30.3879890442,-3.27488565445,140.250961304,0.0204050000757,1.0,0.0,0.0,0.0,1.0,0.0,0.0,0.0,1.0,8.84146404266,200.121948242,-47.5,1.0,0.0,0.0,0.0,1.0,0.0,0.0,0.0,1.0,-3.35188232422,-0.210689746094,6.70376464844,1.0,0.0,0.0,0.0,1.0,0.0,0.0,0.0,1.0
1463922950364370385,255,1463922950362357164,,34.3834342957,-4.41043710709,138.29725647,0.0204349998385,1.0,0.0,0.0,0.0,1.0,0.0,0.0,0.0,1.0,-3.23170733452,193.536590576,-58.3536605835,1.0,0.0,0.0,0.0,1.0,0.0,0.0,0.0,1.0,-5.13316835937,-0.411802685547,6.72291826172,1.0,0.0,0.0,0.0,1.0,0.0,0.0,0.0,1.0
1463922950387012944,256,1463922950382781608,,37.7962226868,-5.95624256134,135.980270386,0.0203840006143,1.0,0.0,0.0,0.0,1.0,0.0,0.0,0.0,1.0,-10.9756097794,169.329269409,-69.2682952881,1.0,0.0,0.0,0.0,1.0,0.0,0.0,0.0,1.0,-5.91367810059,0.0383072265625,7.01979926758,1.0,0.0,0.0,0.0,1.0,0.0,0.0,0.0,1.0
1463922950413610695,257,1463922950403644644,,40.6775131226,-7.82329750061,133.480255127,0.0204089991748,1.0,0.0,0.0,0.0,1.0,0.0,0.0,0.0,1.0,-18.9024391174,144.756103516,-72.7439041138,1.0,0.0,0.0,0.0,1.0,0.0,0.0,0.0,1.0,-6.61278498535,0.497993945312,6.68461103516,1.0,0.0,0.0,0.0,1.0,0.0,0.0,0.0,1.0
1463922950426342672,258,1463922950424252421,,42.9900779724,-10.3566570282,130.756881714,0.0204070005566,1.0,0.0,0.0,0.0,1.0,0.0,0.0,0.0,1.0,-30.5487804413,116.768287659,-68.5365905762,1.0,0.0,0.0,0.0,1.0,0.0,0.0,0.0,1.0,-8.79629689941,-2.00634099121,6.88093557129,1.0,0.0,0.0,0.0,1.0,0.0,0.0,0.0,1.0
1463922950445833422,259,1463922950444200408,,44.4575576782,-12.9061479568,128.177001953,0.0204179994762,1.0,0.0,0.0,0.0,1.0,0.0,0.0,0.0,1.0,-36.7682952881,84.0853652954,-66.0365829468,1.0,0.0,0.0,0.0,1.0,0.0,0.0,0.0,1.0,-7.90086547852,-1.33117612305,7.1203557373,1.0,0.0,0.0,0.0,1.0,0.0,0.0,0.0,1.0
1463922950466907967,260,1463922950465305891,,45.4069328308,-15.179775238,126.05997467,0.0203990004957,1.0,0.0,0.0,0.0,1.0,0.0,0.0,0.0,1.0,-37.682926178,55.7317085266,-52.4390258789,1.0,0.0,0.0,0.0,1.0,0.0,0.0,0.0,1.0,-8.56166572124,-1.44130939941,6.62236179199,1.0,0.0,0.0,0.0,1.0,0.0,0.0,0.0,1.0
1463922950486865330,261,1463922950484900286,,45.7109603882,-17.072479248,124.445198059,0.0204199999571,1.0,0.0,0.0,0.0,1.0,0.0,0.0,0.0,1.0,-33.3536605835,22.5609760284,-39.6951217651,1.0,0.0,0.0,0.0,1.0,0.0,0.0,0.0,1.0,-9.1458503418,-2.43250888672,6.78516750488,1.0,0.0,0.0,0.0,1.0,0.0,0.0,0.0,1.0
1463922950507941334,262,1463922950505630510,,45.3922691345,-18.2309455872,123.579399109,0.0204310007393,1.0,0.0,0.0,0.0,1.0,0.0,0.0,0.0,1.0,-23.4146347046,-10.2439022064,-23.475610733,1.0,0.0,0.0,0.0,1.0,0.0,0.0,0.0,1.0,-8.68137521973,-2.71502468262,7.00543405762,1.0,0.0,0.0,0.0,1.0,0.0,0.0,0.0,1.0
1463922950528644579,263,1463922950526052194,,44.6688842773,-18.727563858,123.323547363,0.0203840006143,1.0,0.0,0.0,0.0,1.0,0.0,0.0,0.0,1.0,-10.1829271317,-35.8536605835,-8.47560977936,1.0,0.0,0.0,0.0,1.0,0.0,0.0,0.0,1.0,-8.84896933594,-3.53384165039,6.98628044434,1.0,0.0,0.0,0.0,1.0,0.0,0.0,0.0,1.0
1463922950551071566,264,1463922950546395961,,44.1041641235,-18.9386367798,123.35295105,0.0204370003194,1.0,0.0,0.0,0.0,1.0,0.0,0.0,0.0,1.0,3.59756112099,-71.158531189,-0.365853667259,1.0,0.0,0.0,0.0,1.0,0.0,0.0,0.0,1.0,-9.59596083843,-2.91134921875,-2.10210891149,1.0,0.0,0.0,0.0,1.0,0.0,0.0,0.0,1.0
1463922950570361379,265,1463922950566476604,,42.5974311829,-17.9313468933,124.523300171,0.0203639995307,1.0,0.0,0.0,0.0,1.0,0.0,0.0,0.0,1.0,8.41463470459,-93.3536605835,17.3780498505,1.0,0.0,0.0,0.0,1.0,0.0,0.0,0.0,1.0,-8.97825622559,-1.16358193377,6.16267507324,1.0,0.0,0.0,0.0,1.0,0.0,0.0,0.0,1.0
1463922950589232497,266,1463922950587066464,,40.6314582825,-16.7551403046,126.11819458,0.0204750001431,1.0,0.0,0.0,0.0,1.0,0.0,0.0,0.0,1.0,3.90243911743,-112.926826477,30.0000019073,1.0,0.0,0.0,0.0,1.0,0.0,0.0,0.0,1.0,-7.31668027344,-1.25935007324,6.70855305176,1.0,0.0,0.0,0.0,1.0,0.0,0.0,0.0,1.0
1463922950751745396,267,1463922950607525543,,38.361164093,-15.554017067,127.906478882,0.0203850008547,1.0,0.0,0.0,0.0,1.0,0.0,0.0,0.0,1.0,2.80487799644,-128.048782349,39.2073173523,1.0,0.0,0.0,0.0,1.0,0.0,0.0,0.0,1.0,-6.78516750488,-1.63763393555,7.13950935059,1.0,0.0,0.0,0.0,1.0,0.0,0.0,0.0,1.0
1463922950752219873,268,1463922950627779415,,35.8545074463,-14.3786735535,129.798309326,0.0203830003738,1.0,0.0,0.0,0.0,1.0,0.0,0.0,0.0,1.0,2.31707310677,-142.256103516,45.365852356,1.0,0.0,0.0,0.0,1.0,0.0,0.0,0.0,1.0,-6.76122548828,-1.74297880859,7.18739338379,1.0,0.0,0.0,0.0,1.0,0.0,0.0,0.0,1.0
1463922950752961380,269,1463922950649348125,,32.8432044983,-13.2114248276,131.789886475,0.0205649994314,1.0,0.0,0.0,0.0,1.0,0.0,0.0,0.0,1.0,0.914634168148,-162.743896484,47.8658561707,1.0,0.0,0.0,0.0,1.0,0.0,0.0,0.0,1.0,-5.53060583496,-1.24498486328,7.20654699707,1.0,0.0,0.0,0.0,1.0,0.0,0.0,0.0,1.0
1463922950755044496,270,1463922950669297050,,29.4519309998,-12.3184976578,133.585189819,0.0202730000019,1.0,0.0,0.0,0.0,1.0,0.0,0.0,0.0,1.0,0.914634168148,-178.292694092,45.7926826477,1.0,0.0,0.0,0.0,1.0,0.0,0.0,0.0,1.0,-3.49553442383,-1.51792385254,5.80833322754,1.0,0.0,0.0,0.0,1.0,0.0,0.0,0.0,1.0
1463922950755674858,271,1463922950690007847,,25.3885669708,-11.3637580872,135.557556152,0.0207850001752,1.0,0.0,0.0,0.0,1.0,0.0,0.0,0.0,1.0,-2.86585378647,-212.621963501,45.3048782349,1.0,0.0,0.0,0.0,1.0,0.0,0.0,0.0,1.0,-4.55855996094,-0.359130249023,6.94318481445,1.0,0.0,0.0,0.0,1.0,0.0,0.0,0.0,1.0
1463922950755972409,272,1463922950709803491,,20.8972949982,-10.7120723724,137.395706177,0.0201750006527,1.0,0.0,0.0,0.0,1.0,0.0,0.0,0.0,1.0,-10.8536586761,-242.012191772,41.5853652954,1.0,0.0,0.0,0.0,1.0,0.0,0.0,0.0,1.0,-4.33350529714,0.0622492431641,6.77559069824,1.0,0.0,0.0,0.0,1.0,0.0,0.0,0.0,1.0
1463922950756250012,273,1463922950729974291,,15.7234706879,-10.4682369232,139.249786377,0.0202169995755,1.0,0.0,0.0,0.0,1.0,0.0,0.0,0.0,1.0,-18.1707305908,-269.756103516,44.8780479431,1.0,0.0,0.0,0.0,1.0,0.0,0.0,0.0,1.0,-3.0406361084,-0.948103857422,7.34541069336,1.0,0.0,0.0,0.0,1.0,0.0,0.0,0.0,1.0
1463922950756584125,274,1463922950750286183,,9.95450687408,-10.5469055176,141.343032837,0.0204799994826,1.0,0.0,0.0,0.0,1.0,0.0,0.0,0.0,1.0,-17.317073822,-295.548797607,56.7073173523,1.0,0.0,0.0,0.0,1.0,0.0,0.0,0.0,1.0,-2.02070620117,-2.55700737305,7.41244833984,1.0,0.0,0.0,0.0,1.0,0.0,0.0,0.0,1.0
1463922950869798745,275,1463922950770839741,,3.96659255028,-10.5963249207,143.859924316,0.020380999893,1.0,0.0,0.0,0.0,1.0,0.0,0.0,0.0,1.0,-7.68292665482,-303.353668213,77.5,1.0,0.0,0.0,0.0,1.0,0.0,0.0,0.0,1.0,-0.0287304199219,-2.89698400879,8.33182119282,1.0,0.0,0.0,0.0,1.0,0.0,0.0,0.0,1.0
1463922950870233951,276,1463922950791125644,,-1.65637540817,-10.6494350433,146.914672852,0.0203830003738,1.0,0.0,0.0,0.0,1.0,0.0,0.0,0.0,1.0,-8.10975551605,-282.804870605,107.012191772,1.0,0.0,0.0,0.0,1.0,0.0,0.0,0.0,1.0,2.39899020961,-1.13006318359,9.68693991699,1.0,0.0,0.0,0.0,1.0,0.0,0.0,0.0,1.0
1463922950870583846,277,1463922950811813107,,-6.3400683403,-11.1421928406,150.243515015,0.0204039998353,1.0,0.0,0.0,0.0,1.0,0.0,0.0,0.0,1.0,-6.46341466904,-241.646347046,126.829277039,1.0,0.0,0.0,0.0,1.0,0.0,0.0,0.0,1.0,3.26569106445,-2.8060043457,9.77313117676,1.0,0.0,0.0,0.0,1.0,0.0,0.0,0.0,1.0
1463922950870895615,278,1463922950832073698,,-10.0548353195,-11.7464179993,153.81451416,0.0204160008579,1.0,0.0,0.0,0.0,1.0,0.0,0.0,0.0,1.0,0.243902444839,-201.158538818,143.170730591,1.0,0.0,0.0,0.0,1.0,0.0,0.0,0.0,1.0,3.56257207031,-2.66714064941,9.88326445312,1.0,0.0,0.0,0.0,1.0,0.0,0.0,0.0,1.0
1463922950871221656,279,1463922950852220851,,-12.7403640747,-12.1405763626,157.602249146,0.020408000797,1.0,0.0,0.0,0.0,1.0,0.0,0.0,0.0,1.0,3.53658556938,-159.085372925,162.682937622,1.0,0.0,0.0,0.0,1.0,0.0,0.0,0.0,1.0,3.92170231934,0.962469067383,11.5304751953,1.0,0.0,0.0,0.0,1.0,0.0,0.0,0.0,1.0
1463922950927383759,280,1463922950872954721,,-14.3966560364,-12.6758232117,160.835968018,0.0204039998353,1.0,0.0,0.0,0.0,1.0,0.0,0.0,0.0,1.0,7.80487823486,-105.121955872,143.353668213,1.0,0.0,0.0,0.0,1.0,0.0,0.0,0.0,1.0,4.18985261301,-1.36948334961,10.6446205811,1.0,0.0,0.0,0.0,1.0,0.0,0.0,0.0,1.0
1463922950927963184,281,1463922950893148281,,-15.1831855774,-13.029463768,163.496551514,0.0204009991139,1.0,0.0,0.0,0.0,1.0,0.0,0.0,0.0,1.0,12.7439022064,-62.5,124.146347046,1.0,0.0,0.0,0.0,1.0,0.0,0.0,0.0,1.0,3.71580097656,-1.49398183594,10.8648871338,1.0,0.0,0.0,0.0,1.0,0.0,0.0,0.0,1.0
1463922950928717087,282,1463922950913521579,,-15.5767030716,-13.1083135605,165.515640259,0.0204119998962,1.0,0.0,0.0,0.0,1.0,0.0,0.0,0.0,1.0,14.5121955872,-34.2682952881,100.609764099,1.0,0.0,0.0,0.0,1.0,0.0,0.0,0.0,1.0,4.55377155762,-0.507570751953,10.8600987305,1.0,0.0,0.0,0.0,1.0,0.0,0.0,0.0,1.0
1463922951635803595,283,1463922950934302063,,-15.4651088715,-12.8950233459,166.644775391,0.0206700004637,1.0,0.0,0.0,0.0,1.0,0.0,0.0,0.0,1.0,17.5000019073,-1.2804877758,64.634147644,1.0,0.0,0.0,0.0,1.0,0.0,0.0,0.0,1.0,4.57771357422,-0.622492431641,11.1282493164,1.0,0.0,0.0,0.0,1.0,0.0,0.0,0.0,1.0
1463922951636144687,284,1463922950954168593,,-14.9168081284,-12.4478330612,166.950637817,0.0201399996877,1.0,0.0,0.0,0.0,1.0,0.0,0.0,0.0,1.0,18.9634151459,26.7682933807,32.134147644,1.0,0.0,0.0,0.0,1.0,0.0,0.0,0.0,1.0,4.22337143625,-0.665588061523,11.4299187256,1.0,0.0,0.0,0.0,1.0,0.0,0.0,0.0,1.0
1463922951636459842,285,1463922950974581891,,-13.9815778732,-11.8480186462,166.58757019,0.020422000438,1.0,0.0,0.0,0.0,1.0,0.0,0.0,0.0,1.0,17.5000019073,46.0365867615,3.53658556938,1.0,0.0,0.0,0.0,1.0,0.0,0.0,0.0,1.0,2.7820623291,-0.593762048251,11.4107651123,1.0,0.0,0.0,0.0,1.0,0.0,0.0,0.0,1.0
1463922951636755153,286,1463922950995282375,,-12.9564619064,-11.2125425339,165.684127808,0.0204009991139,1.0,0.0,0.0,0.0,1.0,0.0,0.0,0.0,1.0,13.841463089,58.0487823486,-20.975610733,1.0,0.0,0.0,0.0,1.0,0.0,0.0,0.0,1.0,3.08373173828,-0.550666381836,11.2192289795,1.0,0.0,0.0,0.0,1.0,0.0,0.0,0.0,1.0
1463922951637074162,287,1463922951015764319,,-11.7531642914,-10.6688222885,164.387817383,0.0204169992357,1.0,0.0,0.0,0.0,1.0,0.0,0.0,0.0,1.0,9.81707286835,66.9512252808,-40.0609741211,1.0,0.0,0.0,0.0,1.0,0.0,0.0,0.0,1.0,2.10689731481,-1.17794714373,10.5440641113,1.0,0.0,0.0,0.0,1.0,0.0,0.0,0.0,1.0
1463922951637695722,288,1463922951036046472,,-10.543422699,-10.2036676407,162.88621521,0.0203949995339,1.0,0.0,0.0,0.0,1.0,0.0,0.0,0.0,1.0,11.4024391174,67.2560958862,-52.2560997009,1.0,0.0,0.0,0.0,1.0,0.0,0.0,0.0,1.0,1.67115275879,-2.43250888672,11.2335941895,1.0,0.0,0.0,0.0,1.0,0.0,0.0,0.0,1.0
1463922951638235876,289,1463922951056429041,,-9.24400138855,-9.61515426636,161.282302856,0.0205620005727,1.0,0.0,0.0,0.0,1.0,0.0,0.0,0.0,1.0,17.7439022064,78.3536605835,-55.365852356,1.0,0.0,0.0,0.0,1.0,0.0,0.0,0.0,1.0,2.93529123535,-2.28406838379,11.2766898193,1.0,0.0,0.0,0.0,1.0,0.0,0.0,0.0,1.0
1463922951638821186,290,1463922951076739996,,-7.70777416229,-8.95647239685,159.556091309,0.0202619992197,1.0,0.0,0.0,0.0,1.0,0.0,0.0,0.0,1.0,18.1097564697,91.2195129395,-60.7317085266,1.0,0.0,0.0,0.0,1.0,0.0,0.0,0.0,1.0,2.24576115723,-1.05823706072,9.65342167827,1.0,0.0,0.0,0.0,1.0,0.0,0.0,0.0,1.0
1463922951639530298,291,1463922951097794176,,-5.80206727982,-8.35958766937,157.573959351,0.020408000797,1.0,0.0,0.0,0.0,1.0,0.0,0.0,0.0,1.0,11.5243911743,108.170730591,-70.792678833,1.0,0.0,0.0,0.0,1.0,0.0,0.0,0.0,1.0,1.51792385254,-0.15322890625,8.63349177105,1.0,0.0,0.0,0.0,1.0,0.0,0.0,0.0,1.0
1463922951639592068,292,1463922951117752737,,-3.87594342232,-7.95806264877,155.260665894,0.0204199999571,1.0,0.0,0.0,0.0,1.0,0.0,0.0,0.0,1.0,4.45121955872,95.1829223633,-90.4268264771,1.0,0.0,0.0,0.0,1.0,0.0,0.0,0.0,1.0,-1.28329208984,-0.186747729492,9.15063874512,1.0,0.0,0.0,0.0,1.0,0.0,0.0,0.0,1.0
1463922951639964411,293,1463922951138899001,,-2.44496226311,-7.87865543365,152.869400024,0.0203889999539,1.0,0.0,0.0,0.0,1.0,0.0,0.0,0.0,1.0,-1.2195122242,74.8170776367,-98.5365829468,1.0,0.0,0.0,0.0,1.0,0.0,0.0,0.0,1.0,-1.09654436035,-1.35032973633,9.62469125835,1.0,0.0,0.0,0.0,1.0,0.0,0.0,0.0,1.0
1463922951640293211,294,1463922951158750114,,-1.44057786465,-7.90582418442,150.50112915,0.0204160008579,1.0,0.0,0.0,0.0,1.0,0.0,0.0,0.0,1.0,1.15853655338,59.7560997009,-99.6951217651,1.0,0.0,0.0,0.0,1.0,0.0,0.0,0.0,1.0,-0.296881024126,-2.14999323695,9.27034882812,1.0,0.0,0.0,0.0,1.0,0.0,0.0,0.0,1.0
1463922951640625033,295,1463922951179995283,,-0.384535908699,-7.81627130508,148.093429565,0.0211529992521,1.0,0.0,0.0,0.0,1.0,0.0,0.0,0.0,1.0,8.10975551605,63.1707305908,-97.0121994019,1.0,0.0,0.0,0.0,1.0,0.0,0.0,0.0,1.0,0.0574608398438,-2.12126281703,9.70130512695,1.0,0.0,0.0,0.0,1.0,0.0,0.0,0.0,1.0
1463922951640908886,296,1463922951199797959,,0.670744359493,-7.62887716293,145.938156128,0.0196720007807,1.0,0.0,0.0,0.0,1.0,0.0,0.0,0.0,1.0,11.0365858078,62.0121917725,-92.9268341064,1.0,0.0,0.0,0.0,1.0,0.0,0.0,0.0,1.0,-0.804451757813,-1.28329208984,9.44273076313,1.0,0.0,0.0,0.0,1.0,0.0,0.0,0.0,1.0
1463922951641193103,297,1463922951219775374,,1.74075233936,-7.44374036789,143.927001953,0.0204290002584,1.0,0.0,0.0,0.0,1.0,0.0,0.0,0.0,1.0,4.20731735229,63.3536567688,-81.8292770386,1.0,0.0,0.0,0.0,1.0,0.0,0.0,0.0,1.0,-0.215478149414,0.110133276367,8.75320126953,1.0,0.0,0.0,0.0,1.0,0.0,0.0,0.0,1.0
1463922951641674351,298,1463922951240594295,,2.74614596367,-7.48181915283,142.115829468,0.0205109994859,1.0,0.0,0.0,0.0,1.0,0.0,0.0,0.0,1.0,-5.06097555161,67.9268264771,-71.2195129395,1.0,0.0,0.0,0.0,1.0,0.0,0.0,0.0,1.0,1.02471831055,0.100556469727,8.26957253418,1.0,0.0,0.0,0.0,1.0,0.0,0.0,0.0,1.0
1463922951642291067,299,1463922951260486918,,4.00737810135,-7.63718605042,140.37890625,0.0202879998833,1.0,0.0,0.0,0.0,1.0,0.0,0.0,0.0,1.0,-8.5365858078,71.4024429321,-67.9878082275,1.0,0.0,0.0,0.0,1.0,0.0,0.0,0.0,1.0,-0.45968671875,-0.0191536132812,7.47948598633,1.0,0.0,0.0,0.0,1.0,0.0,0.0,0.0,1.0
1463922951642584087,300,1463922951281063289,,5.06686449051,-7.79793405533,138.737838745,0.0203750003129,1.0,0.0,0.0,0.0,1.0,0.0,0.0,0.0,1.0,-12.5,60.0000038147,-64.6951217651,1.0,0.0,0.0,0.0,1.0,0.0,0.0,0.0,1.0,-0.732625708008,0.641646044922,7.39329472656,1.0,0.0,0.0,0.0,1.0,0.0,0.0,0.0,1.0
1463922951642907940,301,1463922951301439764,,5.89395284653,-8.11538314819,137.20765686,0.0204540006816,1.0,0.0,0.0,0.0,1.0,0.0,0.0,0.0,1.0,-19.6341457367,47.7439041138,-60.6097564697,1.0,0.0,0.0,0.0,1.0,0.0,0.0,0.0,1.0,-0.933738647461,0.679953271484,7.56088884277,1.0,0.0,0.0,0.0,1.0,0.0,0.0,0.0,1.0
1463922951643254188,302,1463922951321645251,,6.41374826431,-8.60373687744,135.812957764,0.0204039998353,1.0,0.0,0.0,0.0,1.0,0.0,0.0,0.0,1.0,-23.1707324982,36.3414611816,-55.182926178,1.0,0.0,0.0,0.0,1.0,0.0,0.0,0.0,1.0,-0.550666381836,-0.0143652099609,8.0397291748,1.0,0.0,0.0,0.0,1.0,0.0,0.0,0.0,1.0
1463922951643571426,303,1463922951342378079,,6.7743935585,-9.16311073303,134.56854248,0.0204140003771,1.0,0.0,0.0,0.0,1.0,0.0,0.0,0.0,1.0,-22.1341457367,32.5,-47.6219520569,1.0,0.0,0.0,0.0,1.0,0.0,0.0,0.0,1.0,0.0191536132812,-0.847547387695,8.71968244629,1.0,0.0,0.0,0.0,1.0,0.0,0.0,0.0,1.0
1463922951643859290,304,1463922951362686794,,7.17406892776,-9.60312652588,133.509002686,0.0203789994121,1.0,0.0,0.0,0.0,1.0,0.0,0.0,0.0,1.0,-18.5365848541,31.6463413239,-38.7195129395,1.0,0.0,0.0,0.0,1.0,0.0,0.0,0.0,1.0,-0.349553442383,-0.751779321289,9.46188437642,1.0,0.0,0.0,0.0,1.0,0.0,0.0,0.0,1.0
1463922951644148663,305,1463922951382864781,,7.54597663879,-9.96384143829,132.624420166,0.0204029995948,1.0,0.0,0.0,0.0,1.0,0.0,0.0,0.0,1.0,-16.9512195587,29.6951236725,-30.4268321991,1.0,0.0,0.0,0.0,1.0,0.0,0.0,0.0,1.0,-0.359130249023,-0.612915625,10.3716815918,1.0,0.0,0.0,0.0,1.0,0.0,0.0,0.0,1.0
1463922951644642620,306,1463922951403381099,,7.86860322952,-10.3023395538,131.844680786,0.0204230006784,1.0,0.0,0.0,0.0,1.0,0.0,0.0,0.0,1.0,-15.9146347046,25.9146347046,-25.7317085266,1.0,0.0,0.0,0.0,1.0,0.0,0.0,0.0,1.0,-0.588973571866,-0.780509741211,10.8696755371,1.0,0.0,0.0,0.0,1.0,0.0,0.0,0.0,1.0
1463922951645085899,307,1463922951423627263,,8.07108402252,-10.5633153915,131.115982056,0.0204429998994,1.0,0.0,0.0,0.0,1.0,0.0,0.0,0.0,1.0,-15.3048791885,17.5609760284,-25.0609760284,1.0,0.0,0.0,0.0,1.0,0.0,0.0,0.0,1.0,-1.13963999023,-0.253785375977,11.2479593994,1.0,0.0,0.0,0.0,1.0,0.0,0.0,0.0,1.0
1463922951645356627,308,1463922951444037019,,7.99006414413,-10.8893613815,130.382278442,0.0204489994794,1.0,0.0,0.0,0.0,1.0,0.0,0.0,0.0,1.0,-18.4146347046,3.90243911743,-27.8658542633,1.0,0.0,0.0,0.0,1.0,0.0,0.0,0.0,1.0,-1.22583125,-0.301669427446,11.2096521729,1.0,0.0,0.0,0.0,1.0,0.0,0.0,0.0,1.0
1463922951645630115,309,1463922951464604952,,7.61557912827,-11.2901878357,129.649353027,0.0203050002456,1.0,0.0,0.0,0.0,1.0,0.0,0.0,0.0,1.0,-20.3658542633,-6.7682929039,-29.9390258789,1.0,0.0,0.0,0.0,1.0,0.0,0.0,0.0,1.0,-0.560243188477,-0.794874951172,11.5687824219,1.0,0.0,0.0,0.0,1.0,0.0,0.0,0.0,1.0
1463922951645937354,310,1463922951484910021,,7.12920331955,-11.6957273483,128.930450439,0.0204230006784,1.0,0.0,0.0,0.0,1.0,0.0,0.0,0.0,1.0,-18.9024391174,-12.0731716156,-29.9390258789,1.0,0.0,0.0,0.0,1.0,0.0,0.0,0.0,1.0,-0.536301208408,-1.35990654297,12.2152168701,1.0,0.0,0.0,0.0,1.0,0.0,0.0,0.0,1.0
1463922951646227248,311,1463922951505391757,,6.61525249481,-12.0182390213,128.282089233,0.0204900000244,1.0,0.0,0.0,0.0,1.0,0.0,0.0,0.0,1.0,-14.0853662491,-13.2317075729,-26.5243911743,1.0,0.0,0.0,0.0,1.0,0.0,0.0,0.0,1.0,-0.31124621582,-1.81959326172,12.5839239258,1.0,0.0,0.0,0.0,1.0,0.0,0.0,0.0,1.0
1463922951646539434,312,1463922951525813492,,6.20573997498,-12.2777357101,127.649513245,0.0203740000725,1.0,0.0,0.0,0.0,1.0,0.0,0.0,0.0,1.0,-7.07317113876,-10.3658542633,-24.8780498505,1.0,0.0,0.0,0.0,1.0,0.0,0.0,0.0,1.0,-0.689530078125,-3.02148249512,13.125013501,1.0,0.0,0.0,0.0,1.0,0.0,0.0,0.0,1.0
1463922951646843548,313,1463922951546206791,,5.77443885803,-12.2021608353,127.151481628,0.0204860009253,1.0,0.0,0.0,0.0,1.0,0.0,0.0,0.0,1.0,8.41463470459,-12.0731716156,-18.475610733,1.0,0.0,0.0,0.0,1.0,0.0,0.0,0.0,1.0,-0.469263525391,-3.20823022461,13.6756798828,1.0,0.0,0.0,0.0,1.0,0.0,0.0,0.0,1.0
1463922951647549170,314,1463922951566470818,,5.46166038513,-11.8218364716,126.793235779,0.020325999707,1.0,0.0,0.0,0.0,1.0,0.0,0.0,0.0,1.0,14.3902444839,-6.09756088257,-11.2195119858,1.0,0.0,0.0,0.0,1.0,0.0,0.0,0.0,1.0,0.0861912597656,-1.05823706072,12.7994020752,1.0,0.0,0.0,0.0,1.0,0.0,0.0,0.0,1.0
1463922951647965210,315,1463922951586972293,,5.42929029465,-11.385764122,126.296905518,0.0203889999539,1.0,0.0,0.0,0.0,1.0,0.0,0.0,0.0,1.0,7.37804937363,5.0,-16.6463413239,1.0,0.0,0.0,0.0,1.0,0.0,0.0,0.0,1.0,-0.670376464844,1.40779057617,12.5504051025,1.0,0.0,0.0,0.0,1.0,0.0,0.0,0.0,1.0
1463922951648549634,316,1463922951607598143,,5.25540161133,-11.3413143158,125.726135254,0.0203830003738,1.0,0.0,0.0,0.0,1.0,0.0,0.0,0.0,1.0,-4.20731735229,-5.85365867615,-21.8292694092,1.0,0.0,0.0,0.0,1.0,0.0,0.0,0.0,1.0,-1.45567460937,-0.148440512063,10.5727945312,1.0,0.0,0.0,0.0,1.0,0.0,0.0,0.0,1.0
1463922951704864550,317,1463922951628332689,,4.7548289299,-11.4791555405,125.017951965,0.0204099994153,1.0,0.0,0.0,0.0,1.0,0.0,0.0,0.0,1.0,-7.07317113876,-19.6341457367,-30.8536605835,1.0,0.0,0.0,0.0,1.0,0.0,0.0,0.0,1.0,-1.25935007324,-1.17315874041,10.1226846191,1.0,0.0,0.0,0.0,1.0,0.0,0.0,0.0,1.0
1463922951705172517,318,1463922951648969268,,4.06647348404,-11.6345844269,124.27381134,0.0204119998962,1.0,0.0,0.0,0.0,1.0,0.0,0.0,0.0,1.0,-2.92682933807,-22.9268302917,-32.9268302917,1.0,0.0,0.0,0.0,1.0,0.0,0.0,0.0,1.0,-0.196324536133,-2.28406838379,10.658985791,1.0,0.0,0.0,0.0,1.0,0.0,0.0,0.0,1.0
1463922951705451058,319,1463922951669151525,,3.49811172485,-11.6431913376,123.632858276,0.0205210000277,1.0,0.0,0.0,0.0,1.0,0.0,0.0,0.0,1.0,4.32926845551,-14.2682924271,-25.8536586761,1.0,0.0,0.0,0.0,1.0,0.0,0.0,0.0,1.0,0.708683691406,-2.58094938965,11.1234609131,1.0,0.0,0.0,0.0,1.0,0.0,0.0,0.0,1.0
1463922951705743036,320,1463922951689037378,,3.25230455399,-11.5327749252,123.10218811,0.020331999287,1.0,0.0,0.0,0.0,1.0,0.0,0.0,0.0,1.0,8.71951198578,-0.18292683363,-17.8048782349,1.0,0.0,0.0,0.0,1.0,0.0,0.0,0.0,1.0,0.790086547852,-2.40377861293,11.1952869629,1.0,0.0,0.0,0.0,1.0,0.0,0.0,0.0,1.0
1463922951993584565,321,1463922951709325104,,3.30703282356,-11.3213167191,122.667739868,0.0203660000116,1.0,0.0,0.0,0.0,1.0,0.0,0.0,0.0,1.0,12.3780488968,5.73170757294,-11.8292684555,1.0,0.0,0.0,0.0,1.0,0.0,0.0,0.0,1.0,-0.679953271484,-2.04464821777,10.5057568848,1.0,0.0,0.0,0.0,1.0,0.0,0.0,0.0,1.0
1463922951993899460,322,1463922951729884964,,3.28827023506,-10.9331274033,122.232002258,0.0204269997776,1.0,0.0,0.0,0.0,1.0,0.0,0.0,0.0,1.0,12.8048782349,4.20731735229,-12.6219520569,1.0,0.0,0.0,0.0,1.0,0.0,0.0,0.0,1.0,-0.248996972656,-0.392649072266,9.12669672852,1.0,0.0,0.0,0.0,1.0,0.0,0.0,0.0,1.0
1463922951994224250,323,1463922951750334512,,3.24980711937,-10.6105136871,121.740402222,0.0203959997743,1.0,0.0,0.0,0.0,1.0,0.0,0.0,0.0,1.0,2.92682933807,-0.609756112099,-16.7682933807,1.0,0.0,0.0,0.0,1.0,0.0,0.0,0.0,1.0,-0.804451757813,0.694318481445,7.74284816895,1.0,0.0,0.0,0.0,1.0,0.0,0.0,0.0,1.0
1463922951994517634,324,1463922951771285880,,3.01937055588,-10.5270233154,121.173309326,0.0205140002072,1.0,0.0,0.0,0.0,1.0,0.0,0.0,0.0,1.0,-9.69512176514,-7.37804937363,-21.6463432312,1.0,0.0,0.0,0.0,1.0,0.0,0.0,0.0,1.0,-0.493205541992,0.804451757813,7.1203557373,1.0,0.0,0.0,0.0,1.0,0.0,0.0,0.0,1.0
1463922951994993309,325,1463922951791351940,,2.66880273819,-10.7602291107,120.55544281,0.0203339997679,1.0,0.0,0.0,0.0,1.0,0.0,0.0,0.0,1.0,-21.158536911,-7.62195110321,-24.2073173523,1.0,0.0,0.0,0.0,1.0,0.0,0.0,0.0,1.0,0.201112939453,0.287304199219,7.43160195312,1.0,0.0,0.0,0.0,1.0,0.0,0.0,0.0,1.0
1463922951995525130,326,1463922951811939248,,2.3894867897,-11.2398443222,119.925315857,0.0205160006881,1.0,0.0,0.0,0.0,1.0,0.0,0.0,0.0,1.0,-26.5243911743,-2.74390244484,-23.2926845551,1.0,0.0,0.0,0.0,1.0,0.0,0.0,0.0,1.0,0.411802685547,-0.670376464844,7.82425102539,1.0,0.0,0.0,0.0,1.0,0.0,0.0,0.0,1.0
1463922951995820181,327,1463922951831994006,,2.28069353104,-11.7725667953,119.313110352,0.020270999521,1.0,0.0,0.0,0.0,1.0,0.0,0.0,0.0,1.0,-26.8292694092,7.25609779358,-20.6707324982,1.0,0.0,0.0,0.0,1.0,0.0,0.0,0.0,1.0,0.732625708008,-1.16358193377,8.13070883789,1.0,0.0,0.0,0.0,1.0,0.0,0.0,0.0,1.0
1463922951996093357,328,1463922951852665116,,2.4286198616,-12.2996196747,118.692382812,0.0207809992135,1.0,0.0,0.0,0.0,1.0,0.0,0.0,0.0,1.0,-24.3902435303,16.0365848541,-18.3536586761,1.0,0.0,0.0,0.0,1.0,0.0,0.0,0.0,1.0,0.220266552734,-1.56101948242,8.64306857769,1.0,0.0,0.0,0.0,1.0,0.0,0.0,0.0,1.0
1463922951996356585,329,1463922951872792009,,2.67223858833,-12.7539110184,118.145492554,0.0200249999762,1.0,0.0,0.0,0.0,1.0,0.0,0.0,0.0,1.0,-20.4878044128,20.6097564697,-14.5731706619,1.0,0.0,0.0,0.0,1.0,0.0,0.0,0.0,1.0,0.210689746094,-1.97761057129,9.28950185688,1.0,0.0,0.0,0.0,1.0,0.0,0.0,0.0,1.0
1463922951996666844,330,1463922951893168276,,3.00405454636,-13.1244535446,117.645652771,0.0204029995948,1.0,0.0,0.0,0.0,1.0,0.0,0.0,0.0,1.0,-15.1829271317,20.9146347046,-11.4634151459,1.0,0.0,0.0,0.0,1.0,0.0,0.0,0.0,1.0,-0.397437475586,-2.25533796387,9.56723041851,1.0,0.0,0.0,0.0,1.0,0.0,0.0,0.0,1.0
1463922951996950853,331,1463922951913916573,,3.255849123,-13.376001358,117.21056366,0.0204680003226,1.0,0.0,0.0,0.0,1.0,0.0,0.0,0.0,1.0,-10.7317075729,16.5853652954,-9.14634132385,1.0,0.0,0.0,0.0,1.0,0.0,0.0,0.0,1.0,-0.45968671875,-2.23618435059,10.299855542,1.0,0.0,0.0,0.0,1.0,0.0,0.0,0.0,1.0
1463922951997430226,332,1463922951933989716,,3.44840574265,-13.5822792053,116.844825745,0.0203930009156,1.0,0.0,0.0,0.0,1.0,0.0,0.0,0.0,1.0,-7.68292665482,13.4146347046,-6.40243911743,1.0,0.0,0.0,0.0,1.0,0.0,0.0,0.0,1.0,-0.469263525391,-2.60010300293,10.8313683105,1.0,0.0,0.0,0.0,1.0,0.0,0.0,0.0,1.0
1463922951997927203,333,1463922951954182338,,3.57948422432,-13.6981477737,116.539573669,0.0203879997134,1.0,0.0,0.0,0.0,1.0,0.0,0.0,0.0,1.0,-3.84146332741,11.2195119858,-3.90243911743,1.0,0.0,0.0,0.0,1.0,0.0,0.0,0.0,1.0,-0.244208569336,-2.74854350586,11.6837041016,1.0,0.0,0.0,0.0,1.0,0.0,0.0,0.0,1.0
1463922951998641002,334,1463922951974646938,,3.63768053055,-13.7216596603,116.275939941,0.0204009991139,1.0,0.0,0.0,0.0,1.0,0.0,0.0,0.0,1.0,-1.34146344662,5.60975599289,-3.29268312454,1.0,0.0,0.0,0.0,1.0,0.0,0.0,0.0,1.0,-0.670376464844,-2.48039291992,12.3061965332,1.0,0.0,0.0,0.0,1.0,0.0,0.0,0.0,1.0
1463922952080862473,335,1463922951995185808,,3.57196235657,-13.7034416199,116.046554565,0.0203949995339,1.0,0.0,0.0,0.0,1.0,0.0,0.0,0.0,1.0,-0.792682945728,0.487804889679,-2.92682933807,1.0,0.0,0.0,0.0,1.0,0.0,0.0,0.0,1.0,-0.392649072266,-2.04943662109,11.6118780518,1.0,0.0,0.0,0.0,1.0,0.0,0.0,0.0,1.0
1463922952081350961,336,1463922952015760825,,3.44398641586,-13.7802324295,115.816375732,0.020530000329,1.0,0.0,0.0,0.0,1.0,0.0,0.0,0.0,1.0,-0.426829278469,-7.19512224197,-4.45121955872,1.0,0.0,0.0,0.0,1.0,0.0,0.0,0.0,1.0,-1.38863696289,-3.06936652832,11.3820346924,1.0,0.0,0.0,0.0,1.0,0.0,0.0,0.0,1.0
1463922952082136895,337,1463922952036040061,,2.98752641678,-13.7196960449,115.626014709,0.0202970001847,1.0,0.0,0.0,0.0,1.0,0.0,0.0,0.0,1.0,11.341463089,-22.5609760284,-6.0365858078,1.0,0.0,0.0,0.0,1.0,0.0,0.0,0.0,1.0,-1.31202250977,-4.68784655832,12.5599819092,1.0,0.0,0.0,0.0,1.0,0.0,0.0,0.0,1.0
1463922952082434342,338,1463922952056598046,,2.36849737167,-13.3013210297,115.536079407,0.02054399997,1.0,0.0,0.0,0.0,1.0,0.0,0.0,0.0,1.0,25.3048782349,-25.9146347046,-1.8292683363,1.0,0.0,0.0,0.0,1.0,0.0,0.0,0.0,1.0,0.076614453125,-4.04141240234,13.0436106445,1.0,0.0,0.0,0.0,1.0,0.0,0.0,0.0,1.0
1463922952082727726,339,1463922952076640044,,1.86209607124,-12.685218811,115.458786011,0.0202600006014,1.0,0.0,0.0,0.0,1.0,0.0,0.0,0.0,1.0,30.4268321991,-23.1097564697,-0.609756112099,1.0,0.0,0.0,0.0,1.0,0.0,0.0,0.0,1.0,-0.258573779297,-2.59052619629,12.3253501465,1.0,0.0,0.0,0.0,1.0,0.0,0.0,0.0,1.0
1463922952128144563,340,1463922952097197560,,1.41025805473,-12.0504589081,115.281204224,0.0204639993608,1.0,0.0,0.0,0.0,1.0,0.0,0.0,0.0,1.0,31.341463089,-21.7682933807,-5.0,1.0,0.0,0.0,0.0,1.0,0.0,0.0,0.0,1.0,-0.689530078125,-2.44687409668,12.0811415771,1.0,0.0,0.0,0.0,1.0,0.0,0.0,0.0,1.0
1463922952128916174,341,1463922952118578771,,0.951209425926,-11.3626852036,115.018218994,0.0209630001336,1.0,0.0,0.0,0.0,1.0,0.0,0.0,0.0,1.0,34.1463432312,-21.341463089,-8.5365858078,1.0,0.0,0.0,0.0,1.0,0.0,0.0,0.0,1.0,-0.656011254883,-2.45645090332,11.7315881348,1.0,0.0,0.0,0.0,1.0,0.0,0.0,0.0,1.0
1463922952157517823,342,1463922952141248934,,0.551264107227,-10.6287527084,114.699745178,0.0198389999568,1.0,0.0,0.0,0.0,1.0,0.0,0.0,0.0,1.0,34.5731735229,-17.1951217651,-11.0365858078,1.0,0.0,0.0,0.0,1.0,0.0,0.0,0.0,1.0,-0.124498486328,-1.43652099609,11.0899420898,1.0,0.0,0.0,0.0,1.0,0.0,0.0,0.0,1.0
1463922952175177695,343,1463922952158570422,,0.256831765175,-9.97318935394,114.292556763,0.0203639995307,1.0,0.0,0.0,0.0,1.0,0.0,0.0,0.0,1.0,27.8658542633,-8.17073154449,-13.1097564697,1.0,0.0,0.0,0.0,1.0,0.0,0.0,0.0,1.0,0.507570751953,-0.866701000977,10.3668931885,1.0,0.0,0.0,0.0,1.0,0.0,0.0,0.0,1.0
1463922952182221155,344,1463922952178922523,,0.250752836466,-9.4593667984,113.840164185,0.0204729996622,1.0,0.0,0.0,0.0,1.0,0.0,0.0,0.0,1.0,18.475610733,4.87804889679,-12.8658542633,1.0,0.0,0.0,0.0,1.0,0.0,0.0,0.0,1.0,0.344765039063,-0.31124621582,9.78749638672,1.0,0.0,0.0,0.0,1.0,0.0,0.0,0.0,1.0
1463922952202300860,345,1463922952199017906,,0.436328649521,-9.15390586853,113.380073547,0.0204070005566,1.0,0.0,0.0,0.0,1.0,0.0,0.0,0.0,1.0,9.5731716156,11.8292684555,-12.1951217651,1.0,0.0,0.0,0.0,1.0,0.0,0.0,0.0,1.0,-0.0430956298828,-0.397437475586,8.95431420898,1.0,0.0,0.0,0.0,1.0,0.0,0.0,0.0,1.0
1463922952221724736,346,1463922952220347242,,0.663053274155,-8.95614337921,112.881195068,0.0204649996012,1.0,0.0,0.0,0.0,1.0,0.0,0.0,0.0,1.0,2.13414645195,18.1097564697,-13.1097564697,1.0,0.0,0.0,0.0,1.0,0.0,0.0,0.0,1.0,0.493205541992,0.00957680664062,7.50342800293,1.0,0.0,0.0,0.0,1.0,0.0,0.0,0.0,1.0
1463922952244029953,347,1463922952241475537,,1.02778255939,-8.90211582184,112.294464111,0.0214859992266,1.0,0.0,0.0,0.0,1.0,0.0,0.0,0.0,1.0,-5.73170757294,23.475610733,-15.3048791885,1.0,0.0,0.0,0.0,1.0,0.0,0.0,0.0,1.0,0.292092584273,0.129286889648,6.33984599609,1.0,0.0,0.0,0.0,1.0,0.0,0.0,0.0,1.0
1463922952277319446,348,1463922952260432279,,1.33372426033,-8.96535015106,111.711547852,0.0192239992321,1.0,0.0,0.0,0.0,1.0,0.0,0.0,0.0,1.0,-10.7926826477,22.9878044128,-18.475610733,1.0,0.0,0.0,0.0,1.0,0.0,0.0,0.0,1.0,0.234631762695,0.067037651051,5.70298835449,1.0,0.0,0.0,0.0,1.0,0.0,0.0,0.0,1.0
1463922952303597615,349,1463922952280940108,,1.66547822952,-9.15341091156,111.048927307,0.0204629991204,1.0,0.0,0.0,0.0,1.0,0.0,0.0,0.0,1.0,-14.9390249252,23.5975627899,-20.4268302917,1.0,0.0,0.0,0.0,1.0,0.0,0.0,0.0,1.0,0.196324536133,-0.0957680664062,5.69341154785,1.0,0.0,0.0,0.0,1.0,0.0,0.0,0.0,1.0
1463922952306529321,350,1463922952301372937,,1.94316518307,-9.48466205597,110.351303101,0.020447999239,1.0,0.0,0.0,0.0,1.0,0.0,0.0,0.0,1.0,-15.4878053665,22.1341457367,-22.1951236725,1.0,0.0,0.0,0.0,1.0,0.0,0.0,0.0,1.0,0.253785375977,-0.790086547852,6.01423457031,1.0,0.0,0.0,0.0,1.0,0.0,0.0,0.0,1.0
1463922952325626271,351,1463922952322741596,,2.2525267601,-9.87660217285,109.608215332,0.0214830003679,1.0,0.0,0.0,0.0,1.0,0.0,0.0,0.0,1.0,-11.0365858078,19.0243911743,-22.8658542633,1.0,0.0,0.0,0.0,1.0,0.0,0.0,0.0,1.0,-0.258573779297,-1.69509477539,6.69897624512,1.0,0.0,0.0,0.0,1.0,0.0,0.0,0.0,1.0
1463922952375660223,352,1463922952342013128,,2.43066692352,-10.1223917007,108.990585327,0.0192300006747,1.0,0.0,0.0,0.0,1.0,0.0,0.0,0.0,1.0,-5.91463422775,16.4634151459,-20.7317085266,1.0,0.0,0.0,0.0,1.0,0.0,0.0,0.0,1.0,0.0526724365234,-1.96803376465,7.77636699219,1.0,0.0,0.0,0.0,1.0,0.0,0.0,0.0,1.0
1463922952375709650,353,1463922952362709029,,2.60289883614,-10.2351837158,108.447364807,0.0204089991748,1.0,0.0,0.0,0.0,1.0,0.0,0.0,0.0,1.0,-2.13414645195,15.8536596298,-15.3658533096,1.0,0.0,0.0,0.0,1.0,0.0,0.0,0.0,1.0,0.210689746094,-1.81001645508,9.25119521484,1.0,0.0,0.0,0.0,1.0,0.0,0.0,0.0,1.0
1463922952430914727,354,1463922952383273003,,2.84954881668,-10.2870569229,108.049552917,0.0204300004989,1.0,0.0,0.0,0.0,1.0,0.0,0.0,0.0,1.0,-2.31707310677,17.6219520569,-7.92682981491,1.0,0.0,0.0,0.0,1.0,0.0,0.0,0.0,1.0,0.0909796630859,-1.51792385254,10.5057568848,1.0,0.0,0.0,0.0,1.0,0.0,0.0,0.0,1.0
1463922952431186809,355,1463922952403285418,,3.09436440468,-10.3747272491,107.728485107,0.0203889999539,1.0,0.0,0.0,0.0,1.0,0.0,0.0,0.0,1.0,-7.13414621353,13.7804880142,-5.0,1.0,0.0,0.0,0.0,1.0,0.0,0.0,0.0,1.0,-0.584185168546,-1.02950671387,11.137826123,1.0,0.0,0.0,0.0,1.0,0.0,0.0,0.0,1.0
1463922952431504412,356,1463922952423680747,,3.20065402985,-10.5691986084,107.459350586,0.0204210001975,1.0,0.0,0.0,0.0,1.0,0.0,0.0,0.0,1.0,-13.1707324982,5.18292713165,-4.02439022064,1.0,0.0,0.0,0.0,1.0,0.0,0.0,0.0,1.0,-0.943315454102,-0.91458503418,11.3054202393,1.0,0.0,0.0,0.0,1.0,0.0,0.0,0.0,1.0
1463922952446217734,357,1463922952443991702,,3.1190264225,-10.8861656189,107.227241516,0.0203959997743,1.0,0.0,0.0,0.0,1.0,0.0,0.0,0.0,1.0,-19.817073822,-3.29268312454,-3.84146332741,1.0,0.0,0.0,0.0,1.0,0.0,0.0,0.0,1.0,-0.794874951172,-0.852335791016,11.3724578857,1.0,0.0,0.0,0.0,1.0,0.0,0.0,0.0,1.0
1463922952518328572,358,1463922952464772603,,2.91052246094,-11.3923597336,106.992752075,0.0204140003771,1.0,0.0,0.0,0.0,1.0,0.0,0.0,0.0,1.0,-25.0609760284,-8.04878044128,-4.69512224197,1.0,0.0,0.0,0.0,1.0,0.0,0.0,0.0,1.0,-0.541089611728,-1.80043964844,11.7411649414,1.0,0.0,0.0,0.0,1.0,0.0,0.0,0.0,1.0
1463922952518908153,359,1463922952485099183,,2.73181581497,-11.9230127335,106.832695007,0.0204169992357,1.0,0.0,0.0,0.0,1.0,0.0,0.0,0.0,1.0,-24.0243911743,-7.01219511032,-0.731707334518,1.0,0.0,0.0,0.0,1.0,0.0,0.0,0.0,1.0,-0.483628735352,-2.61925661621,12.6365963623,1.0,0.0,0.0,0.0,1.0,0.0,0.0,0.0,1.0
1463922952519274818,360,1463922952505593053,,2.62496495247,-12.425283432,106.742645264,0.0204099994153,1.0,0.0,0.0,0.0,1.0,0.0,0.0,0.0,1.0,-18.2926826477,-5.24390268326,3.29268312454,1.0,0.0,0.0,0.0,1.0,0.0,0.0,0.0,1.0,-0.727837304687,-4.05098920898,13.3883756836,1.0,0.0,0.0,0.0,1.0,0.0,0.0,0.0,1.0
1463922952530327427,361,1463922952525808227,,2.52184510231,-12.6632347107,106.751647949,0.0203970000148,1.0,0.0,0.0,0.0,1.0,0.0,0.0,0.0,1.0,-5.06097555161,-4.08536577225,8.47560977936,1.0,0.0,0.0,0.0,1.0,0.0,0.0,0.0,1.0,-0.210689746094,-4.66869294504,14.4944968506,1.0,0.0,0.0,0.0,1.0,0.0,0.0,0.0,1.0
1463922952572105425,362,1463922952546540066,,2.55985617638,-12.534907341,106.919235229,0.0204230006784,1.0,0.0,0.0,0.0,1.0,0.0,0.0,0.0,1.0,5.73170757294,4.39024400711,17.9878044128,1.0,0.0,0.0,0.0,1.0,0.0,0.0,0.0,1.0,0.675164868164,-2.70544787598,13.6900450928,1.0,0.0,0.0,0.0,1.0,0.0,0.0,0.0,1.0
1463922952572592975,363,1463922952566616334,,2.86562824249,-12.3739242554,107.06552124,0.0203900001943,1.0,0.0,0.0,0.0,1.0,0.0,0.0,0.0,1.0,0.18292683363,16.2195110321,19.2073173523,1.0,0.0,0.0,0.0,1.0,0.0,0.0,0.0,1.0,0.296881024126,-0.794874951172,12.1577560303,1.0,0.0,0.0,0.0,1.0,0.0,0.0,0.0,1.0
1463922952596292874,364,1463922952586975310,,3.22257351875,-12.365111351,107.088783264,0.0204620007426,1.0,0.0,0.0,0.0,1.0,0.0,0.0,0.0,1.0,-4.39024400711,11.8292684555,12.1341466904,1.0,0.0,0.0,0.0,1.0,0.0,0.0,0.0,1.0,-1.42694418945,-1.20667770978,11.0947304932,1.0,0.0,0.0,0.0,1.0,0.0,0.0,0.0,1.0
1463922952616891067,365,1463922952607430847,,3.25128221512,-12.4205665588,107.004241943,0.0203479994088,1.0,0.0,0.0,0.0,1.0,0.0,0.0,0.0,1.0,-3.04878044128,-2.56097555161,3.7804877758,1.0,0.0,0.0,0.0,1.0,0.0,0.0,0.0,1.0,-1.4604630127,-2.03028300781,10.9606552002,1.0,0.0,0.0,0.0,1.0,0.0,0.0,0.0,1.0
1463922952633149956,366,1463922952628050603,,2.99161863327,-12.4357395172,106.871772766,0.0204099994153,1.0,0.0,0.0,0.0,1.0,0.0,0.0,0.0,1.0,1.40243899822,-12.2560977936,-0.609756112099,1.0,0.0,0.0,0.0,1.0,0.0,0.0,0.0,1.0,-0.76614453125,-2.63362182617,11.4586491455,1.0,0.0,0.0,0.0,1.0,0.0,0.0,0.0,1.0
1463922952655464548,367,1463922952649259106,,2.66814446449,-12.3644943237,106.80947876,0.0204489994794,1.0,0.0,0.0,0.0,1.0,0.0,0.0,0.0,1.0,5.67073154449,-14.1463422775,2.5,1.0,0.0,0.0,0.0,1.0,0.0,0.0,0.0,1.0,-0.330399829102,-2.84431157227,12.124237207,1.0,0.0,0.0,0.0,1.0,0.0,0.0,0.0,1.0
1463922952677950910,368,1463922952669152667,,2.44037294388,-12.1698760986,106.823867798,0.0206170007586,1.0,0.0,0.0,0.0,1.0,0.0,0.0,0.0,1.0,7.98780536652,-10.6097564697,6.95121955872,1.0,0.0,0.0,0.0,1.0,0.0,0.0,0.0,1.0,-0.330399829102,-2.03028300781,11.9710083008,1.0,0.0,0.0,0.0,1.0,0.0,0.0,0.0,1.0
1463922952704859806,369,1463922952693121522,,2.28986048698,-11.8431882858,106.892311096,0.0243679992855,1.0,0.0,0.0,0.0,1.0,0.0,0.0,0.0,1.0,6.82926845551,-6.7682929039,9.75609779358,1.0,0.0,0.0,0.0,1.0,0.0,0.0,0.0,1.0,-0.325611425781,-0.756567724609,10.046070166,1.0,0.0,0.0,0.0,1.0,0.0,0.0,0.0,1.0
1463922952740490539,370,1463922952712435294,,2.21714472771,-11.6852111816,106.921035767,0.0187769997865,1.0,0.0,0.0,0.0,1.0,0.0,0.0,0.0,1.0,0.0609756112099,-6.21951246262,8.5365858078,1.0,0.0,0.0,0.0,1.0,0.0,0.0,0.0,1.0,-0.565031591797,-0.316034619141,8.64306857769,1.0,0.0,0.0,0.0,1.0,0.0,0.0,0.0,1.0
1463922952740538611,371,1463922952730380999,,2.1258687973,-11.5915489197,106.877693176,0.0182879995555,1.0,0.0,0.0,0.0,1.0,0.0,0.0,0.0,1.0,-4.45121955872,-6.95121955872,4.39024400711,1.0,0.0,0.0,0.0,1.0,0.0,0.0,0.0,1.0,-0.541089611728,-0.067037651051,7.54652363281,1.0,0.0,0.0,0.0,1.0,0.0,0.0,0.0,1.0
1463922952794136351,372,1463922952750631329,,2.0139040947,-11.5998239517,106.737220764,0.0202500000596,1.0,0.0,0.0,0.0,1.0,0.0,0.0,0.0,1.0,-9.14634132385,-5.97560977936,0.0,1.0,0.0,0.0,0.0,1.0,0.0,0.0,0.0,1.0,-0.402225878906,-0.134075302102,6.77559069824,1.0,0.0,0.0,0.0,1.0,0.0,0.0,0.0,1.0
1463922952794215049,373,1463922952771329261,,1.89228892326,-11.6986303329,106.48739624,0.0202530007809,1.0,0.0,0.0,0.0,1.0,0.0,0.0,0.0,1.0,-10.7926826477,-4.14634132385,-5.0,1.0,0.0,0.0,0.0,1.0,0.0,0.0,0.0,1.0,-0.225054956055,-0.426167895508,6.30153876953,1.0,0.0,0.0,0.0,1.0,0.0,0.0,0.0,1.0
1463922952794258173,374,1463922952791103031,,1.82451784611,-11.8905858994,106.225143433,0.0202990006655,1.0,0.0,0.0,0.0,1.0,0.0,0.0,0.0,1.0,-10.1219511032,4.2682929039,-3.65853667259,1.0,0.0,0.0,0.0,1.0,0.0,0.0,0.0,1.0,0.483628735352,-1.13485158691,6.92403120117,1.0,0.0,0.0,0.0,1.0,0.0,0.0,0.0,1.0
1463922952825141062,375,1463922952811724036,,2.02469301224,-12.0634288788,105.997451782,0.0204419996589,1.0,0.0,0.0,0.0,1.0,0.0,0.0,0.0,1.0,-5.18292713165,19.1463432312,1.46341466904,1.0,0.0,0.0,0.0,1.0,0.0,0.0,0.0,1.0,0.861912597656,-1.77170922852,7.3549875,1.0,0.0,0.0,0.0,1.0,0.0,0.0,0.0,1.0
1463922952839184856,376,1463922952831746971,,2.62579154968,-12.139538765,105.865943909,0.020331999287,1.0,0.0,0.0,0.0,1.0,0.0,0.0,0.0,1.0,0.426829278469,34.5731735229,9.63414573669,1.0,0.0,0.0,0.0,1.0,0.0,0.0,0.0,1.0,0.45968671875,-2.06859023437,7.86734665527,1.0,0.0,0.0,0.0,1.0,0.0,0.0,0.0,1.0
1463922952858045036,377,1463922952852403914,,3.46681904793,-12.0983934402,105.816444397,0.0204130001366,1.0,0.0,0.0,0.0,1.0,0.0,0.0,0.0,1.0,8.23170757294,41.0975646973,15.3048791885,1.0,0.0,0.0,0.0,1.0,0.0,0.0,0.0,1.0,-0.225054956055,-2.52827695312,8.26478413086,1.0,0.0,0.0,0.0,1.0,0.0,0.0,0.0,1.0
1463922952879162185,378,1463922952872891796,,4.32052755356,-11.8211317062,105.817779541,0.0204189997166,1.0,0.0,0.0,0.0,1.0,0.0,0.0,0.0,1.0,15.7317075729,38.0487823486,16.8902435303,1.0,0.0,0.0,0.0,1.0,0.0,0.0,0.0,1.0,-0.881066210937,-2.00634099121,8.70052883301,1.0,0.0,0.0,0.0,1.0,0.0,0.0,0.0,1.0
1463922952939816457,379,1463922952893143063,,5.04734897614,-11.3902931213,105.781921387,0.0204189997166,1.0,0.0,0.0,0.0,1.0,0.0,0.0,0.0,1.0,17.5609760284,29.4512195587,12.5609760284,1.0,0.0,0.0,0.0,1.0,0.0,0.0,0.0,1.0,-1.65199914551,-1.13963999023,9.70130512695,1.0,0.0,0.0,0.0,1.0,0.0,0.0,0.0,1.0
1463922952945695495,380,1463922952913718913,,5.55270290375,-11.0448598862,105.752929688,0.0204060003161,1.0,0.0,0.0,0.0,1.0,0.0,0.0,0.0,1.0,15.7926826477,22.1341457367,11.4024391174,1.0,0.0,0.0,0.0,1.0,0.0,0.0,0.0,1.0,-1.32638771973,-1.68551796875,10.9175595703,1.0,0.0,0.0,0.0,1.0,0.0,0.0,0.0,1.0
1463922952947626528,381,1463922952934085909,,6.02013492584,-10.7306871414,105.701622009,0.0205210000277,1.0,0.0,0.0,0.0,1.0,0.0,0.0,0.0,1.0,15.8536596298,22.0731716156,10.3048782349,1.0,0.0,0.0,0.0,1.0,0.0,0.0,0.0,1.0,-1.21146604004,-2.14520483363,12.138602417,1.0,0.0,0.0,0.0,1.0,0.0,0.0,0.0,1.0
1463922953021674180,382,1463922952954360874,,6.60700035095,-10.4381437302,105.548065186,0.0203269999474,1.0,0.0,0.0,0.0,1.0,0.0,0.0,0.0,1.0,16.7073173523,30.975610733,6.89024400711,1.0,0.0,0.0,0.0,1.0,0.0,0.0,0.0,1.0,-0.905008227539,-2.43729729004,12.6270195557,1.0,0.0,0.0,0.0,1.0,0.0,0.0,0.0,1.0
1463922953021726055,383,1463922952974536465,,7.45322561264,-10.0947980881,105.24131012,0.0203660000116,1.0,0.0,0.0,0.0,1.0,0.0,0.0,0.0,1.0,19.817073822,46.7073173523,2.01219511032,1.0,0.0,0.0,0.0,1.0,0.0,0.0,0.0,1.0,-0.579396801758,-2.24097275391,12.3875993896,1.0,0.0,0.0,0.0,1.0,0.0,0.0,0.0,1.0
1463922953022018450,384,1463922952995089554,,8.78838348389,-9.76544952393,104.719474792,0.0204130001366,1.0,0.0,0.0,0.0,1.0,0.0,0.0,0.0,1.0,20.1829280853,75.6707305908,-3.71951246262,1.0,0.0,0.0,0.0,1.0,0.0,0.0,0.0,1.0,0.067037651051,-1.93451494141,11.9135474609,1.0,0.0,0.0,0.0,1.0,0.0,0.0,0.0,1.0
1463922953022306000,385,1463922953015782226,,10.6862354279,-9.57550907135,103.940238953,0.0204039998353,1.0,0.0,0.0,0.0,1.0,0.0,0.0,0.0,1.0,20.9146347046,97.865852356,-12.0121955872,1.0,0.0,0.0,0.0,1.0,0.0,0.0,0.0,1.0,-1.838746875,-3.05500131836,12.4737906494,1.0,0.0,0.0,0.0,1.0,0.0,0.0,0.0,1.0
1463922953069386476,386,1463922953036035369,,13.0333681107,-9.28989505768,103.03502655,0.0204199999571,1.0,0.0,0.0,0.0,1.0,0.0,0.0,0.0,1.0,34.2073173523,127.073165894,-12.0121955872,1.0,0.0,0.0,0.0,1.0,0.0,0.0,0.0,1.0,-0.694318481445,-4.77403840261,13.2973960205,1.0,0.0,0.0,0.0,1.0,0.0,0.0,0.0,1.0
1463922953069465955,387,1463922953056480959,,15.9983787537,-8.61041259766,102.119644165,0.0204310007393,1.0,0.0,0.0,0.0,1.0,0.0,0.0,0.0,1.0,49.7560997009,154.39024353,-9.63414573669,1.0,0.0,0.0,0.0,1.0,0.0,0.0,0.0,1.0,-1.69030637207,-2.84431157227,11.8656634277,1.0,0.0,0.0,0.0,1.0,0.0,0.0,0.0,1.0
1463922953105317833,388,1463922953076547123,,19.3883781433,-7.91917419434,101.256149292,0.0203530006111,1.0,0.0,0.0,0.0,1.0,0.0,0.0,0.0,1.0,48.2926864624,173.658538818,-6.52439069748,1.0,0.0,0.0,0.0,1.0,0.0,0.0,0.0,1.0,-2.56179577637,-1.78128603516,11.4969563721,1.0,0.0,0.0,0.0,1.0,0.0,0.0,0.0,1.0
1463922953105408041,389,1463922953097064066,,22.976644516,-7.29220247269,100.396652222,0.0204550009221,1.0,0.0,0.0,0.0,1.0,0.0,0.0,0.0,1.0,49.4512176514,173.658538818,-6.46341466904,1.0,0.0,0.0,0.0,1.0,0.0,0.0,0.0,1.0,-4.94642062988,-2.03507141113,10.7356002441,1.0,0.0,0.0,0.0,1.0,0.0,0.0,0.0,1.0
1463922953125568111,390,1463922953117357469,,26.1792678833,-6.21601772308,99.8090591431,0.0203649997711,1.0,0.0,0.0,0.0,1.0,0.0,0.0,0.0,1.0,46.4634170532,162.073181152,-6.64634132385,1.0,0.0,0.0,0.0,1.0,0.0,0.0,0.0,1.0,-2.4277204834,1.95845695801,6.75643708496,1.0,0.0,0.0,0.0,1.0,0.0,0.0,0.0,1.0
1463922953150270558,391,1463922953138364775,,28.9628982544,-5.65116071701,99.0781860352,0.020408000797,1.0,0.0,0.0,0.0,1.0,0.0,0.0,0.0,1.0,47.5609779358,137.195114136,-7.62195110321,1.0,0.0,0.0,0.0,1.0,0.0,0.0,0.0,1.0,-4.86501777344,-1.44609780273,9.25598361816,1.0,0.0,0.0,0.0,1.0,0.0,0.0,0.0,1.0
1463922953163138575,392,1463922953158436564,,31.4519710541,-4.98701047897,98.5427474976,0.0204060003161,1.0,0.0,0.0,0.0,1.0,0.0,0.0,0.0,1.0,46.8902435303,120.853660583,-2.62195134163,1.0,0.0,0.0,0.0,1.0,0.0,0.0,0.0,1.0,-5.17626398926,-0.823605371094,8.45631967915,1.0,0.0,0.0,0.0,1.0,0.0,0.0,0.0,1.0
1463922953181740215,393,1463922953178764967,,33.6830024719,-4.2292675972,98.2455291748,0.0205310005695,1.0,0.0,0.0,0.0,1.0,0.0,0.0,0.0,1.0,39.2682914734,106.463417053,1.09756100178,1.0,0.0,0.0,0.0,1.0,0.0,0.0,0.0,1.0,-4.99909306641,0.588973571866,7.38850632324,1.0,0.0,0.0,0.0,1.0,0.0,0.0,0.0,1.0
1463922953211875086,394,1463922953208144685,,35.5562515259,-3.40426969528,98.2855911255,0.0202980004251,1.0,0.0,0.0,0.0,1.0,0.0,0.0,0.0,1.0,26.7073173523,90.1829299927,6.95121955872,1.0,0.0,0.0,0.0,1.0,0.0,0.0,0.0,1.0,-4.58250197754,1.96803376465,6.47870969238,1.0,0.0,0.0,0.0,1.0,0.0,0.0,0.0,1.0
1463922953231340315,395,1463922953226130598,,37.0333404541,-2.87111163139,98.4915618896,0.0204930007458,1.0,0.0,0.0,0.0,1.0,0.0,0.0,0.0,1.0,7.07317113876,69.0243911743,10.3048782349,1.0,0.0,0.0,0.0,1.0,0.0,0.0,0.0,1.0,-4.0078935791,1.7908628418,5.15711037598,1.0,0.0,0.0,0.0,1.0,0.0,0.0,0.0,1.0
1463922953250621170,396,1463922953247971754,,37.8209533691,-2.85590839386,98.5244064331,0.0203130003065,1.0,0.0,0.0,0.0,1.0,0.0,0.0,0.0,1.0,-7.68292665482,28.2317066193,4.69512224197,1.0,0.0,0.0,0.0,1.0,0.0,0.0,0.0,1.0,-5.07570751953,1.11569797363,4.67348134836,1.0,0.0,0.0,0.0,1.0,0.0,0.0,0.0,1.0
1463922953271307280,397,1463922953268535208,,37.8390541077,-3.01037812233,98.5728988647,0.0210030004382,1.0,0.0,0.0,0.0,1.0,0.0,0.0,0.0,1.0,-16.8292694092,-14.6951217651,2.25609779358,1.0,0.0,0.0,0.0,1.0,0.0,0.0,0.0,1.0,-5.71256516113,1.31202250977,4.24252563406,1.0,0.0,0.0,0.0,1.0,0.0,0.0,0.0,1.0
1463922953295398114,398,1463922953284713056,,36.9352073669,-3.3887989521,98.4911346436,0.0237530004233,1.0,0.0,0.0,0.0,1.0,0.0,0.0,0.0,1.0,-20.9146347046,-54.9390258789,-3.96341490746,1.0,0.0,0.0,0.0,1.0,0.0,0.0,0.0,1.0,-5.93762011719,1.17794714373,4.15633378977,1.0,0.0,0.0,0.0,1.0,0.0,0.0,0.0,1.0
1463922953305628175,399,1463922953301987773,,35.6128387451,-3.68928694725,98.5263595581,0.0164720006287,1.0,0.0,0.0,0.0,1.0,0.0,0.0,0.0,1.0,-28.2926845551,-90.9756164551,-3.35365867615,1.0,0.0,0.0,0.0,1.0,0.0,0.0,0.0,1.0,-4.97036264648,1.29286889648,4.57771357422,1.0,0.0,0.0,0.0,1.0,0.0,0.0,0.0,1.0
1463922953325569027,400,1463922953321829616,,33.0892715454,-4.20812749863,98.7557983398,0.0204240009189,1.0,0.0,0.0,0.0,1.0,0.0,0.0,0.0,1.0,-37.7439041138,-132.56098938,2.92682933807,1.0,0.0,0.0,0.0,1.0,0.0,0.0,0.0,1.0,-4.88895979004,0.837970581055,5.11880314941,1.0,0.0,0.0,0.0,1.0,0.0,0.0,0.0,1.0
1463922953360348878,401,1463922953344580456,,29.8493938446,-4.83923196793,99.2342300415,0.0204559992999,1.0,0.0,0.0,0.0,1.0,0.0,0.0,0.0,1.0,-41.8902435303,-166.341461182,14.7560987473,1.0,0.0,0.0,0.0,1.0,0.0,0.0,0.0,1.0,-5.01345827637,-0.392649072266,6.13394465332,1.0,0.0,0.0,0.0,1.0,0.0,0.0,0.0,1.0
1463922953378390207,402,1463922953362988086,,25.8938961029,-5.37645196915,100.115829468,0.0203569997102,1.0,0.0,0.0,0.0,1.0,0.0,0.0,0.0,1.0,-43.5975608826,-199.634155273,29.5121974945,1.0,0.0,0.0,0.0,1.0,0.0,0.0,0.0,1.0,-4.6208092041,-0.909796630859,7.47469758301,1.0,0.0,0.0,0.0,1.0,0.0,0.0,0.0,1.0
1463922953401749014,403,1463922953383189770,,21.3641033173,-5.82734584808,101.436203003,0.0204160008579,1.0,0.0,0.0,0.0,1.0,0.0,0.0,0.0,1.0,-44.8780479431,-224.207321167,46.3414649963,1.0,0.0,0.0,0.0,1.0,0.0,0.0,0.0,1.0,-3.6056677002,-1.13006318359,8.68616362305,1.0,0.0,0.0,0.0,1.0,0.0,0.0,0.0,1.0
1463922953421719137,404,1463922953403612026,,16.5579586029,-6.17318582535,103.285644531,0.0204099994153,1.0,0.0,0.0,0.0,1.0,0.0,0.0,0.0,1.0,-45.1219520569,-234.878051758,69.3902435303,1.0,0.0,0.0,0.0,1.0,0.0,0.0,0.0,1.0,-1.95845695801,-0.9193734375,9.24640681152,1.0,0.0,0.0,0.0,1.0,0.0,0.0,0.0,1.0
1463922953453430511,405,1463922953423679024,,11.7128076553,-6.5612950325,105.575035095,0.0203949995339,1.0,0.0,0.0,0.0,1.0,0.0,0.0,0.0,1.0,-48.3536567688,-231.524398804,90.6707382202,1.0,0.0,0.0,0.0,1.0,0.0,0.0,0.0,1.0,0.282515795898,-0.478840332031,10.0364933594,1.0,0.0,0.0,0.0,1.0,0.0,0.0,0.0,1.0
1463922953453477699,406,1463922953444068208,,7.29251861572,-7.27080106735,107.930152893,0.0204130001366,1.0,0.0,0.0,0.0,1.0,0.0,0.0,0.0,1.0,-53.0487823486,-221.95123291,95.6097564697,1.0,0.0,0.0,0.0,1.0,0.0,0.0,0.0,1.0,-0.699106884766,-1.07260241682,10.2280294922,1.0,0.0,0.0,0.0,1.0,0.0,0.0,0.0,1.0
1463922953536048179,407,1463922953464400725,,2.88591980934,-8.21390914917,110.299972534,0.0203910004348,1.0,0.0,0.0,0.0,1.0,0.0,0.0,0.0,1.0,-53.2317085266,-217.439025879,95.5487823486,1.0,0.0,0.0,0.0,1.0,0.0,0.0,0.0,1.0,1.24019645996,-1.80043964844,10.9175595703,1.0,0.0,0.0,0.0,1.0,0.0,0.0,0.0,1.0
1463922953536359584,408,1463922953484785898,,-1.29004275799,-9.22645759583,112.490104675,0.0204349998385,1.0,0.0,0.0,0.0,1.0,0.0,0.0,0.0,1.0,-46.5243911743,-209.390258789,84.5731735229,1.0,0.0,0.0,0.0,1.0,0.0,0.0,0.0,1.0,1.45088620605,-2.28406838379,11.2000753662,1.0,0.0,0.0,0.0,1.0,0.0,0.0,0.0,1.0
1463922953536409688,409,1463922953505241957,,-4.89682435989,-10.2721681595,114.625656128,0.0204050000757,1.0,0.0,0.0,0.0,1.0,0.0,0.0,0.0,1.0,-40.5487823486,-195.06098938,80.6707382202,1.0,0.0,0.0,0.0,1.0,0.0,0.0,0.0,1.0,-0.220266552734,-2.91134921875,12.5456166992,1.0,0.0,0.0,0.0,1.0,0.0,0.0,0.0,1.0
1463922953536452709,410,1463922953525618484,,-8.59649848938,-11.2593231201,116.619300842,0.0204060003161,1.0,0.0,0.0,0.0,1.0,0.0,0.0,0.0,1.0,-19.8780498505,-197.439025879,68.1097564697,1.0,0.0,0.0,0.0,1.0,0.0,0.0,0.0,1.0,1.02471831055,-6.17225187988,12.3732341797,1.0,0.0,0.0,0.0,1.0,0.0,0.0,0.0,1.0
1463922953712142218,411,1463922953546060220,,-11.7192716599,-11.6438732147,118.594299316,0.0204140003771,1.0,0.0,0.0,0.0,1.0,0.0,0.0,0.0,1.0,0.243902444839,-152.56098938,74.3902511597,1.0,0.0,0.0,0.0,1.0,0.0,0.0,0.0,1.0,6.54574733887,-2.73896669922,12.7563064453,1.0,0.0,0.0,0.0,1.0,0.0,0.0,0.0,1.0
1463922953712181124,412,1463922953566525497,,-13.4352760315,-11.917804718,120.227668762,0.0204310007393,1.0,0.0,0.0,0.0,1.0,0.0,0.0,0.0,1.0,-3.84146332741,-85.2439041138,72.1951293945,1.0,0.0,0.0,0.0,1.0,0.0,0.0,0.0,1.0,5.7508723877,-0.220266552734,11.6023012451,1.0,0.0,0.0,0.0,1.0,0.0,0.0,0.0,1.0
1463922953712222426,413,1463922953586873899,,-13.99451828,-12.3088788986,121.474571228,0.0203900001943,1.0,0.0,0.0,0.0,1.0,0.0,0.0,0.0,1.0,-6.09756088257,-32.134147644,62.9268302917,1.0,0.0,0.0,0.0,1.0,0.0,0.0,0.0,1.0,4.58729038086,-1.77170922852,11.286266626,1.0,0.0,0.0,0.0,1.0,0.0,0.0,0.0,1.0
1463922953712259249,414,1463922953607393395,,-13.8404169083,-12.4709653854,122.184906006,0.0204140003771,1.0,0.0,0.0,0.0,1.0,0.0,0.0,0.0,1.0,0.18292683363,2.31707310677,44.0243911743,1.0,0.0,0.0,0.0,1.0,0.0,0.0,0.0,1.0,3.31357509766,-1.97761057129,10.5057568848,1.0,0.0,0.0,0.0,1.0,0.0,0.0,0.0,1.0
1463922953712291696,415,1463922953629116792,,-13.2081861496,-12.4960641861,122.541114807,0.0203939992934,1.0,0.0,0.0,0.0,1.0,0.0,0.0,0.0,1.0,3.41463422775,28.4146347046,32.5,1.0,0.0,0.0,0.0,1.0,0.0,0.0,0.0,1.0,3.11725056152,-2.11647412145,10.2232410889,1.0,0.0,0.0,0.0,1.0,0.0,0.0,0.0,1.0
1463922953712327061,416,1463922953648254053,,-11.8710403442,-12.3123083115,122.592544556,0.0204009991139,1.0,0.0,0.0,0.0,1.0,0.0,0.0,0.0,1.0,12.0121955872,64.4512252808,25.1219520569,1.0,0.0,0.0,0.0,1.0,0.0,0.0,0.0,1.0,2.83952316895,-2.5234885498,10.3094323486,1.0,0.0,0.0,0.0,1.0,0.0,0.0,0.0,1.0
1463922953712370654,417,1463922953668817820,,-9.9071598053,-11.932425499,122.436225891,0.0203970000148,1.0,0.0,0.0,0.0,1.0,0.0,0.0,0.0,1.0,20.6707324982,102.439025879,22.6219520569,1.0,0.0,0.0,0.0,1.0,0.0,0.0,0.0,1.0,3.97916315918,-2.84909997559,10.8457335205,1.0,0.0,0.0,0.0,1.0,0.0,0.0,0.0,1.0
1463922953731875519,418,1463922953688953307,,-7.34502601624,-11.3310308456,122.045814514,0.0204140003771,1.0,0.0,0.0,0.0,1.0,0.0,0.0,0.0,1.0,26.8902454376,122.5,14.8780498505,1.0,0.0,0.0,0.0,1.0,0.0,0.0,0.0,1.0,1.11090957031,-1.89620771484,9.8545340332,1.0,0.0,0.0,0.0,1.0,0.0,0.0,0.0,1.0
1463922953731933852,419,1463922953709352126,,-4.62970352173,-10.6551017761,121.523780823,0.0204160008579,1.0,0.0,0.0,0.0,1.0,0.0,0.0,0.0,1.0,27.6219520569,130.731704712,8.84146404266,1.0,0.0,0.0,0.0,1.0,0.0,0.0,0.0,1.0,0.565031591797,-1.19710090314,9.60074924175,1.0,0.0,0.0,0.0,1.0,0.0,0.0,0.0,1.0
1463922953768990256,420,1463922953729676987,,-2.00334596634,-9.91269111633,120.765281677,0.0203930009156,1.0,0.0,0.0,0.0,1.0,0.0,0.0,0.0,1.0,25.4268302917,132.256103516,-4.02439022064,1.0,0.0,0.0,0.0,1.0,0.0,0.0,0.0,1.0,0.598550451572,-0.0383072265625,7.93438430176,1.0,0.0,0.0,0.0,1.0,0.0,0.0,0.0,1.0
1463922953769278276,421,1463922953750254242,,0.566371917725,-9.43787765503,119.755203247,0.0204140003771,1.0,0.0,0.0,0.0,1.0,0.0,0.0,0.0,1.0,16.4634151459,144.207321167,-16.341463089,1.0,0.0,0.0,0.0,1.0,0.0,0.0,0.0,1.0,1.93451494141,-0.258573779297,7.23048901367,1.0,0.0,0.0,0.0,1.0,0.0,0.0,0.0,1.0
1463922953811273721,422,1463922953770496916,,3.60563278198,-9.2194519043,118.492881775,0.0204070005566,1.0,0.0,0.0,0.0,1.0,0.0,0.0,0.0,1.0,11.8292684555,166.219512939,-26.3414649963,1.0,0.0,0.0,0.0,1.0,0.0,0.0,0.0,1.0,1.28808049316,-0.9193734375,7.54173522949,1.0,0.0,0.0,0.0,1.0,0.0,0.0,0.0,1.0
1463922953811322523,423,1463922953790905214,,6.8780670166,-9.05391025543,116.874046326,0.0204240009189,1.0,0.0,0.0,0.0,1.0,0.0,0.0,0.0,1.0,7.13414621353,169.573181152,-44.2073173523,1.0,0.0,0.0,0.0,1.0,0.0,0.0,0.0,1.0,-0.588973571866,0.067037651051,8.0157871582,1.0,0.0,0.0,0.0,1.0,0.0,0.0,0.0,1.0
1463922953857595971,424,1463922953811467054,,10.0600185394,-9.20971393585,115.13571167,0.0203980002552,1.0,0.0,0.0,0.0,1.0,0.0,0.0,0.0,1.0,-5.30487823486,158.84147644,-52.134147644,1.0,0.0,0.0,0.0,1.0,0.0,0.0,0.0,1.0,-2.16435844691,0.440533105469,7.99663354492,1.0,0.0,0.0,0.0,1.0,0.0,0.0,0.0,1.0
1463922953859307109,425,1463922953834447737,,12.7880878448,-9.92979812622,113.298019409,0.0204039998353,1.0,0.0,0.0,0.0,1.0,0.0,0.0,0.0,1.0,-15.3658533096,155.731704712,-54.0243911743,1.0,0.0,0.0,0.0,1.0,0.0,0.0,0.0,1.0,0.00957680664062,-1.52271225586,8.56166572124,1.0,0.0,0.0,0.0,1.0,0.0,0.0,0.0,1.0
1463922953952898636,426,1463922953852205421,,15.7533454895,-10.7636785507,111.3151474,0.0204109996557,1.0,0.0,0.0,0.0,1.0,0.0,0.0,0.0,1.0,-8.65853691101,162.621948242,-55.182926178,1.0,0.0,0.0,0.0,1.0,0.0,0.0,0.0,1.0,-1.50355864258,-2.84909997559,9.1219083252,1.0,0.0,0.0,0.0,1.0,0.0,0.0,0.0,1.0
1463922953953185510,427,1463922953872583615,,18.4681606293,-11.4474601746,109.243217468,0.0203949995339,1.0,0.0,0.0,0.0,1.0,0.0,0.0,0.0,1.0,-4.20731735229,139.329269409,-62.8048782349,1.0,0.0,0.0,0.0,1.0,0.0,0.0,0.0,1.0,-4.22815983957,-1.33596452637,8.72447084961,1.0,0.0,0.0,0.0,1.0,0.0,0.0,0.0,1.0
1463922953953440405,428,1463922953893120194,,20.5533428192,-12.2900905609,107.1040802,0.0204179994762,1.0,0.0,0.0,0.0,1.0,0.0,0.0,0.0,1.0,-9.69512176514,103.414634705,-71.4024429321,1.0,0.0,0.0,0.0,1.0,0.0,0.0,0.0,1.0,-5.86579406738,-0.76614453125,8.12113203125,1.0,0.0,0.0,0.0,1.0,0.0,0.0,0.0,1.0
1463922953953889882,429,1463922953913505940,,21.8359222412,-13.1705389023,105.269943237,0.0204099994153,1.0,0.0,0.0,0.0,1.0,0.0,0.0,0.0,1.0,-10.7317075729,77.9268264771,-59.6341438293,1.0,0.0,0.0,0.0,1.0,0.0,0.0,0.0,1.0,-4.39096584473,-2.04464821777,10.7116582275,1.0,0.0,0.0,0.0,1.0,0.0,0.0,0.0,1.0
1463922954134398017,430,1463922953933948665,,22.6729717255,-13.887008667,103.713378906,0.0204649996012,1.0,0.0,0.0,0.0,1.0,0.0,0.0,0.0,1.0,-3.29268312454,51.9512214661,-50.1219520569,1.0,0.0,0.0,0.0,1.0,0.0,0.0,0.0,1.0,-5.4922986084,-3.02627089844,11.1186725098,1.0,0.0,0.0,0.0,1.0,0.0,0.0,0.0,1.0
1463922954134716557,431,1463922953954159256,,22.888338089,-14.307926178,102.62386322,0.0203310009092,1.0,0.0,0.0,0.0,1.0,0.0,0.0,0.0,1.0,-0.487804889679,13.5365858078,-39.390247345,1.0,0.0,0.0,0.0,1.0,0.0,0.0,0.0,1.0,-6.46434448242,-2.13083962367,10.3860468018,1.0,0.0,0.0,0.0,1.0,0.0,0.0,0.0,1.0
1463922954136022697,432,1463922953974666720,,22.4047279358,-14.5120420456,102.054496765,0.0204349998385,1.0,0.0,0.0,0.0,1.0,0.0,0.0,0.0,1.0,-0.0609756112099,-21.7682933807,-24.3292694092,1.0,0.0,0.0,0.0,1.0,0.0,0.0,0.0,1.0,-5.7748144043,-2.21224233398,10.673351001,1.0,0.0,0.0,0.0,1.0,0.0,0.0,0.0,1.0
1463922954136653424,433,1463922953995513454,,21.2946147919,-14.5604915619,101.920379639,0.0204150006175,1.0,0.0,0.0,0.0,1.0,0.0,0.0,0.0,1.0,4.2682929039,-59.1463394165,-11.8292684555,1.0,0.0,0.0,0.0,1.0,0.0,0.0,0.0,1.0,-6.37336481934,-3.46680400391,10.5823713379,1.0,0.0,0.0,0.0,1.0,0.0,0.0,0.0,1.0
1463922954136943006,434,1463922954015506337,,19.485414505,-14.2550954819,102.157707214,0.0203980002552,1.0,0.0,0.0,0.0,1.0,0.0,0.0,0.0,1.0,20.3658542633,-95.5487823486,-1.58536589146,1.0,0.0,0.0,0.0,1.0,0.0,0.0,0.0,1.0,-5.95677373047,-4.89853659668,10.778695874,1.0,0.0,0.0,0.0,1.0,0.0,0.0,0.0,1.0
1463922954137493681,435,1463922954035981094,,17.0147247314,-13.4133434296,102.754470825,0.0204169992357,1.0,0.0,0.0,0.0,1.0,0.0,0.0,0.0,1.0,38.4756126404,-130.243911743,6.64634132385,1.0,0.0,0.0,0.0,1.0,0.0,0.0,0.0,1.0,-5.13316835937,-3.87860668945,10.5488525146,1.0,0.0,0.0,0.0,1.0,0.0,0.0,0.0,1.0
1463922954137984356,436,1463922954056440694,,14.0777893066,-12.2099399567,103.624633789,0.0204230006784,1.0,0.0,0.0,0.0,1.0,0.0,0.0,0.0,1.0,43.7195129395,-152.256103516,14.0853662491,1.0,0.0,0.0,0.0,1.0,0.0,0.0,0.0,1.0,-3.59609089355,-1.34075292969,10.0364933594,1.0,0.0,0.0,0.0,1.0,0.0,0.0,0.0,1.0
1463922954139576328,437,1463922954076641649,,10.8743629456,-11.1571121216,104.517791748,0.0203830003738,1.0,0.0,0.0,0.0,1.0,0.0,0.0,0.0,1.0,39.390247345,-164.146347046,16.9512195587,1.0,0.0,0.0,0.0,1.0,0.0,0.0,0.0,1.0,-2.59052619629,-1.29286889648,9.5432884019,1.0,0.0,0.0,0.0,1.0,0.0,0.0,0.0,1.0
1463922954140059607,438,1463922954097193436,,7.58805847168,-10.2137289047,105.422035217,0.020422000438,1.0,0.0,0.0,0.0,1.0,0.0,0.0,0.0,1.0,45.0609779358,-159.939025879,23.5975627899,1.0,0.0,0.0,0.0,1.0,0.0,0.0,0.0,1.0,-0.598550451572,-2.85388837891,10.0029745361,1.0,0.0,0.0,0.0,1.0,0.0,0.0,0.0,1.0
1463922954140597365,439,1463922954118021680,,4.58732891083,-9.1866312027,106.35030365,0.0204140003771,1.0,0.0,0.0,0.0,1.0,0.0,0.0,0.0,1.0,54.1463432312,-148.231704712,29.9390258789,1.0,0.0,0.0,0.0,1.0,0.0,0.0,0.0,1.0,-0.392649072266,-3.28963308105,10.314220752,1.0,0.0,0.0,0.0,1.0,0.0,0.0,0.0,1.0
1463922954435893863,440,1463922954138354927,,1.84928143024,-7.93645000458,107.283638,0.0203920006752,1.0,0.0,0.0,0.0,1.0,0.0,0.0,0.0,1.0,60.9756088257,-134.39024353,34.5121955872,1.0,0.0,0.0,0.0,1.0,0.0,0.0,0.0,1.0,0.296881024126,-1.838746875,10.3333743652,1.0,0.0,0.0,0.0,1.0,0.0,0.0,0.0,1.0
1463922954436229174,441,1463922954158503643,,-0.565797328949,-6.72047805786,108.096992493,0.0204060003161,1.0,0.0,0.0,0.0,1.0,0.0,0.0,0.0,1.0,58.1097564697,-116.707321167,33.5975608826,1.0,0.0,0.0,0.0,1.0,0.0,0.0,0.0,1.0,0.852335791016,-0.952892260742,9.86411083984,1.0,0.0,0.0,0.0,1.0,0.0,0.0,0.0,1.0
1463922954436562298,442,1463922954178857410,,-2.62607359886,-5.64594459534,108.745185852,0.0204990003258,1.0,0.0,0.0,0.0,1.0,0.0,0.0,0.0,1.0,51.4634170532,-102.439025879,29.2073173523,1.0,0.0,0.0,0.0,1.0,0.0,0.0,0.0,1.0,0.383072265625,-0.569819995117,9.32780908345,1.0,0.0,0.0,0.0,1.0,0.0,0.0,0.0,1.0
1463922954437032817,443,1463922954199263833,,-4.61244916916,-4.68591594696,109.27457428,0.0204240009189,1.0,0.0,0.0,0.0,1.0,0.0,0.0,0.0,1.0,42.8048782349,-90.4268264771,26.7073173523,1.0,0.0,0.0,0.0,1.0,0.0,0.0,0.0,1.0,1.93451494141,0.277727392578,8.74841286621,1.0,0.0,0.0,0.0,1.0,0.0,0.0,0.0,1.0
1463922954437576356,444,1463922954219500413,,-6.11477613449,-3.91517686844,109.680969238,0.0203089993447,1.0,0.0,0.0,0.0,1.0,0.0,0.0,0.0,1.0,28.6585388184,-65.7926864624,24.6341457367,1.0,0.0,0.0,0.0,1.0,0.0,0.0,0.0,1.0,2.24576115723,1.24019645996,8.2264769043,1.0,0.0,0.0,0.0,1.0,0.0,0.0,0.0,1.0
1463922954437687605,445,1463922954239845899,,-7.18793869019,-3.46852231026,110.002693176,0.0204000007361,1.0,0.0,0.0,0.0,1.0,0.0,0.0,0.0,1.0,12.7439022064,-46.8292694092,22.5609760284,1.0,0.0,0.0,0.0,1.0,0.0,0.0,0.0,1.0,1.92014973145,1.24498486328,7.77157858887,1.0,0.0,0.0,0.0,1.0,0.0,0.0,0.0,1.0
1463922954438136301,446,1463922954260318312,,-7.92695808411,-3.34673428535,110.270698547,0.0204060003161,1.0,0.0,0.0,0.0,1.0,0.0,0.0,0.0,1.0,0.365853667259,-27.682926178,21.0365848541,1.0,0.0,0.0,0.0,1.0,0.0,0.0,0.0,1.0,2.30801040039,0.746990917969,7.3071034668,1.0,0.0,0.0,0.0,1.0,0.0,0.0,0.0,1.0
1463922954438768122,447,1463922954280939942,,-8.246134758,-3.47011828423,110.543403625,0.0204039998353,1.0,0.0,0.0,0.0,1.0,0.0,0.0,0.0,1.0,-8.04878044128,-2.01219511032,22.3780498505,1.0,0.0,0.0,0.0,1.0,0.0,0.0,0.0,1.0,3.24174904785,0.320823022461,7.43160195312,1.0,0.0,0.0,0.0,1.0,0.0,0.0,0.0,1.0
1463922954439188536,448,1463922954301192043,,-7.85814094543,-3.76178407669,110.840919495,0.0204559992999,1.0,0.0,0.0,0.0,1.0,0.0,0.0,0.0,1.0,-14.3292694092,35.9146347046,25.6707324982,1.0,0.0,0.0,0.0,1.0,0.0,0.0,0.0,1.0,4.13239206543,0.067037651051,7.92480749512,1.0,0.0,0.0,0.0,1.0,0.0,0.0,0.0,1.0
1463922954439507077,449,1463922954321629143,,-6.41629838943,-4.09539365768,111.14453125,0.0203959997743,1.0,0.0,0.0,0.0,1.0,0.0,0.0,0.0,1.0,-22.0731716156,82.5,30.1829280853,1.0,0.0,0.0,0.0,1.0,0.0,0.0,0.0,1.0,3.99831677246,1.04866025408,9.89762966309,1.0,0.0,0.0,0.0,1.0,0.0,0.0,0.0,1.0
1463922954439947544,450,1463922954342184785,,-4.06790018082,-4.72238874435,111.437385559,0.0204499997199,1.0,0.0,0.0,0.0,1.0,0.0,0.0,0.0,1.0,-25.4268302917,121.951217651,31.8902454376,1.0,0.0,0.0,0.0,1.0,0.0,0.0,0.0,1.0,2.7820623291,-1.17315874041,9.75397756348,1.0,0.0,0.0,0.0,1.0,0.0,0.0,0.0,1.0
1463922954440268219,451,1463922954363381517,,-1.05394089222,-5.29709005356,111.564407349,0.0212110001594,1.0,0.0,0.0,0.0,1.0,0.0,0.0,0.0,1.0,-18.2317085266,145.060974121,26.7682933807,1.0,0.0,0.0,0.0,1.0,0.0,0.0,0.0,1.0,1.50355864258,-2.06380183105,9.53371159526,1.0,0.0,0.0,0.0,1.0,0.0,0.0,0.0,1.0
1463922954440571916,452,1463922954383010652,,1.9501850605,-5.61853218079,111.463088989,0.0195530001074,1.0,0.0,0.0,0.0,1.0,0.0,0.0,0.0,1.0,-15.1219511032,154.634155273,18.2317085266,1.0,0.0,0.0,0.0,1.0,0.0,0.0,0.0,1.0,0.450109912109,-0.809240161133,8.78672009277,1.0,0.0,0.0,0.0,1.0,0.0,0.0,0.0,1.0
1463922954441013893,453,1463922954403444002,,5.17296934128,-5.99955320358,111.078216553,0.0203789994121,1.0,0.0,0.0,0.0,1.0,0.0,0.0,0.0,1.0,-22.5609760284,166.097564697,6.46341466904,1.0,0.0,0.0,0.0,1.0,0.0,0.0,0.0,1.0,1.01035310059,0.148440512063,10.2184526855,1.0,0.0,0.0,0.0,1.0,0.0,0.0,0.0,1.0
1463922954456424713,454,1463922954423715373,,8.73503017426,-6.59649801254,110.376525879,0.020408000797,1.0,0.0,0.0,0.0,1.0,0.0,0.0,0.0,1.0,-27.8048782349,177.926834106,-6.21951246262,1.0,0.0,0.0,0.0,1.0,0.0,0.0,0.0,1.0,-0.809240161133,-0.397437475586,11.8034141846,1.0,0.0,0.0,0.0,1.0,0.0,0.0,0.0,1.0
1463922954456721587,455,1463922954444155755,,12.0444717407,-7.393638134,109.391197205,0.020408000797,1.0,0.0,0.0,0.0,1.0,0.0,0.0,0.0,1.0,-29.3902435303,162.743896484,-18.9634151459,1.0,0.0,0.0,0.0,1.0,0.0,0.0,0.0,1.0,-2.44687409668,-1.23540805664,11.2096521729,1.0,0.0,0.0,0.0,1.0,0.0,0.0,0.0,1.0
1463922954640267052,456,1463922954464671553,,14.9762868881,-8.34515857697,108.131454468,0.0204160008579,1.0,0.0,0.0,0.0,1.0,0.0,0.0,0.0,1.0,-27.0731716156,153.10975647,-29.5731697083,1.0,0.0,0.0,0.0,1.0,0.0,0.0,0.0,1.0,-1.69988317871,-2.22181914063,10.9606552002,1.0,0.0,0.0,0.0,1.0,0.0,0.0,0.0,1.0
1463922954640525124,457,1463922954485604119,,17.6722621918,-9.33390140533,106.58518219,0.0205409992486,1.0,0.0,0.0,0.0,1.0,0.0,0.0,0.0,1.0,-21.0365848541,132.865859985,-42.0121955872,1.0,0.0,0.0,0.0,1.0,0.0,0.0,0.0,1.0,-4.38138903809,-2.53306535645,10.3908352051,1.0,0.0,0.0,0.0,1.0,0.0,0.0,0.0,1.0
1463922954640770695,458,1463922954505915855,,19.6157493591,-10.2660236359,104.944984436,0.0203389991075,1.0,0.0,0.0,0.0,1.0,0.0,0.0,0.0,1.0,-12.4390249252,98.6585388184,-49.2682914734,1.0,0.0,0.0,0.0,1.0,0.0,0.0,0.0,1.0,-5.13316835937,-3.14598098145,10.3716815918,1.0,0.0,0.0,0.0,1.0,0.0,0.0,0.0,1.0
1463922954641030642,459,1463922954526336393,,20.8052978516,-10.9622564316,103.414642334,0.0203479994088,1.0,0.0,0.0,0.0,1.0,0.0,0.0,0.0,1.0,-1.64634156227,66.0975646973,-48.4146347046,1.0,0.0,0.0,0.0,1.0,0.0,0.0,0.0,1.0,-4.8554409668,-3.25132585449,10.9510783936,1.0,0.0,0.0,0.0,1.0,0.0,0.0,0.0,1.0
1463922954641290433,460,1463922954546430161,,21.5908546448,-11.2460899353,102.296577454,0.0204569995403,1.0,0.0,0.0,0.0,1.0,0.0,0.0,0.0,1.0,3.65853667259,49.8780479431,-34.5731735229,1.0,0.0,0.0,0.0,1.0,0.0,0.0,0.0,1.0,-3.61045610352,-1.35990654297,11.0660000732,1.0,0.0,0.0,0.0,1.0,0.0,0.0,0.0,1.0
1463922954641532411,461,1463922954566891741,,22.2627410889,-11.3712158203,101.634109497,0.0203639995307,1.0,0.0,0.0,0.0,1.0,0.0,0.0,0.0,1.0,-1.46341466904,38.7195129395,-17.7439022064,1.0,0.0,0.0,0.0,1.0,0.0,0.0,0.0,1.0,-3.90733710937,-0.186747729492,10.2328178955,1.0,0.0,0.0,0.0,1.0,0.0,0.0,0.0,1.0
1463922954641803556,462,1463922954587394622,,22.5650348663,-11.6695318222,101.199813843,0.0204169992357,1.0,0.0,0.0,0.0,1.0,0.0,0.0,0.0,1.0,-7.43902492523,7.92682981491,-10.6097564697,1.0,0.0,0.0,0.0,1.0,0.0,0.0,0.0,1.0,-6.1052142334,-1.40779057617,9.41400034321,1.0,0.0,0.0,0.0,1.0,0.0,0.0,0.0,1.0
1463922954752324437,463,1463922954607402921,,21.9484043121,-11.9397649765,100.910354614,0.0205049999058,1.0,0.0,0.0,0.0,1.0,0.0,0.0,0.0,1.0,-1.8292683363,-41.7073173523,-11.4024391174,1.0,0.0,0.0,0.0,1.0,0.0,0.0,0.0,1.0,-6.77559069824,-2.80121594238,8.56645412456,1.0,0.0,0.0,0.0,1.0,0.0,0.0,0.0,1.0
1463922954752399177,464,1463922954628913090,,20.27302742,-11.9020957947,100.834381104,0.0203220006078,1.0,0.0,0.0,0.0,1.0,0.0,0.0,0.0,1.0,7.31707334518,-93.6585388184,-13.7195129395,1.0,0.0,0.0,0.0,1.0,0.0,0.0,0.0,1.0,-6.09084902344,-2.32237546422,8.30787917622,1.0,0.0,0.0,0.0,1.0,0.0,0.0,0.0,1.0
1463922954752854591,465,1463922954648404048,,17.6609115601,-11.5353507996,101.059082031,0.0203920006752,1.0,0.0,0.0,0.0,1.0,0.0,0.0,0.0,1.0,11.4634151459,-138.475616455,-11.4024391174,1.0,0.0,0.0,0.0,1.0,0.0,0.0,0.0,1.0,-5.22414802246,-0.972045874023,8.5999729478,1.0,0.0,0.0,0.0,1.0,0.0,0.0,0.0,1.0
1463922954753799171,466,1463922954669600312,,14.4300861359,-11.3139066696,101.390937805,0.0204399991781,1.0,0.0,0.0,0.0,1.0,0.0,0.0,0.0,1.0,7.56097555161,-158.109771729,-7.74390268326,1.0,0.0,0.0,0.0,1.0,0.0,0.0,0.0,1.0,-2.86346518555,-1.85311208496,9.2176763916,1.0,0.0,0.0,0.0,1.0,0.0,0.0,0.0,1.0
1463922954754579115,467,1463922954689208874,,11.0377426147,-10.9972658157,101.913070679,0.0203540008515,1.0,0.0,0.0,0.0,1.0,0.0,0.0,0.0,1.0,11.4024391174,-165.975601196,1.15853655338,1.0,0.0,0.0,0.0,1.0,0.0,0.0,0.0,1.0,-1.84353527832,-1.86747729492,9.19852277832,1.0,0.0,0.0,0.0,1.0,0.0,0.0,0.0,1.0
1463922954755023905,468,1463922954712263619,,7.63426113129,-10.6129007339,102.583641052,0.0204160008579,1.0,0.0,0.0,0.0,1.0,0.0,0.0,0.0,1.0,11.4024391174,-164.634140015,9.26829242706,1.0,0.0,0.0,0.0,1.0,0.0,0.0,0.0,1.0,-0.727837304687,-1.09654436035,8.37970522602,1.0,0.0,0.0,0.0,1.0,0.0,0.0,0.0,1.0
1463922954825640686,469,1463922954732734156,,4.48276090622,-10.2598171234,103.337081909,0.0206020008773,1.0,0.0,0.0,0.0,1.0,0.0,0.0,0.0,1.0,6.21951246262,-152.134155273,16.2195110321,1.0,0.0,0.0,0.0,1.0,0.0,0.0,0.0,1.0,-0.234631762695,-0.258573779297,7.26400783691,1.0,0.0,0.0,0.0,1.0,0.0,0.0,0.0,1.0
1463922954825969018,470,1463922954751424024,,1.59545230865,-10.0965461731,104.046913147,0.0202159993351,1.0,0.0,0.0,0.0,1.0,0.0,0.0,0.0,1.0,3.23170733452,-140.304885864,18.5365848541,1.0,0.0,0.0,0.0,1.0,0.0,0.0,0.0,1.0,0.402225878906,-0.785298144531,7.59440766602,1.0,0.0,0.0,0.0,1.0,0.0,0.0,0.0,1.0
1463922954826243965,471,1463922954771195711,,-0.97932690382,-10.0008440018,104.682350159,0.0205550007522,1.0,0.0,0.0,0.0,1.0,0.0,0.0,0.0,1.0,1.2804877758,-122.5,18.0487823486,1.0,0.0,0.0,0.0,1.0,0.0,0.0,0.0,1.0,0.780509741211,-0.751779321289,7.79073220215,1.0,0.0,0.0,0.0,1.0,0.0,0.0,0.0,1.0
1463922954826555735,472,1463922954791421614,,-3.09688830376,-9.93813514709,105.207885742,0.0204429998994,1.0,0.0,0.0,0.0,1.0,0.0,0.0,0.0,1.0,-2.07317066193,-102.926834106,16.6463413239,1.0,0.0,0.0,0.0,1.0,0.0,0.0,0.0,1.0,0.799663354492,-0.363918652344,8.27914934082,1.0,0.0,0.0,0.0,1.0,0.0,0.0,0.0,1.0
1463922954874965267,473,1463922954811979703,,-4.73560905457,-10.0058012009,105.564872742,0.0202799998224,1.0,0.0,0.0,0.0,1.0,0.0,0.0,0.0,1.0,-4.51219558716,-74.3292694092,13.5365858078,1.0,0.0,0.0,0.0,1.0,0.0,0.0,0.0,1.0,1.95366855469,-0.938527050781,8.72925925293,1.0,0.0,0.0,0.0,1.0,0.0,0.0,0.0,1.0
1463922954875450005,474,1463922954832010867,,-5.63018941879,-10.1411170959,105.742126465,0.0203980002552,1.0,0.0,0.0,0.0,1.0,0.0,0.0,0.0,1.0,-6.28048801422,-38.0487823486,10.7926826477,1.0,0.0,0.0,0.0,1.0,0.0,0.0,0.0,1.0,2.25533796387,-1.4604630127,10.1083194092,1.0,0.0,0.0,0.0,1.0,0.0,0.0,0.0,1.0
1463922954896162624,475,1463922954852600727,,-5.65902137756,-10.2816371918,105.790138245,0.0203629992902,1.0,0.0,0.0,0.0,1.0,0.0,0.0,0.0,1.0,-7.43902492523,-0.487804889679,11.1585359573,1.0,0.0,0.0,0.0,1.0,0.0,0.0,0.0,1.0,1.44609780273,-1.46525141602,10.3812583984,1.0,0.0,0.0,0.0,1.0,0.0,0.0,0.0,1.0
1463922954896497363,476,1463922954872726214,,-5.12234306335,-10.3856782913,105.661277771,0.0204240009189,1.0,0.0,0.0,0.0,1.0,0.0,0.0,0.0,1.0,-5.91463422775,29.2682933807,7.80487823486,1.0,0.0,0.0,0.0,1.0,0.0,0.0,0.0,1.0,1.64721074219,-1.6041151123,10.4530844482,1.0,0.0,0.0,0.0,1.0,0.0,0.0,0.0,1.0
1463922954929336128,477,1463922954893568261,,-4.01318883896,-10.497636795,105.300346375,0.0206450000405,1.0,0.0,0.0,0.0,1.0,0.0,0.0,0.0,1.0,-8.65853691101,52.7439041138,1.03658533096,1.0,0.0,0.0,0.0,1.0,0.0,0.0,0.0,1.0,0.493205541992,-1.35032973633,10.6781394043,1.0,0.0,0.0,0.0,1.0,0.0,0.0,0.0,1.0
1463922954930515863,478,1463922954914804003,,-2.611348629,-10.6914157867,104.771438599,0.0202070008963,1.0,0.0,0.0,0.0,1.0,0.0,0.0,0.0,1.0,-11.2804880142,69.4512176514,-4.69512224197,1.0,0.0,0.0,0.0,1.0,0.0,0.0,0.0,1.0,0.239420166016,-1.84832368164,11.6501852783,1.0,0.0,0.0,0.0,1.0,0.0,0.0,0.0,1.0
1463922954969247156,479,1463922954934240847,,-0.893017649651,-10.9036464691,104.045188904,0.0204649996012,1.0,0.0,0.0,0.0,1.0,0.0,0.0,0.0,1.0,-12.9878053665,82.5,-11.4024391174,1.0,0.0,0.0,0.0,1.0,0.0,0.0,0.0,1.0,-0.76135612793,-1.72861359863,12.5599819092,1.0,0.0,0.0,0.0,1.0,0.0,0.0,0.0,1.0
1463922954970567931,480,1463922954955133466,,1.00440895557,-11.2176828384,103.190284729,0.020312000066,1.0,0.0,0.0,0.0,1.0,0.0,0.0,0.0,1.0,-14.3292694092,96.5853729248,-15.1219511032,1.0,0.0,0.0,0.0,1.0,0.0,0.0,0.0,1.0,-0.373495458984,-2.44208569336,12.9047469482,1.0,0.0,0.0,0.0,1.0,0.0,0.0,0.0,1.0
1463922955008829591,481,1463922954974953381,,3.12563800812,-11.5998735428,102.234336853,0.0204930007458,1.0,0.0,0.0,0.0,1.0,0.0,0.0,0.0,1.0,-10.548781395,101.829269409,-17.9878044128,1.0,0.0,0.0,0.0,1.0,0.0,0.0,0.0,1.0,-2.4277204834,-4.15633378977,14.0300217285,1.0,0.0,0.0,0.0,1.0,0.0,0.0,0.0,1.0
1463922955010174741,482,1463922954996087926,,4.81408071518,-11.7029819489,101.19745636,0.0203360002488,1.0,0.0,0.0,0.0,1.0,0.0,0.0,0.0,1.0,7.31707334518,82.0731735229,-25.6707324982,1.0,0.0,0.0,0.0,1.0,0.0,0.0,0.0,1.0,-3.09330854492,-4.79319201589,13.5559697998,1.0,0.0,0.0,0.0,1.0,0.0,0.0,0.0,1.0
1463922955063641075,483,1463922955015563833,,6.20949172974,-11.5055856705,100.190406799,0.0203910004348,1.0,0.0,0.0,0.0,1.0,0.0,0.0,0.0,1.0,14.3292694092,72.5,-26.5243911743,1.0,0.0,0.0,0.0,1.0,0.0,0.0,0.0,1.0,-1.89141931152,-2.21224233398,12.1864864502,1.0,0.0,0.0,0.0,1.0,0.0,0.0,0.0,1.0
1463922955064195396,484,1463922955036174422,,7.70063447952,-11.3159608841,99.2093734741,0.0204249992967,1.0,0.0,0.0,0.0,1.0,0.0,0.0,0.0,1.0,6.64634132385,76.9512252808,-25.3048782349,1.0,0.0,0.0,0.0,1.0,0.0,0.0,0.0,1.0,-1.83395847168,-0.263362164351,10.6206785645,1.0,0.0,0.0,0.0,1.0,0.0,0.0,0.0,1.0
1463922955091794496,485,1463922955056098555,,9.17724990845,-11.5067214966,98.1275634766,0.0204130001366,1.0,0.0,0.0,0.0,1.0,0.0,0.0,0.0,1.0,-2.62195134163,82.1951293945,-28.2926845551,1.0,0.0,0.0,0.0,1.0,0.0,0.0,0.0,1.0,-1.13963999023,-1.65199914551,10.5057568848,1.0,0.0,0.0,0.0,1.0,0.0,0.0,0.0,1.0
1463922955091849965,486,1463922955076512999,,10.7773618698,-11.7675161362,97.0611419678,0.0203629992902,1.0,0.0,0.0,0.0,1.0,0.0,0.0,0.0,1.0,1.09756100178,86.2804946899,-25.3658542633,1.0,0.0,0.0,0.0,1.0,0.0,0.0,0.0,1.0,-1.7669208252,-2.77727392578,10.2136642822,1.0,0.0,0.0,0.0,1.0,0.0,0.0,0.0,1.0
1463922955202190118,487,1463922955097911137,,12.3150558472,-11.8661689758,95.9686660767,0.0204150006175,1.0,0.0,0.0,0.0,1.0,0.0,0.0,0.0,1.0,5.42682933807,75.914642334,-29.0853672028,1.0,0.0,0.0,0.0,1.0,0.0,0.0,0.0,1.0,-3.17949980469,-1.58496149902,9.08360109863,1.0,0.0,0.0,0.0,1.0,0.0,0.0,0.0,1.0
1463922955203249489,488,1463922955117729438,,13.504076004,-11.9905939102,94.8252029419,0.0204380005598,1.0,0.0,0.0,0.0,1.0,0.0,0.0,0.0,1.0,7.19512224197,61.3414611816,-33.9634132385,1.0,0.0,0.0,0.0,1.0,0.0,0.0,0.0,1.0,-3.15076938477,-1.82438166504,9.09796630859,1.0,0.0,0.0,0.0,1.0,0.0,0.0,0.0,1.0
1463922955203536519,489,1463922955138228256,,14.2313756943,-12.0834293365,93.7125320435,0.0203949995339,1.0,0.0,0.0,0.0,1.0,0.0,0.0,0.0,1.0,6.52439069748,42.8048782349,-36.9512214661,1.0,0.0,0.0,0.0,1.0,0.0,0.0,0.0,1.0,-2.80121594238,-1.41736738281,9.5432884019,1.0,0.0,0.0,0.0,1.0,0.0,0.0,0.0,1.0
1463922955203814278,490,1463922955158420774,,14.6663913727,-12.1536207199,92.6938323975,0.0204099994153,1.0,0.0,0.0,0.0,1.0,0.0,0.0,0.0,1.0,1.8902438879,33.6585388184,-35.5487823486,1.0,0.0,0.0,0.0,1.0,0.0,0.0,0.0,1.0,-1.81001645508,-0.502782348633,9.23204160156,1.0,0.0,0.0,0.0,1.0,0.0,0.0,0.0,1.0
1463922955248339035,491,1463922955178722771,,14.9244832993,-12.311507225,91.736541748,0.0204390008003,1.0,0.0,0.0,0.0,1.0,0.0,0.0,0.0,1.0,-6.15853643417,28.9024410248,-34.3902435303,1.0,0.0,0.0,0.0,1.0,0.0,0.0,0.0,1.0,-1.00556469727,0.0335188255255,8.09240161133,1.0,0.0,0.0,0.0,1.0,0.0,0.0,0.0,1.0
1463922955248617472,492,1463922955200531896,,15.1636962891,-12.6197719574,90.8719482422,0.0203680004925,1.0,0.0,0.0,0.0,1.0,0.0,0.0,0.0,1.0,-16.5243911743,30.8536605835,-30.1219520569,1.0,0.0,0.0,0.0,1.0,0.0,0.0,0.0,1.0,-0.45968671875,0.277727392578,7.29752666016,1.0,0.0,0.0,0.0,1.0,0.0,0.0,0.0,1.0
1463922955248858200,493,1463922955221208943,,15.5739994049,-13.1573076248,90.0485458374,0.0204070005566,1.0,0.0,0.0,0.0,1.0,0.0,0.0,0.0,1.0,-25.3658542633,33.1707305908,-26.5853652954,1.0,0.0,0.0,0.0,1.0,0.0,0.0,0.0,1.0,-1.17794714373,-0.105344873047,6.83305153809,1.0,0.0,0.0,0.0,1.0,0.0,0.0,0.0,1.0
1463922955250044705,494,1463922955239999071,,15.8564243317,-13.8361444473,89.2149734497,0.0204070005566,1.0,0.0,0.0,0.0,1.0,0.0,0.0,0.0,1.0,-28.0487804413,28.5975608826,-26.8292694092,1.0,0.0,0.0,0.0,1.0,0.0,0.0,0.0,1.0,-1.0534486574,-0.646434448242,6.59841977539,1.0,0.0,0.0,0.0,1.0,0.0,0.0,0.0,1.0
1463922955305228115,495,1463922955264373654,,16.0697879791,-14.5071783066,88.4310531616,0.0204140003771,1.0,0.0,0.0,0.0,1.0,0.0,0.0,0.0,1.0,-29.6341457367,24.3292694092,-25.6707324982,1.0,0.0,0.0,0.0,1.0,0.0,0.0,0.0,1.0,-1.19231249982,-0.536301208408,6.59841977539,1.0,0.0,0.0,0.0,1.0,0.0,0.0,0.0,1.0
1463922955305519833,496,1463922955280806813,,16.1918048859,-15.2364492416,87.6778564453,0.0204869993031,1.0,0.0,0.0,0.0,1.0,0.0,0.0,0.0,1.0,-31.5853652954,20.1829280853,-24.6341457367,1.0,0.0,0.0,0.0,1.0,0.0,0.0,0.0,1.0,-1.28808049316,-0.814028564453,7.1203557373,1.0,0.0,0.0,0.0,1.0,0.0,0.0,0.0,1.0
1463922955340915098,497,1463922955301063602,,16.2315387726,-15.9517688751,86.9904785156,0.0203269999474,1.0,0.0,0.0,0.0,1.0,0.0,0.0,0.0,1.0,-31.0365867615,15.6097564697,-22.5609760284,1.0,0.0,0.0,0.0,1.0,0.0,0.0,0.0,1.0,-1.51313544922,-1.14921679688,7.95353791504,1.0,0.0,0.0,0.0,1.0,0.0,0.0,0.0,1.0
1463922955341223899,498,1463922955321600337,,16.1698055267,-16.6072158813,86.4232254028,0.0204130001366,1.0,0.0,0.0,0.0,1.0,0.0,0.0,0.0,1.0,-30.5487804413,6.52439069748,-19.3902435303,1.0,0.0,0.0,0.0,1.0,0.0,0.0,0.0,1.0,-2.1930887207,-1.20667770978,8.73404765625,1.0,0.0,0.0,0.0,1.0,0.0,0.0,0.0,1.0
1463922955377018173,499,1463922955342391706,,15.8791093826,-17.2064094543,86.0117797852,0.0204060003161,1.0,0.0,0.0,0.0,1.0,0.0,0.0,0.0,1.0,-31.0975627899,-2.43902444839,-14.8780498505,1.0,0.0,0.0,0.0,1.0,0.0,0.0,0.0,1.0,-1.74297880859,-1.25935007324,9.65821008159,1.0,0.0,0.0,0.0,1.0,0.0,0.0,0.0,1.0
1463922955377449733,500,1463922955365862075,,15.5005331039,-17.8100357056,85.7531814575,0.0214900001884,1.0,0.0,0.0,0.0,1.0,0.0,0.0,0.0,1.0,-31.6463413239,-9.26829242706,-8.78048801422,1.0,0.0,0.0,0.0,1.0,0.0,0.0,0.0,1.0,-2.11168571813,-1.55144267578,10.3237975586,1.0,0.0,0.0,0.0,1.0,0.0,0.0,0.0,1.0
1463922955413259059,501,1463922955384362516,,15.0070075989,-18.326007843,85.6787338257,0.0193290002644,1.0,0.0,0.0,0.0,1.0,0.0,0.0,0.0,1.0,-30.7317066193,-17.7439022064,-2.86585378647,1.0,0.0,0.0,0.0,1.0,0.0,0.0,0.0,1.0,-1.95366855469,-2.24097275391,11.4203419189,1.0,0.0,0.0,0.0,1.0,0.0,0.0,0.0,1.0
1463922955413570464,502,1463922955403228582,,14.423374176,-18.7270393372,85.7601013184,0.0204119998962,1.0,0.0,0.0,0.0,1.0,0.0,0.0,0.0,1.0,-27.0121955872,-24.0853652954,2.5,1.0,0.0,0.0,0.0,1.0,0.0,0.0,0.0,1.0,-2.10689731481,-2.05901342773,11.4203419189,1.0,0.0,0.0,0.0,1.0,0.0,0.0,0.0,1.0
1463922955452571131,503,1463922955426497545,,13.7883634567,-19.0873203278,86.0317611694,0.0222580004483,1.0,0.0,0.0,0.0,1.0,0.0,0.0,0.0,1.0,-25.975610733,-26.3414649963,9.93902492523,1.0,0.0,0.0,0.0,1.0,0.0,0.0,0.0,1.0,-1.98239897461,-2.10210891149,11.7172229248,1.0,0.0,0.0,0.0,1.0,0.0,0.0,0.0,1.0
1463922955453118108,504,1463922955443975334,,13.3878211975,-19.3153991699,86.3971710205,0.0185640007257,1.0,0.0,0.0,0.0,1.0,0.0,0.0,0.0,1.0,-23.5975627899,-21.5853652954,19.3292694092,1.0,0.0,0.0,0.0,1.0,0.0,0.0,0.0,1.0,-1.67115275879,-2.17393510742,11.4730143555,1.0,0.0,0.0,0.0,1.0,0.0,0.0,0.0,1.0
1463922955495637561,505,1463922955468307522,,12.9807252884,-19.5266304016,86.9815597534,0.0230269990861,1.0,0.0,0.0,0.0,1.0,0.0,0.0,0.0,1.0,-16.0365848541,-20.2439022064,27.1341457367,1.0,0.0,0.0,0.0,1.0,0.0,0.0,0.0,1.0,-1.79565124512,-3.78762702637,12.4690022461,1.0,0.0,0.0,0.0,1.0,0.0,0.0,0.0,1.0
1463922955495970997,506,1463922955484900889,,12.6917352676,-19.5428543091,87.4722976685,0.0177839994431,1.0,0.0,0.0,0.0,1.0,0.0,0.0,0.0,1.0,-2.5,-23.2926845551,29.7560997009,1.0,0.0,0.0,0.0,1.0,0.0,0.0,0.0,1.0,-2.68150585937,-5.47314499512,12.8808049316,1.0,0.0,0.0,0.0,1.0,0.0,0.0,0.0,1.0
1463922955546822395,507,1463922955508781464,,12.138666153,-18.9949836731,88.1488342285,0.0203910004348,1.0,0.0,0.0,0.0,1.0,0.0,0.0,0.0,1.0,22.0121955872,-32.0731697083,32.0121955872,1.0,0.0,0.0,0.0,1.0,0.0,0.0,0.0,1.0,-1.7669208252,-4.84107575684,12.871228125,1.0,0.0,0.0,0.0,1.0,0.0,0.0,0.0,1.0
1463922955547834109,508,1463922955527811747,,11.6021347046,-18.0430812836,88.9529724121,0.0209289994091,1.0,0.0,0.0,0.0,1.0,0.0,0.0,0.0,1.0,31.0975627899,-28.7195110321,36.9512214661,1.0,0.0,0.0,0.0,1.0,0.0,0.0,0.0,1.0,-0.837970581055,-2.41814367676,12.512097876,1.0,0.0,0.0,0.0,1.0,0.0,0.0,0.0,1.0
1463922955573078012,509,1463922955548038848,,11.2782354355,-17.1287136078,89.7017669678,0.0198999997228,1.0,0.0,0.0,0.0,1.0,0.0,0.0,0.0,1.0,26.0365848541,-23.3536586761,36.9512214661,1.0,0.0,0.0,0.0,1.0,0.0,0.0,0.0,1.0,-1.63284553223,-0.737414111328,11.7363765381,1.0,0.0,0.0,0.0,1.0,0.0,0.0,0.0,1.0
1463922955573675144,510,1463922955570372450,,10.8660945892,-16.5418148041,90.3863983154,0.0203970000148,1.0,0.0,0.0,0.0,1.0,0.0,0.0,0.0,1.0,19.0853652954,-29.2073173523,33.2317085266,1.0,0.0,0.0,0.0,1.0,0.0,0.0,0.0,1.0,-2.19787712402,-2.39899020961,10.9223479736,1.0,0.0,0.0,0.0,1.0,0.0,0.0,0.0,1.0
1463922955613948983,511,1463922955588180291,,10.1716804504,-15.9906139374,91.0232162476,0.0211459994316,1.0,0.0,0.0,0.0,1.0,0.0,0.0,0.0,1.0,24.817073822,-40.4268302917,28.2317066193,1.0,0.0,0.0,0.0,1.0,0.0,0.0,0.0,1.0,-2.14520483363,-3.86902988281,10.8313683105,1.0,0.0,0.0,0.0,1.0,0.0,0.0,0.0,1.0
1463922955614441793,512,1463922955607307449,,9.35888385773,-15.2953233719,91.6154251099,0.0196790006012,1.0,0.0,0.0,0.0,1.0,0.0,0.0,0.0,1.0,34.6951217651,-46.5243911743,26.9512195587,1.0,0.0,0.0,0.0,1.0,0.0,0.0,0.0,1.0,-1.6041151123,-3.81156904297,10.8888291504,1.0,0.0,0.0,0.0,1.0,0.0,0.0,0.0,1.0
1463922955702779280,513,1463922955627709341,,8.49551773071,-14.3837394714,92.2858200073,0.0204179994762,1.0,0.0,0.0,0.0,1.0,0.0,0.0,0.0,1.0,41.5853652954,-44.3292694092,30.5487804413,1.0,0.0,0.0,0.0,1.0,0.0,0.0,0.0,1.0,-0.679953271484,-3.10767375488,10.7978494873,1.0,0.0,0.0,0.0,1.0,0.0,0.0,0.0,1.0
1463922955703271153,514,1463922955648356336,,7.8643784523,-13.3919935226,93.0063247681,0.0204199999571,1.0,0.0,0.0,0.0,1.0,0.0,0.0,0.0,1.0,43.9634170532,-37.5609779358,35.1219520569,1.0,0.0,0.0,0.0,1.0,0.0,0.0,0.0,1.0,-1.35032973633,-2.60010300293,10.8505219238,1.0,0.0,0.0,0.0,1.0,0.0,0.0,0.0,1.0
1463922955703615891,515,1463922955669199267,,7.15597963333,-12.3649511337,93.7019882202,0.0203910004348,1.0,0.0,0.0,0.0,1.0,0.0,0.0,0.0,1.0,45.182926178,-42.9878044128,33.1097564697,1.0,0.0,0.0,0.0,1.0,0.0,0.0,0.0,1.0,-1.64242233887,-2.07816689489,10.405200415,1.0,0.0,0.0,0.0,1.0,0.0,0.0,0.0,1.0
1463922955704686303,516,1463922955688996318,,6.32801055908,-11.3525314331,94.2945022583,0.0203889999539,1.0,0.0,0.0,0.0,1.0,0.0,0.0,0.0,1.0,42.3780517578,-46.0975646973,27.682926178,1.0,0.0,0.0,0.0,1.0,0.0,0.0,0.0,1.0,-1.12527478027,-1.13485158691,9.18415756836,1.0,0.0,0.0,0.0,1.0,0.0,0.0,0.0,1.0
1463922955883555278,517,1463922955709382012,,5.40512943268,-10.4102334976,94.7456359863,0.0204160008579,1.0,0.0,0.0,0.0,1.0,0.0,0.0,0.0,1.0,33.3536605835,-44.390247345,21.0975627899,1.0,0.0,0.0,0.0,1.0,0.0,0.0,0.0,1.0,-0.196324536133,0.114921679688,8.13070883789,1.0,0.0,0.0,0.0,1.0,0.0,0.0,0.0,1.0
1463922955883849391,518,1463922955729837237,,4.59669494629,-9.75456237793,95.0254745483,0.0204019993544,1.0,0.0,0.0,0.0,1.0,0.0,0.0,0.0,1.0,20.3048782349,-36.6463432312,14.8170728683,1.0,0.0,0.0,0.0,1.0,0.0,0.0,0.0,1.0,0.0239420166016,0.229843359375,7.25921943359,1.0,0.0,0.0,0.0,1.0,0.0,0.0,0.0,1.0
1463922955884147515,519,1463922955750300848,,3.94328784943,-9.43858623505,95.1417236328,0.0204470008612,1.0,0.0,0.0,0.0,1.0,0.0,0.0,0.0,1.0,10.0,-28.5365848541,9.02439117432,1.0,0.0,0.0,0.0,1.0,0.0,0.0,0.0,1.0,0.0191536132812,-0.426167895508,7.3549875,1.0,0.0,0.0,0.0,1.0,0.0,0.0,0.0,1.0
1463922955884925585,520,1463922955770581178,,3.46175694466,-9.31940841675,95.1435012817,0.0203879997134,1.0,0.0,0.0,0.0,1.0,0.0,0.0,0.0,1.0,4.93902444839,-17.5609760284,5.67073154449,1.0,0.0,0.0,0.0,1.0,0.0,0.0,0.0,1.0,0.373495458984,-0.981622680664,7.76679018555,1.0,0.0,0.0,0.0,1.0,0.0,0.0,0.0,1.0
1463922955885622248,521,1463922955791082027,,3.23766040802,-9.31848430634,95.0732040405,0.0204029995948,1.0,0.0,0.0,0.0,1.0,0.0,0.0,0.0,1.0,1.64634156227,-4.02439022064,4.51219558716,1.0,0.0,0.0,0.0,1.0,0.0,0.0,0.0,1.0,0.526724328702,-1.31681091309,7.93438430176,1.0,0.0,0.0,0.0,1.0,0.0,0.0,0.0,1.0
1463922955885934434,522,1463922955811493659,,3.32246541977,-9.4201002121,94.9307174683,0.0204060003161,1.0,0.0,0.0,0.0,1.0,0.0,0.0,0.0,1.0,1.2195122242,7.56097555161,3.10975623131,1.0,0.0,0.0,0.0,1.0,0.0,0.0,0.0,1.0,-0.00478840332031,-2.00155258789,8.09719001465,1.0,0.0,0.0,0.0,1.0,0.0,0.0,0.0,1.0
1463922955886199381,523,1463922955831832895,,3.5261349678,-9.51641273499,94.6763687134,0.0203959997743,1.0,0.0,0.0,0.0,1.0,0.0,0.0,0.0,1.0,6.15853643417,12.3780488968,-1.34146344662,1.0,0.0,0.0,0.0,1.0,0.0,0.0,0.0,1.0,-0.296881024126,-2.76769711914,8.31745598286,1.0,0.0,0.0,0.0,1.0,0.0,0.0,0.0,1.0
1463922955886466984,524,1463922955852238797,,3.76039385796,-9.50184440613,94.3335647583,0.020428000018,1.0,0.0,0.0,0.0,1.0,0.0,0.0,0.0,1.0,13.9024391174,15.1219511032,-5.06097555161,1.0,0.0,0.0,0.0,1.0,0.0,0.0,0.0,1.0,-0.248996972656,-3.30878669434,8.82502731934,1.0,0.0,0.0,0.0,1.0,0.0,0.0,0.0,1.0
1463922955930832576,525,1463922955872511523,,4.04182958603,-9.30995368958,93.9467773438,0.0204039998353,1.0,0.0,0.0,0.0,1.0,0.0,0.0,0.0,1.0,23.1097564697,18.475610733,-6.64634132385,1.0,0.0,0.0,0.0,1.0,0.0,0.0,0.0,1.0,-0.172382519531,-3.57214887695,9.39005832661,1.0,0.0,0.0,0.0,1.0,0.0,0.0,0.0,1.0
1463922955931129658,526,1463922955892940238,,4.37664556503,-8.91016101837,93.510559082,0.0203970000148,1.0,0.0,0.0,0.0,1.0,0.0,0.0,0.0,1.0,31.341463089,19.6951236725,-9.08536529541,1.0,0.0,0.0,0.0,1.0,0.0,0.0,0.0,1.0,-0.550666381836,-3.28005627441,9.90241806641,1.0,0.0,0.0,0.0,1.0,0.0,0.0,0.0,1.0
1463922955989335971,527,1463922955913364525,,4.70403623581,-8.38632106781,93.0217208862,0.0204210001975,1.0,0.0,0.0,0.0,1.0,0.0,0.0,0.0,1.0,36.4634170532,17.3780498505,-12.1951217651,1.0,0.0,0.0,0.0,1.0,0.0,0.0,0.0,1.0,-1.08217922346,-3.16513459473,10.5727945312,1.0,0.0,0.0,0.0,1.0,0.0,0.0,0.0,1.0
1463922955990397634,528,1463922955933797146,,4.89167976379,-7.78832912445,92.4599456787,0.0204060003161,1.0,0.0,0.0,0.0,1.0,0.0,0.0,0.0,1.0,40.1219520569,10.6707315445,-16.8902435303,1.0,0.0,0.0,0.0,1.0,0.0,0.0,0.0,1.0,-1.23061965332,-3.0885201416,10.9606552002,1.0,0.0,0.0,0.0,1.0,0.0,0.0,0.0,1.0
1463922955990890652,529,1463922955954174611,,4.916929245,-7.12108516693,91.8407821655,0.0203980002552,1.0,0.0,0.0,0.0,1.0,0.0,0.0,0.0,1.0,41.2804908752,0.609756112099,-21.341463089,1.0,0.0,0.0,0.0,1.0,0.0,0.0,0.0,1.0,-1.77649763184,-2.5234885498,11.3293622559,1.0,0.0,0.0,0.0,1.0,0.0,0.0,0.0,1.0
1463922955991306796,530,1463922955974634211,,4.69057750702,-6.52498149872,91.1328811646,0.0204259995371,1.0,0.0,0.0,0.0,1.0,0.0,0.0,0.0,1.0,37.7439041138,-12.1951217651,-27.1951236725,1.0,0.0,0.0,0.0,1.0,0.0,0.0,0.0,1.0,-2.01591779785,-2.41814367676,11.8082025879,1.0,0.0,0.0,0.0,1.0,0.0,0.0,0.0,1.0
1463922956022176144,531,1463922955995065010,,4.1931476593,-6.04875278473,90.328086853,0.0203879997134,1.0,0.0,0.0,0.0,1.0,0.0,0.0,0.0,1.0,36.8902435303,-25.6097564697,-32.9878044128,1.0,0.0,0.0,0.0,1.0,0.0,0.0,0.0,1.0,-2.28885678711,-3.74453139648,13.0962830811,1.0,0.0,0.0,0.0,1.0,0.0,0.0,0.0,1.0
1463922956022827964,532,1463922956015401902,,3.45969223976,-5.46652889252,89.5135955811,0.020422000438,1.0,0.0,0.0,0.0,1.0,0.0,0.0,0.0,1.0,43.1707305908,-34.5731735229,-34.0243911743,1.0,0.0,0.0,0.0,1.0,0.0,0.0,0.0,1.0,-1.52750065918,-4.15154538645,13.603853833,1.0,0.0,0.0,0.0,1.0,0.0,0.0,0.0,1.0
1463922956059248954,533,1463922956036528113,,2.71224832535,-4.68810606003,88.7782821655,0.0204429998994,1.0,0.0,0.0,0.0,1.0,0.0,0.0,0.0,1.0,41.7682952881,-30.5487804413,-30.0609760284,1.0,0.0,0.0,0.0,1.0,0.0,0.0,0.0,1.0,0.0143652099609,-1.28329208984,12.4737906494,1.0,0.0,0.0,0.0,1.0,0.0,0.0,0.0,1.0
1463922956059885462,534,1463922956056330060,,2.31494784355,-4.16773271561,88.0198364258,0.0203879997134,1.0,0.0,0.0,0.0,1.0,0.0,0.0,0.0,1.0,20.6097564697,-11.8292684555,-29.8780498505,1.0,0.0,0.0,0.0,1.0,0.0,0.0,0.0,1.0,0.565031591797,0.656011254883,11.2766898193,1.0,0.0,0.0,0.0,1.0,0.0,0.0,0.0,1.0
1463922956170574311,535,1463922956076669713,,2.26879549026,-4.11857366562,87.1891403198,0.0203850008547,1.0,0.0,0.0,0.0,1.0,0.0,0.0,0.0,1.0,1.2804877758,1.64634156227,-32.1951217651,1.0,0.0,0.0,0.0,1.0,0.0,0.0,0.0,1.0,-0.105344873047,-0.00478840332031,10.419565625,1.0,0.0,0.0,0.0,1.0,0.0,0.0,0.0,1.0
1463922956170614676,536,1463922956097092230,,2.32318639755,-4.42684078217,86.2107162476,0.0204169992357,1.0,0.0,0.0,0.0,1.0,0.0,0.0,0.0,1.0,-10.3048782349,5.60975599289,-38.8414649963,1.0,0.0,0.0,0.0,1.0,0.0,0.0,0.0,1.0,-0.368707055664,-0.986411083984,9.90241806641,1.0,0.0,0.0,0.0,1.0,0.0,0.0,0.0,1.0
1463922956170652436,537,1463922956117525736,,2.41148519516,-4.91761684418,85.1589508057,0.0203980002552,1.0,0.0,0.0,0.0,1.0,0.0,0.0,0.0,1.0,-17.8048782349,10.6097564697,-42.0121955872,1.0,0.0,0.0,0.0,1.0,0.0,0.0,0.0,1.0,0.0909796630859,-1.14442839355,8.97346782227,1.0,0.0,0.0,0.0,1.0,0.0,0.0,0.0,1.0
1463922956183096497,538,1463922956138042263,,2.53334593773,-5.49002313614,84.0227890015,0.020408000797,1.0,0.0,0.0,0.0,1.0,0.0,0.0,0.0,1.0,-21.6463432312,12.1951217651,-45.9146347046,1.0,0.0,0.0,0.0,1.0,0.0,0.0,0.0,1.0,-0.067037651051,-1.21625444336,9.06923588867,1.0,0.0,0.0,0.0,1.0,0.0,0.0,0.0,1.0
1463922956184152378,539,1463922956158599206,,2.68794941902,-6.11950016022,82.8333282471,0.020428000018,1.0,0.0,0.0,0.0,1.0,0.0,0.0,0.0,1.0,-24.8780498505,15.2439022064,-48.1097602844,1.0,0.0,0.0,0.0,1.0,0.0,0.0,0.0,1.0,0.0143652099609,-1.17315874041,8.92079538574,1.0,0.0,0.0,0.0,1.0,0.0,0.0,0.0,1.0
1463922956230214733,540,1463922956178785891,,2.88833212852,-6.73720121384,81.6191864014,0.0204429998994,1.0,0.0,0.0,0.0,1.0,0.0,0.0,0.0,1.0,-28.2317066193,21.5853652954,-48.6585388184,1.0,0.0,0.0,0.0,1.0,0.0,0.0,0.0,1.0,0.469263525391,-0.541089611728,7.97269152832,1.0,0.0,0.0,0.0,1.0,0.0,0.0,0.0,1.0
1463922956230339056,541,1463922956199123252,,3.16304826736,-7.32777643204,80.3622817993,0.0203649997711,1.0,0.0,0.0,0.0,1.0,0.0,0.0,0.0,1.0,-36.6463432312,30.6097583771,-50.2439041138,1.0,0.0,0.0,0.0,1.0,0.0,0.0,0.0,1.0,0.881066210937,0.656011254883,6.42603725586,1.0,0.0,0.0,0.0,1.0,0.0,0.0,0.0,1.0
1463922956260227574,542,1463922956219560716,,3.6510117054,-8.14978694916,79.0001907349,0.0204000007361,1.0,0.0,0.0,0.0,1.0,0.0,0.0,0.0,1.0,-48.7804870605,37.9268302917,-54.1463432312,1.0,0.0,0.0,0.0,1.0,0.0,0.0,0.0,1.0,0.296881024126,0.679953271484,5.75566079102,1.0,0.0,0.0,0.0,1.0,0.0,0.0,0.0,1.0
1463922956260854811,543,1463922956240175212,,4.03439474106,-9.21452617645,77.4901580811,0.0204119998962,1.0,0.0,0.0,0.0,1.0,0.0,0.0,0.0,1.0,-57.3170776367,34.8780479431,-61.3414611816,1.0,0.0,0.0,0.0,1.0,0.0,0.0,0.0,1.0,0.220266552734,0.325611425781,5.38695373535,1.0,0.0,0.0,0.0,1.0,0.0,0.0,0.0,1.0
1463922956314583748,544,1463922956260432833,,4.34243011475,-10.4217319489,75.8615264893,0.0204189997166,1.0,0.0,0.0,0.0,1.0,0.0,0.0,0.0,1.0,-64.2073135376,30.4268321991,-67.5609741211,1.0,0.0,0.0,0.0,1.0,0.0,0.0,0.0,1.0,-0.124498486328,0.3064578125,5.46356818848,1.0,0.0,0.0,0.0,1.0,0.0,0.0,0.0,1.0
1463922956314757236,545,1463922956280741288,,4.56130075455,-11.8374795914,74.148109436,0.0203879997134,1.0,0.0,0.0,0.0,1.0,0.0,0.0,0.0,1.0,-70.0000076294,29.1463413239,-71.5243911743,1.0,0.0,0.0,0.0,1.0,0.0,0.0,0.0,1.0,-0.124498486328,-0.205901342773,6.08606062012,1.0,0.0,0.0,0.0,1.0,0.0,0.0,0.0,1.0
1463922956340289419,546,1463922956301162347,,4.69774580002,-13.4207019806,72.4050674438,0.0204269997776,1.0,0.0,0.0,0.0,1.0,0.0,0.0,0.0,1.0,-72.3170700073,27.5609760284,-72.4390258789,1.0,0.0,0.0,0.0,1.0,0.0,0.0,0.0,1.0,-0.186747729492,-1.22583125,7.86734665527,1.0,0.0,0.0,0.0,1.0,0.0,0.0,0.0,1.0
1463922956341588215,547,1463922956321556270,,4.82278776169,-14.9554481506,70.6875534058,0.0204019993544,1.0,0.0,0.0,0.0,1.0,0.0,0.0,0.0,1.0,-70.5487823486,29.6341457367,-70.5487823486,1.0,0.0,0.0,0.0,1.0,0.0,0.0,0.0,1.0,-0.129286889648,-1.63763393555,9.4570959731,1.0,0.0,0.0,0.0,1.0,0.0,0.0,0.0,1.0
1463922956382446374,548,1463922956341991183,,4.91867351532,-16.4493923187,69.0234222412,0.0203980002552,1.0,0.0,0.0,0.0,1.0,0.0,0.0,0.0,1.0,-68.4146347046,27.5,-68.1707382202,1.0,0.0,0.0,0.0,1.0,0.0,0.0,0.0,1.0,-0.598550451572,-2.18830031738,10.6829278076,1.0,0.0,0.0,0.0,1.0,0.0,0.0,0.0,1.0
1463922956383947514,549,1463922956362490574,,4.96337747574,-17.848449707,67.4585571289,0.0204590000212,1.0,0.0,0.0,0.0,1.0,0.0,0.0,0.0,1.0,-64.1463394165,26.158536911,-63.1707305908,1.0,0.0,0.0,0.0,1.0,0.0,0.0,0.0,1.0,-0.536301208408,-2.64319863281,11.6166664551,1.0,0.0,0.0,0.0,1.0,0.0,0.0,0.0,1.0
1463922956420265900,550,1463922956382832518,,4.97096538544,-19.1062088013,66.0162506104,0.0203980002552,1.0,0.0,0.0,0.0,1.0,0.0,0.0,0.0,1.0,-59.4512176514,22.9268302917,-58.2317085266,1.0,0.0,0.0,0.0,1.0,0.0,0.0,0.0,1.0,-0.885854614258,-2.7102362793,12.1050835937,1.0,0.0,0.0,0.0,1.0,0.0,0.0,0.0,1.0
1463922956420607773,551,1463922956403254775,,4.90735721588,-20.2382564545,64.7297744751,0.020361000672,1.0,0.0,0.0,0.0,1.0,0.0,0.0,0.0,1.0,-56.1585388184,19.1463432312,-51.8292694092,1.0,0.0,0.0,0.0,1.0,0.0,0.0,0.0,1.0,-0.77093293457,-2.60967980957,12.5456166992,1.0,0.0,0.0,0.0,1.0,0.0,0.0,0.0,1.0
1463922956481588659,552,1463922956423995988,,4.86157655716,-21.2612266541,63.5999069214,0.0205170009285,1.0,0.0,0.0,0.0,1.0,0.0,0.0,0.0,1.0,-53.5365867615,17.134147644,-44.2073173523,1.0,0.0,0.0,0.0,1.0,0.0,0.0,0.0,1.0,-1.0534486574,-2.36068269078,12.8089788818,1.0,0.0,0.0,0.0,1.0,0.0,0.0,0.0,1.0
1463922956482218031,553,1463922956444331943,,4.77288341522,-22.2228469849,62.6507148743,0.0203329995275,1.0,0.0,0.0,0.0,1.0,0.0,0.0,0.0,1.0,-50.182926178,11.7682924271,-37.2560958862,1.0,0.0,0.0,0.0,1.0,0.0,0.0,0.0,1.0,-1.36469494629,-3.01190568848,12.9813614014,1.0,0.0,0.0,0.0,1.0,0.0,0.0,0.0,1.0
1463922956503323722,554,1463922956464291753,,4.59499073029,-23.0730495453,61.8762283325,0.0203690007329,1.0,0.0,0.0,0.0,1.0,0.0,0.0,0.0,1.0,-42.5,2.98780488968,-31.4024391174,1.0,0.0,0.0,0.0,1.0,0.0,0.0,0.0,1.0,-1.98239897461,-4.11802685547,13.4458365234,1.0,0.0,0.0,0.0,1.0,0.0,0.0,0.0,1.0
1463922956503379555,555,1463922956484854009,,4.30893087387,-23.6974658966,61.3460426331,0.0204460006207,1.0,0.0,0.0,0.0,1.0,0.0,0.0,0.0,1.0,-27.2560977936,-6.40243911743,-22.0731716156,1.0,0.0,0.0,0.0,1.0,0.0,0.0,0.0,1.0,-2.1691467041,-6.06211860352,14.1832506348,1.0,0.0,0.0,0.0,1.0,0.0,0.0,0.0,1.0
1463922956546725255,556,1463922956505267932,,3.90481877327,-23.790102005,61.1025505066,0.0203830003738,1.0,0.0,0.0,0.0,1.0,0.0,0.0,0.0,1.0,-4.87804889679,-12.6219520569,-9.93902492523,1.0,0.0,0.0,0.0,1.0,0.0,0.0,0.0,1.0,-0.775721337891,-5.81791003418,14.949395166,1.0,0.0,0.0,0.0,1.0,0.0,0.0,0.0,1.0
1463922956548041135,557,1463922956525752220,,3.67929577827,-23.3831062317,61.1275291443,0.0204009991139,1.0,0.0,0.0,0.0,1.0,0.0,0.0,0.0,1.0,10.4878053665,-9.87804889679,5.06097555161,1.0,0.0,0.0,0.0,1.0,0.0,0.0,0.0,1.0,-0.627280834961,-3.21301862793,13.9294652588,1.0,0.0,0.0,0.0,1.0,0.0,0.0,0.0,1.0
1463922956585236236,558,1463922956546085727,,3.55591702461,-22.9207763672,61.2221755981,0.0204310007393,1.0,0.0,0.0,0.0,1.0,0.0,0.0,0.0,1.0,7.13414621353,-10.6707315445,8.10975551605,1.0,0.0,0.0,0.0,1.0,0.0,0.0,0.0,1.0,-1.42694418945,-1.33117612305,11.9039706543,1.0,0.0,0.0,0.0,1.0,0.0,0.0,0.0,1.0
1463922956586660084,559,1463922956566527306,,3.25899481773,-22.6155738831,61.340297699,0.020386999473,1.0,0.0,0.0,0.0,1.0,0.0,0.0,0.0,1.0,5.18292713165,-22.1951236725,5.0,1.0,0.0,0.0,0.0,1.0,0.0,0.0,0.0,1.0,-1.95366855469,-2.25533796387,10.7068698242,1.0,0.0,0.0,0.0,1.0,0.0,0.0,0.0,1.0
1463922956622865971,560,1463922956586873000,,2.69398403168,-22.2905158997,61.4964790344,0.0204259995371,1.0,0.0,0.0,0.0,1.0,0.0,0.0,0.0,1.0,11.341463089,-32.9878044128,3.04878044128,1.0,0.0,0.0,0.0,1.0,0.0,0.0,0.0,1.0,-1.41257897949,-3.16513459473,10.285490332,1.0,0.0,0.0,0.0,1.0,0.0,0.0,0.0,1.0
1463922956623182741,561,1463922956607431141,,1.99437820911,-21.7666358948,61.6941947937,0.0203980002552,1.0,0.0,0.0,0.0,1.0,0.0,0.0,0.0,1.0,18.2926826477,-38.1097564697,3.35365867615,1.0,0.0,0.0,0.0,1.0,0.0,0.0,0.0,1.0,-0.861912597656,-2.40856701625,9.72045874023,1.0,0.0,0.0,0.0,1.0,0.0,0.0,0.0,1.0
1463922956675496163,562,1463922956627695065,,1.33766293526,-21.1269741058,61.931892395,0.0204050000757,1.0,0.0,0.0,0.0,1.0,0.0,0.0,0.0,1.0,25.182926178,-33.7804870605,7.74390268326,1.0,0.0,0.0,0.0,1.0,0.0,0.0,0.0,1.0,-0.138863696289,-2.62883342285,10.0795889893,1.0,0.0,0.0,0.0,1.0,0.0,0.0,0.0,1.0
1463922956675982411,563,1463922956648266071,,0.867540597916,-20.3759880066,62.1907615662,0.0204489994794,1.0,0.0,0.0,0.0,1.0,0.0,0.0,0.0,1.0,29.8780498505,-26.158536911,12.1951217651,1.0,0.0,0.0,0.0,1.0,0.0,0.0,0.0,1.0,-0.134075302102,-2.36068269078,10.0795889893,1.0,0.0,0.0,0.0,1.0,0.0,0.0,0.0,1.0
1463922956730380303,564,1463922956668862233,,0.568436443806,-19.5550079346,62.4738616943,0.020367000252,1.0,0.0,0.0,0.0,1.0,0.0,0.0,0.0,1.0,31.7073192596,-19.5731716156,16.2804889679,1.0,0.0,0.0,0.0,1.0,0.0,0.0,0.0,1.0,-0.201112939453,-1.80043964844,9.67257470703,1.0,0.0,0.0,0.0,1.0,0.0,0.0,0.0,1.0
1463922956730749208,565,1463922956688894022,,0.388185679913,-18.7385120392,62.7788963318,0.0204070005566,1.0,0.0,0.0,0.0,1.0,0.0,0.0,0.0,1.0,31.2195129395,-19.5731716156,17.6219520569,1.0,0.0,0.0,0.0,1.0,0.0,0.0,0.0,1.0,-1.00077629395,-1.42694418945,8.5999729478,1.0,0.0,0.0,0.0,1.0,0.0,0.0,0.0,1.0
1463922956773971002,566,1463922956709351070,,0.0846414417028,-17.8964195251,63.0746078491,0.0204130001366,1.0,0.0,0.0,0.0,1.0,0.0,0.0,0.0,1.0,28.7804889679,-24.6951236725,15.6707315445,1.0,0.0,0.0,0.0,1.0,0.0,0.0,0.0,1.0,-0.861912597656,-0.670376464844,8.15465085449,1.0,0.0,0.0,0.0,1.0,0.0,0.0,0.0,1.0
1463922956774246782,567,1463922956729791452,,-0.290479809046,-17.1155261993,63.3377799988,0.0203980002552,1.0,0.0,0.0,0.0,1.0,0.0,0.0,0.0,1.0,21.6463432312,-24.2073173523,14.5731706619,1.0,0.0,0.0,0.0,1.0,0.0,0.0,0.0,1.0,-0.287304199219,0.0718260498047,7.43160195312,1.0,0.0,0.0,0.0,1.0,0.0,0.0,0.0,1.0
1463922956805895918,568,1463922956750209698,,-0.631146132946,-16.5721817017,63.5355606079,0.0204150006175,1.0,0.0,0.0,0.0,1.0,0.0,0.0,0.0,1.0,14.0243902206,-17.4390239716,13.658536911,1.0,0.0,0.0,0.0,1.0,0.0,0.0,0.0,1.0,0.301669427446,-0.339976635742,6.75164868164,1.0,0.0,0.0,0.0,1.0,0.0,0.0,0.0,1.0
1463922956806185552,569,1463922956770577058,,-0.744046628475,-16.199092865,63.7059364319,0.0204169992357,1.0,0.0,0.0,0.0,1.0,0.0,0.0,0.0,1.0,9.45121955872,-7.43902492523,15.3658533096,1.0,0.0,0.0,0.0,1.0,0.0,0.0,0.0,1.0,0.201112939453,-0.727837304687,6.67503422852,1.0,0.0,0.0,0.0,1.0,0.0,0.0,0.0,1.0
1463922956839374577,570,1463922956791199002,,-0.672302007675,-15.9573631287,63.8649215698,0.0204039998353,1.0,0.0,0.0,0.0,1.0,0.0,0.0,0.0,1.0,7.13414621353,2.37804889679,17.6219520569,1.0,0.0,0.0,0.0,1.0,0.0,0.0,0.0,1.0,0.359130249023,-1.27850368652,7.21612380371,1.0,0.0,0.0,0.0,1.0,0.0,0.0,0.0,1.0
1463922956839742492,571,1463922956811532300,,-0.331519603729,-15.8334321976,64.0514450073,0.0204130001366,1.0,0.0,0.0,0.0,1.0,0.0,0.0,0.0,1.0,8.23170757294,12.6219520569,21.8292694092,1.0,0.0,0.0,0.0,1.0,0.0,0.0,0.0,1.0,0.0718260498047,-2.34631748082,7.77636699219,1.0,0.0,0.0,0.0,1.0,0.0,0.0,0.0,1.0
1463922956879829560,572,1463922956831840651,,0.13501034677,-15.5959529877,64.2691802979,0.0203920006752,1.0,0.0,0.0,0.0,1.0,0.0,0.0,0.0,1.0,14.7560987473,17.7439022064,24.817073822,1.0,0.0,0.0,0.0,1.0,0.0,0.0,0.0,1.0,-0.0478840332031,-2.62883342285,8.24563051758,1.0,0.0,0.0,0.0,1.0,0.0,0.0,0.0,1.0
1463922956881986218,573,1463922956852242855,,0.657282233238,-15.223526001,64.5346603394,0.0204329993576,1.0,0.0,0.0,0.0,1.0,0.0,0.0,0.0,1.0,19.1463432312,18.1097564697,27.1951236725,1.0,0.0,0.0,0.0,1.0,0.0,0.0,0.0,1.0,-0.426167895508,-2.51870014648,9.18415756836,1.0,0.0,0.0,0.0,1.0,0.0,0.0,0.0,1.0
1463922956907548140,574,1463922956872665841,,1.04838585854,-14.7993927002,64.8062820435,0.0204130001366,1.0,0.0,0.0,0.0,1.0,0.0,0.0,0.0,1.0,23.3536586761,10.2439022064,25.2439041138,1.0,0.0,0.0,0.0,1.0,0.0,0.0,0.0,1.0,-0.876277807617,-2.94965644531,9.80186159668,1.0,0.0,0.0,0.0,1.0,0.0,0.0,0.0,1.0
1463922956908012408,575,1463922956893177055,,1.25361907482,-14.2722053528,65.0954208374,0.0203840006143,1.0,0.0,0.0,0.0,1.0,0.0,0.0,0.0,1.0,26.7682933807,1.03658533096,23.5975627899,1.0,0.0,0.0,0.0,1.0,0.0,0.0,0.0,1.0,-1.10612116699,-2.84909997559,10.8505219238,1.0,0.0,0.0,0.0,1.0,0.0,0.0,0.0,1.0
1463922956993358710,576,1463922956913540353,,1.20475697517,-13.7065572739,65.3690795898,0.0204290002584,1.0,0.0,0.0,0.0,1.0,0.0,0.0,0.0,1.0,26.7682933807,-8.78048801422,20.2439022064,1.0,0.0,0.0,0.0,1.0,0.0,0.0,0.0,1.0,-0.818816967773,-2.61925661621,11.9805851074,1.0,0.0,0.0,0.0,1.0,0.0,0.0,0.0,1.0
1463922956994640528,577,1463922956933861412,,0.944679319859,-13.1655054092,65.6335525513,0.0203990004957,1.0,0.0,0.0,0.0,1.0,0.0,0.0,0.0,1.0,25.4878044128,-19.0853652954,17.3780498505,1.0,0.0,0.0,0.0,1.0,0.0,0.0,0.0,1.0,-0.957680664062,-2.60489140625,12.6892687988,1.0,0.0,0.0,0.0,1.0,0.0,0.0,0.0,1.0
1463922956995590471,578,1463922956954243409,,0.482375860214,-12.680937767,65.8678894043,0.0204019993544,1.0,0.0,0.0,0.0,1.0,0.0,0.0,0.0,1.0,24.817073822,-28.1707324982,13.9634151459,1.0,0.0,0.0,0.0,1.0,0.0,0.0,0.0,1.0,-0.866701000977,-2.96881005859,12.7706716553,1.0,0.0,0.0,0.0,1.0,0.0,0.0,0.0,1.0
1463922956995861199,579,1463922956974625457,,-0.189647808671,-12.2561216354,66.0709762573,0.0204039998353,1.0,0.0,0.0,0.0,1.0,0.0,0.0,0.0,1.0,28.7195110321,-39.3292694092,10.1829271317,1.0,0.0,0.0,0.0,1.0,0.0,0.0,0.0,1.0,-1.24019645996,-4.86022937012,13.7810247559,1.0,0.0,0.0,0.0,1.0,0.0,0.0,0.0,1.0
1463922957018218604,580,1463922956995052349,,-1.11452627182,-11.5358695984,66.2639160156,0.020422000438,1.0,0.0,0.0,0.0,1.0,0.0,0.0,0.0,1.0,44.0243911743,-49.0243911743,7.92682981491,1.0,0.0,0.0,0.0,1.0,0.0,0.0,0.0,1.0,-0.469263525391,-4.9272670166,13.7570827393,1.0,0.0,0.0,0.0,1.0,0.0,0.0,0.0,1.0
1463922957018596259,581,1463922957015439241,,-2.02368187904,-10.5559530258,66.4813613892,0.0204009991139,1.0,0.0,0.0,0.0,1.0,0.0,0.0,0.0,1.0,48.2926864624,-43.2926864624,11.0975618362,1.0,0.0,0.0,0.0,1.0,0.0,0.0,0.0,1.0,1.02471831055,-2.28406838379,12.7323644287,1.0,0.0,0.0,0.0,1.0,0.0,0.0,0.0,1.0
1463922957058506765,582,1463922957035836758,,-2.59696412086,-9.69968509674,66.5983428955,0.0204729996622,1.0,0.0,0.0,0.0,1.0,0.0,0.0,0.0,1.0,38.2317085266,-24.7560977936,10.2439022064,1.0,0.0,0.0,0.0,1.0,0.0,0.0,0.0,1.0,1.38863696289,-1.07739082014,11.5831476318,1.0,0.0,0.0,0.0,1.0,0.0,0.0,0.0,1.0
1463922957058916555,583,1463922957056640523,,-2.81878781319,-9.06334400177,66.6564331055,0.0203389991075,1.0,0.0,0.0,0.0,1.0,0.0,0.0,0.0,1.0,31.4024391174,-11.1585359573,9.75609779358,1.0,0.0,0.0,0.0,1.0,0.0,0.0,0.0,1.0,0.699106884766,-1.66157595215,11.3245738525,1.0,0.0,0.0,0.0,1.0,0.0,0.0,0.0,1.0
1463922957086508624,584,1463922957076954394,,-2.88876628876,-8.50450801849,66.6072616577,0.0204590000212,1.0,0.0,0.0,0.0,1.0,0.0,0.0,0.0,1.0,28.8414649963,-3.04878044128,5.73170757294,1.0,0.0,0.0,0.0,1.0,0.0,0.0,0.0,1.0,0.694318481445,-1.80522805176,10.9079827637,1.0,0.0,0.0,0.0,1.0,0.0,0.0,0.0,1.0
1463922957098977269,585,1463922957097328266,,-2.78919196129,-7.97072982788,66.5140609741,0.0203569997102,1.0,0.0,0.0,0.0,1.0,0.0,0.0,0.0,1.0,25.6707324982,6.52439069748,5.06097555161,1.0,0.0,0.0,0.0,1.0,0.0,0.0,0.0,1.0,0.866701000977,-1.24019645996,10.3429511719,1.0,0.0,0.0,0.0,1.0,0.0,0.0,0.0,1.0
1463922957120601812,586,1463922957117441825,,-2.61828327179,-7.49638223648,66.3348999023,0.0204089991748,1.0,0.0,0.0,0.0,1.0,0.0,0.0,0.0,1.0,22.1951236725,8.90243911743,1.09756100178,1.0,0.0,0.0,0.0,1.0,0.0,0.0,0.0,1.0,0.536301208408,-1.06302561017,10.1274730225,1.0,0.0,0.0,0.0,1.0,0.0,0.0,0.0,1.0
1463922957140775684,587,1463922957138092987,,-2.36952567101,-7.06701517105,66.10546875,0.0204259995371,1.0,0.0,0.0,0.0,1.0,0.0,0.0,0.0,1.0,16.7073173523,15.6097564697,-0.426829278469,1.0,0.0,0.0,0.0,1.0,0.0,0.0,0.0,1.0,0.928950244141,-0.373495458984,9.49061596538,1.0,0.0,0.0,0.0,1.0,0.0,0.0,0.0,1.0
1463922957160447423,588,1463922957158632379,,-2.02007174492,-6.71883440018,65.8557052612,0.0203939992934,1.0,0.0,0.0,0.0,1.0,0.0,0.0,0.0,1.0,9.5731716156,22.9268302917,-0.548780500889,1.0,0.0,0.0,0.0,1.0,0.0,0.0,0.0,1.0,1.12048637695,0.215478149414,8.26957253418,1.0,0.0,0.0,0.0,1.0,0.0,0.0,0.0,1.0
1463922957182080351,589,1463922957178892396,,-1.535389781,-6.46356010437,65.5461196899,0.0204869993031,1.0,0.0,0.0,0.0,1.0,0.0,0.0,0.0,1.0,-1.40243899822,31.5243930817,-2.37804889679,1.0,0.0,0.0,0.0,1.0,0.0,0.0,0.0,1.0,1.19231249982,1.09175595703,7.26879624023,1.0,0.0,0.0,0.0,1.0,0.0,0.0,0.0,1.0
1463922957215257814,590,1463922957199285955,,-0.953971803188,-6.45858335495,65.1282272339,0.0203130003065,1.0,0.0,0.0,0.0,1.0,0.0,0.0,0.0,1.0,-13.1707324982,34.0853691101,-7.80487823486,1.0,0.0,0.0,0.0,1.0,0.0,0.0,0.0,1.0,0.641646044922,0.9193734375,6.36857641602,1.0,0.0,0.0,0.0,1.0,0.0,0.0,0.0,1.0
1463922957234671428,591,1463922957219537326,,-0.43941450119,-6.65516614914,64.5922012329,0.0204559992999,1.0,0.0,0.0,0.0,1.0,0.0,0.0,0.0,1.0,-21.158536911,30.9146327972,-13.9634151459,1.0,0.0,0.0,0.0,1.0,0.0,0.0,0.0,1.0,0.497993945312,0.670376464844,6.00465776367,1.0,0.0,0.0,0.0,1.0,0.0,0.0,0.0,1.0
1463922957378695709,592,1463922957239945833,,-0.0461249127984,-7.03059196472,63.9631385803,0.0203709993511,1.0,0.0,0.0,0.0,1.0,0.0,0.0,0.0,1.0,-26.7682933807,27.5,-19.0853652954,1.0,0.0,0.0,0.0,1.0,0.0,0.0,0.0,1.0,0.627280834961,0.320823022461,6.00465776367,1.0,0.0,0.0,0.0,1.0,0.0,0.0,0.0,1.0
1463922957379900130,593,1463922957260390381,,0.331582337618,-7.49764060974,63.289264679,0.0204039998353,1.0,0.0,0.0,0.0,1.0,0.0,0.0,0.0,1.0,-30.3658542633,27.317073822,-21.158536911,1.0,0.0,0.0,0.0,1.0,0.0,0.0,0.0,1.0,0.641646044922,0.225054956055,6.4356140625,1.0,0.0,0.0,0.0,1.0,0.0,0.0,0.0,1.0
1463922957380267889,594,1463922957280767846,,0.74102550745,-8.13593387604,62.6125335693,0.0204629991204,1.0,0.0,0.0,0.0,1.0,0.0,0.0,0.0,1.0,-34.3292694092,22.9268302917,-21.5853652954,1.0,0.0,0.0,0.0,1.0,0.0,0.0,0.0,1.0,-0.124498486328,-0.339976635742,7.18739338379,1.0,0.0,0.0,0.0,1.0,0.0,0.0,0.0,1.0
1463922957380536378,595,1463922957301144738,,1.00734007359,-8.83336353302,61.9374771118,0.0203590001911,1.0,0.0,0.0,0.0,1.0,0.0,0.0,0.0,1.0,-32.5609779358,15.2439022064,-22.5609760284,1.0,0.0,0.0,0.0,1.0,0.0,0.0,0.0,1.0,-0.383072265625,-1.17315874041,8.3030907729,1.0,0.0,0.0,0.0,1.0,0.0,0.0,0.0,1.0
1463922957380788929,596,1463922957321712410,,1.16697514057,-9.44068908691,61.3124351501,0.020535999909,1.0,0.0,0.0,0.0,1.0,0.0,0.0,0.0,1.0,-27.5609760284,11.4024391174,-20.3048782349,1.0,0.0,0.0,0.0,1.0,0.0,0.0,0.0,1.0,-0.229843359375,-1.50355864258,9.50498117534,1.0,0.0,0.0,0.0,1.0,0.0,0.0,0.0,1.0
1463922957381049084,597,1463922957342181958,,1.29039824009,-9.95726299286,60.8249092102,0.0202779993415,1.0,0.0,0.0,0.0,1.0,0.0,0.0,0.0,1.0,-22.4390239716,10.7926826477,-13.841463089,1.0,0.0,0.0,0.0,1.0,0.0,0.0,0.0,1.0,0.067037651051,-1.92493813477,10.1945106689,1.0,0.0,0.0,0.0,1.0,0.0,0.0,0.0,1.0
1463922957416800858,598,1463922957362386872,,1.48880529404,-10.3562602997,60.4987258911,0.0204210001975,1.0,0.0,0.0,0.0,1.0,0.0,0.0,0.0,1.0,-17.1951217651,12.0731716156,-5.36585378647,1.0,0.0,0.0,0.0,1.0,0.0,0.0,0.0,1.0,-0.15801730957,-2.01591779785,10.7308118408,1.0,0.0,0.0,0.0,1.0,0.0,0.0,0.0,1.0
1463922957417068253,599,1463922957382780483,,1.72430348396,-10.6326789856,60.3806114197,0.0204039998353,1.0,0.0,0.0,0.0,1.0,0.0,0.0,0.0,1.0,-13.3536586761,10.7926826477,4.75609779358,1.0,0.0,0.0,0.0,1.0,0.0,0.0,0.0,1.0,-0.46447512207,-1.77170922852,11.0707884766,1.0,0.0,0.0,0.0,1.0,0.0,0.0,0.0,1.0
1463922957438498890,600,1463922957403181489,,1.98522090912,-10.8513965607,60.4852752686,0.0203939992934,1.0,0.0,0.0,0.0,1.0,0.0,0.0,0.0,1.0,-10.6097564697,6.64634132385,15.1219511032,1.0,0.0,0.0,0.0,1.0,0.0,0.0,0.0,1.0,-1.21146604004,-1.90578452148,11.2479593994,1.0,0.0,0.0,0.0,1.0,0.0,0.0,0.0,1.0
1463922957438577588,601,1463922957423555725,,2.07553458214,-10.9977397919,60.7966690063,0.0204140003771,1.0,0.0,0.0,0.0,1.0,0.0,0.0,0.0,1.0,-6.7682929039,-5.79268312454,23.0487823486,1.0,0.0,0.0,0.0,1.0,0.0,0.0,0.0,1.0,-1.87226569824,-2.23618435059,12.0619879639,1.0,0.0,0.0,0.0,1.0,0.0,0.0,0.0,1.0
1463922957481538602,602,1463922957444075377,,1.92730879784,-11.1079273224,61.2547683716,0.0204029995948,1.0,0.0,0.0,0.0,1.0,0.0,0.0,0.0,1.0,0.365853667259,-21.158536911,27.5609760284,1.0,0.0,0.0,0.0,1.0,0.0,0.0,0.0,1.0,-2.63362182617,-3.73495458984,12.6605383789,1.0,0.0,0.0,0.0,1.0,0.0,0.0,0.0,1.0
1463922957481822091,603,1463922957464433779,,1.43498027325,-10.9764814377,61.9247512817,0.0204109996557,1.0,0.0,0.0,0.0,1.0,0.0,0.0,0.0,1.0,16.2804889679,-37.0731697083,35.1219520569,1.0,0.0,0.0,0.0,1.0,0.0,0.0,0.0,1.0,-2.13562802699,-5.17626398926,13.5703350098,1.0,0.0,0.0,0.0,1.0,0.0,0.0,0.0,1.0
1463922957575499398,604,1463922957484728380,,0.733876526356,-10.4128751755,62.782043457,0.0204179994762,1.0,0.0,0.0,0.0,1.0,0.0,0.0,0.0,1.0,32.9878044128,-42.5,43.4146347046,1.0,0.0,0.0,0.0,1.0,0.0,0.0,0.0,1.0,-0.387860668945,-3.86424147949,13.5559697998,1.0,0.0,0.0,0.0,1.0,0.0,0.0,0.0,1.0
1463922957575937678,605,1463922957505287771,,0.216338217258,-9.63672065735,63.7878837585,0.0204189997166,1.0,0.0,0.0,0.0,1.0,0.0,0.0,0.0,1.0,35.8536605835,-33.6585388184,52.6219520569,1.0,0.0,0.0,0.0,1.0,0.0,0.0,0.0,1.0,-0.00957680664062,-1.66636435547,12.9813614014,1.0,0.0,0.0,0.0,1.0,0.0,0.0,0.0,1.0
1463922957576234864,606,1463922957525499248,,-0.0316391438246,-8.99132442474,64.7784194946,0.0204039998353,1.0,0.0,0.0,0.0,1.0,0.0,0.0,0.0,1.0,29.1463413239,-23.4146347046,53.9024391174,1.0,0.0,0.0,0.0,1.0,0.0,0.0,0.0,1.0,-0.660799658203,-1.26413847656,12.3061965332,1.0,0.0,0.0,0.0,1.0,0.0,0.0,0.0,1.0
1463922957576529811,607,1463922957546184159,,-0.24764123559,-8.47188091278,65.638458252,0.0204050000757,1.0,0.0,0.0,0.0,1.0,0.0,0.0,0.0,1.0,27.4390258789,-23.2317085266,47.6219520569,1.0,0.0,0.0,0.0,1.0,0.0,0.0,0.0,1.0,-1.15879360352,-1.93451494141,11.4825911621,1.0,0.0,0.0,0.0,1.0,0.0,0.0,0.0,1.0
1463922957598779924,608,1463922957566512353,,-0.494227081537,-7.97217130661,66.3710250854,0.0204039998353,1.0,0.0,0.0,0.0,1.0,0.0,0.0,0.0,1.0,27.1951236725,-24.4512195587,41.2804908752,1.0,0.0,0.0,0.0,1.0,0.0,0.0,0.0,1.0,-1.19231249982,-1.76213242187,10.3716815918,1.0,0.0,0.0,0.0,1.0,0.0,0.0,0.0,1.0
1463922957599441223,609,1463922957587020078,,-0.78367292881,-7.51289415359,66.9867706299,0.0203930009156,1.0,0.0,0.0,0.0,1.0,0.0,0.0,0.0,1.0,26.4024391174,-21.4634151459,36.0975646973,1.0,0.0,0.0,0.0,1.0,0.0,0.0,0.0,1.0,-0.368707055664,-1.78607443848,9.90720646973,1.0,0.0,0.0,0.0,1.0,0.0,0.0,0.0,1.0
1463922957640855838,610,1463922957607895406,,-0.915391623974,-7.10070085526,67.6223678589,0.0204799994826,1.0,0.0,0.0,0.0,1.0,0.0,0.0,0.0,1.0,25.3658542633,-13.658536911,38.0487823486,1.0,0.0,0.0,0.0,1.0,0.0,0.0,0.0,1.0,-0.320823022461,-1.93451494141,9.94551369629,1.0,0.0,0.0,0.0,1.0,0.0,0.0,0.0,1.0
1463922957641167086,611,1463922957627816206,,-0.899673223495,-6.68738269806,68.3713760376,0.0203639995307,1.0,0.0,0.0,0.0,1.0,0.0,0.0,0.0,1.0,25.7926845551,-9.87804889679,44.3292694092,1.0,0.0,0.0,0.0,1.0,0.0,0.0,0.0,1.0,-0.799663354492,-1.83395847168,9.66778688823,1.0,0.0,0.0,0.0,1.0,0.0,0.0,0.0,1.0
1463922957682641597,612,1463922957648502420,,-0.898755908012,-6.32091522217,69.2693328857,0.0204029995948,1.0,0.0,0.0,0.0,1.0,0.0,0.0,0.0,1.0,24.4512195587,-12.2560977936,51.3414649963,1.0,0.0,0.0,0.0,1.0,0.0,0.0,0.0,1.0,-1.02471831055,-1.97761057129,9.95987890625,1.0,0.0,0.0,0.0,1.0,0.0,0.0,0.0,1.0
1463922957683192688,613,1463922957668684260,,-0.926595449448,-5.88378715515,70.2999267578,0.0203930009156,1.0,0.0,0.0,0.0,1.0,0.0,0.0,0.0,1.0,22.3170719147,-7.19512224197,58.5975608826,1.0,0.0,0.0,0.0,1.0,0.0,0.0,0.0,1.0,0.201112939453,-0.823605371094,9.31823227681,1.0,0.0,0.0,0.0,1.0,0.0,0.0,0.0,1.0
1463922957719444148,614,1463922957689025944,,-0.731184959412,-5.50706720352,71.4465255737,0.0204739999026,1.0,0.0,0.0,0.0,1.0,0.0,0.0,0.0,1.0,11.0365858078,5.36585378647,65.4878082275,1.0,0.0,0.0,0.0,1.0,0.0,0.0,0.0,1.0,0.450109912109,0.536301208408,8.09240161133,1.0,0.0,0.0,0.0,1.0,0.0,0.0,0.0,1.0
1463922957720071332,615,1463922957709203879,,-0.327283114195,-5.41029119492,72.6355209351,0.0203290004283,1.0,0.0,0.0,0.0,1.0,0.0,0.0,0.0,1.0,-4.02439022064,17.6219520569,69.0853652954,1.0,0.0,0.0,0.0,1.0,0.0,0.0,0.0,1.0,0.603338854892,0.646434448242,6.89530078125,1.0,0.0,0.0,0.0,1.0,0.0,0.0,0.0,1.0
1463922957758525803,616,1463922957729707802,,0.321646392345,-5.62886095047,73.7770767212,0.0204130001366,1.0,0.0,0.0,0.0,1.0,0.0,0.0,0.0,1.0,-17.6219520569,26.6463432312,67.3170776367,1.0,0.0,0.0,0.0,1.0,0.0,0.0,0.0,1.0,0.167594116211,0.330399829102,6.42124885254,1.0,0.0,0.0,0.0,1.0,0.0,0.0,0.0,1.0
1463922957758619240,617,1463922957749941413,,1.05593931675,-6.07219219208,74.8087081909,0.0204029995948,1.0,0.0,0.0,0.0,1.0,0.0,0.0,0.0,1.0,-27.9268302917,28.7195110321,62.2560997009,1.0,0.0,0.0,0.0,1.0,0.0,0.0,0.0,1.0,-0.181959326172,0.162805712891,6.88572397461,1.0,0.0,0.0,0.0,1.0,0.0,0.0,0.0,1.0
1463922957834461989,618,1463922957770575804,,1.77228701115,-6.75676870346,75.7563781738,0.0204189997166,1.0,0.0,0.0,0.0,1.0,0.0,0.0,0.0,1.0,-37.0731697083,29.5121974945,58.4756126404,1.0,0.0,0.0,0.0,1.0,0.0,0.0,0.0,1.0,-0.0622492431641,-0.31124621582,7.6375032959,1.0,0.0,0.0,0.0,1.0,0.0,0.0,0.0,1.0
