%time,field.header.seq,field.header.stamp,field.header.frame_id,field.orientation.x,field.orientation.y,field.orientation.z,field.orientation.w,field.orientation_covariance0,field.orientation_covariance1,field.orientation_covariance2,field.orientation_covariance3,field.orientation_covariance4,field.orientation_covariance5,field.orientation_covariance6,field.orientation_covariance7,field.orientation_covariance8,field.angular_velocity.x,field.angular_velocity.y,field.angular_velocity.z,field.angular_velocity_covariance0,field.angular_velocity_covariance1,field.angular_velocity_covariance2,field.angular_velocity_covariance3,field.angular_velocity_covariance4,field.angular_velocity_covariance5,field.angular_velocity_covariance6,field.angular_velocity_covariance7,field.angular_velocity_covariance8,field.linear_acceleration.x,field.linear_acceleration.y,field.linear_acceleration.z,field.linear_acceleration_covariance0,field.linear_acceleration_covariance1,field.linear_acceleration_covariance2,field.linear_acceleration_covariance3,field.linear_acceleration_covariance4,field.linear_acceleration_covariance5,field.linear_acceleration_covariance6,field.linear_acceleration_covariance7,field.linear_acceleration_covariance8
1463930398253226150,231,1463930398242068854,,4.62365722656,-22.4321727753,35.733669281,0.00107700005174,1.0,0.0,0.0,0.0,1.0,0.0,0.0,0.0,1.0,0.0609756112099,1.09756100178,0.12195122242,1.0,0.0,0.0,0.0,1.0,0.0,0.0,0.0,1.0,0.588973571866,-0.60812722168,10.285490332,1.0,0.0,0.0,0.0,1.0,0.0,0.0,0.0,1.0
1463930398274624027,232,1463930398262713245,,4.5322303772,-22.0695953369,35.7424545288,0.00104300002567,1.0,0.0,0.0,0.0,1.0,0.0,0.0,0.0,1.0,-0.304878056049,1.2195122242,0.243902444839,1.0,0.0,0.0,0.0,1.0,0.0,0.0,0.0,1.0,0.598550451572,-0.61770402832,10.1083194092,1.0,0.0,0.0,0.0,1.0,0.0,0.0,0.0,1.0
1463930398291312185,233,1463930398283614197,,4.43825149536,-21.7152843475,35.7476463318,0.00126100005582,1.0,0.0,0.0,0.0,1.0,0.0,0.0,0.0,1.0,-0.304878056049,1.34146344662,0.12195122242,1.0,0.0,0.0,0.0,1.0,0.0,0.0,0.0,1.0,0.641646044922,-0.588973571866,10.1226846191,1.0,0.0,0.0,0.0,1.0,0.0,0.0,0.0,1.0
1463930398312027774,234,1463930398305316969,,4.34668970108,-21.3717918396,35.7495803833,0.00219999998808,1.0,0.0,0.0,0.0,1.0,0.0,0.0,0.0,1.0,-0.426829278469,1.64634156227,-0.12195122242,1.0,0.0,0.0,0.0,1.0,0.0,0.0,0.0,1.0,0.675164868164,-0.603338854892,10.2280294922,1.0,0.0,0.0,0.0,1.0,0.0,0.0,0.0,1.0
1463930398330586080,235,1463930398325001781,,4.26279211044,-21.0377635956,35.746307373,0.00199100002646,1.0,0.0,0.0,0.0,1.0,0.0,0.0,0.0,1.0,-0.365853667259,2.37804889679,0.12195122242,1.0,0.0,0.0,0.0,1.0,0.0,0.0,0.0,1.0,0.742202514648,-0.699106884766,10.2040874756,1.0,0.0,0.0,0.0,1.0,0.0,0.0,0.0,1.0
1463930398350612140,236,1463930398345715390,,4.19344758987,-20.7157859802,35.7343940735,0.00118899997324,1.0,0.0,0.0,0.0,1.0,0.0,0.0,0.0,1.0,-0.426829278469,2.62195134163,-0.0609756112099,1.0,0.0,0.0,0.0,1.0,0.0,0.0,0.0,1.0,0.694318481445,-0.636857641602,10.1705686523,1.0,0.0,0.0,0.0,1.0,0.0,0.0,0.0,1.0
1463930398370165546,237,1463930398366984414,,4.13664484024,-20.383605957,35.7186584473,0.00120900000911,1.0,0.0,0.0,0.0,1.0,0.0,0.0,0.0,1.0,-0.243902444839,3.90243911743,0.0609756112099,1.0,0.0,0.0,0.0,1.0,0.0,0.0,0.0,1.0,0.699106884766,-0.641646044922,10.1609918457,1.0,0.0,0.0,0.0,1.0,0.0,0.0,0.0,1.0
1463930398391299101,238,1463930398388050990,,4.10342025757,-20.0557384491,35.6998138428,0.00193300005049,1.0,0.0,0.0,0.0,1.0,0.0,0.0,0.0,1.0,-0.548780500889,4.20731735229,0.18292683363,1.0,0.0,0.0,0.0,1.0,0.0,0.0,0.0,1.0,0.641646044922,-0.679953271484,10.1609918457,1.0,0.0,0.0,0.0,1.0,0.0,0.0,0.0,1.0
1463930398412114117,239,1463930398408549913,,4.08395195007,-19.7457199097,35.6825065613,0.00118100002874,1.0,0.0,0.0,0.0,1.0,0.0,0.0,0.0,1.0,-0.548780500889,4.2682929039,0.609756112099,1.0,0.0,0.0,0.0,1.0,0.0,0.0,0.0,1.0,0.622492431641,-0.684741674805,10.2088758789,1.0,0.0,0.0,0.0,1.0,0.0,0.0,0.0,1.0
1463930398436029379,240,1463930398432321218,,4.06128644943,-19.4006214142,35.6677093506,0.00548799987882,1.0,0.0,0.0,0.0,1.0,0.0,0.0,0.0,1.0,-0.426829278469,2.56097555161,-0.18292683363,1.0,0.0,0.0,0.0,1.0,0.0,0.0,0.0,1.0,0.344765039063,-0.699106884766,10.1897222656,1.0,0.0,0.0,0.0,1.0,0.0,0.0,0.0,1.0
1463930399382930747,241,1463930398454407634,,4.0091843605,-19.0962486267,35.6582756042,0.0013419999741,1.0,0.0,0.0,0.0,1.0,0.0,0.0,0.0,1.0,-0.548780500889,1.95121955872,0.0,1.0,0.0,0.0,0.0,1.0,0.0,0.0,0.0,1.0,0.565031591797,-0.636857641602,10.2519715088,1.0,0.0,0.0,0.0,1.0,0.0,0.0,0.0,1.0
1463930399383638244,242,1463930398474532183,,3.95598077774,-18.7926502228,35.6574516296,0.00195099995472,1.0,0.0,0.0,0.0,1.0,0.0,0.0,0.0,1.0,-0.12195122242,1.70731711388,0.365853667259,1.0,0.0,0.0,0.0,1.0,0.0,0.0,0.0,1.0,0.555454785156,-0.699106884766,10.2232410889,1.0,0.0,0.0,0.0,1.0,0.0,0.0,0.0,1.0
1463930399384534126,243,1463930398494474598,,3.88183307648,-18.497636795,35.6606330872,0.00131099997088,1.0,0.0,0.0,0.0,1.0,0.0,0.0,0.0,1.0,-0.304878056049,0.365853667259,0.0609756112099,1.0,0.0,0.0,0.0,1.0,0.0,0.0,0.0,1.0,0.521935925381,-0.536301208408,10.2615483154,1.0,0.0,0.0,0.0,1.0,0.0,0.0,0.0,1.0
1463930399386324691,244,1463930398516174922,,3.78950953484,-18.1873092651,35.6756248474,0.00155199994333,1.0,0.0,0.0,0.0,1.0,0.0,0.0,0.0,1.0,-0.731707334518,-0.548780500889,0.792682945728,1.0,0.0,0.0,0.0,1.0,0.0,0.0,0.0,1.0,0.46447512207,-0.296881024126,10.6063133545,1.0,0.0,0.0,0.0,1.0,0.0,0.0,0.0,1.0
1463930399387161719,245,1463930398537633267,,3.66195988655,-17.8603534698,35.7429924011,0.00155199994333,1.0,0.0,0.0,0.0,1.0,0.0,0.0,0.0,1.0,-2.19512200356,-4.39024400711,2.98780488968,1.0,0.0,0.0,0.0,1.0,0.0,0.0,0.0,1.0,0.737414111328,0.229843359375,10.7068698242,1.0,0.0,0.0,0.0,1.0,0.0,0.0,0.0,1.0
1463930399388448692,246,1463930398558470418,,3.41325998306,-17.5041103363,35.8246498108,0.00165800005198,1.0,0.0,0.0,0.0,1.0,0.0,0.0,0.0,1.0,-2.92682933807,-5.36585378647,0.365853667259,1.0,0.0,0.0,0.0,1.0,0.0,0.0,0.0,1.0,1.32159931641,0.181959326172,9.60074924175,1.0,0.0,0.0,0.0,1.0,0.0,0.0,0.0,1.0
1463930399391576492,247,1463930398580551417,,3.16413640976,-17.2709083557,35.8030471802,0.00191899994388,1.0,0.0,0.0,0.0,1.0,0.0,0.0,0.0,1.0,-2.56097555161,3.53658556938,-1.95121955872,1.0,0.0,0.0,0.0,1.0,0.0,0.0,0.0,1.0,1.51792385254,-1.26892687988,9.86889924316,1.0,0.0,0.0,0.0,1.0,0.0,0.0,0.0,1.0
1463930399392404301,248,1463930398602488251,,3.19550848007,-17.1511459351,35.7268486023,0.00157500000205,1.0,0.0,0.0,0.0,1.0,0.0,0.0,0.0,1.0,0.731707334518,12.4390249252,-0.243902444839,1.0,0.0,0.0,0.0,1.0,0.0,0.0,0.0,1.0,0.905008227539,-1.5083470459,9.8545340332,1.0,0.0,0.0,0.0,1.0,0.0,0.0,0.0,1.0
1463930399393049246,249,1463930398623818420,,3.40867638588,-17.016576767,35.6273727417,0.00158899999224,1.0,0.0,0.0,0.0,1.0,0.0,0.0,0.0,1.0,2.07317066193,15.0609760284,-0.487804889679,1.0,0.0,0.0,0.0,1.0,0.0,0.0,0.0,1.0,0.00478840332031,-1.64721074219,9.08360109863,1.0,0.0,0.0,0.0,1.0,0.0,0.0,0.0,1.0
1463930399394463146,250,1463930398644183802,,3.63433027267,-16.8379650116,35.5465049744,0.0014600000577,1.0,0.0,0.0,0.0,1.0,0.0,0.0,0.0,1.0,3.90243911743,10.4268293381,-0.0609756112099,1.0,0.0,0.0,0.0,1.0,0.0,0.0,0.0,1.0,-0.0909796630859,-1.67594116211,10.1609918457,1.0,0.0,0.0,0.0,1.0,0.0,0.0,0.0,1.0
1463930399395231111,251,1463930398665395690,,3.81158089638,-16.5545921326,35.4873733521,0.00173000001814,1.0,0.0,0.0,0.0,1.0,0.0,0.0,0.0,1.0,2.80487799644,9.87804889679,0.0,1.0,0.0,0.0,0.0,1.0,0.0,0.0,0.0,1.0,-0.225054956055,-1.16358193377,10.299855542,1.0,0.0,0.0,0.0,1.0,0.0,0.0,0.0,1.0
1463930399396689907,252,1463930398687419242,,3.94142866135,-16.2492332458,35.4478759766,0.00163900002372,1.0,0.0,0.0,0.0,1.0,0.0,0.0,0.0,1.0,1.2195122242,0.0,-0.609756112099,1.0,0.0,0.0,0.0,1.0,0.0,0.0,0.0,1.0,-0.229843359375,-0.368707055664,10.3046439453,1.0,0.0,0.0,0.0,1.0,0.0,0.0,0.0,1.0
1463930399398105526,253,1463930398708680088,,3.85320997238,-15.9075269699,35.4787826538,0.00171700003557,1.0,0.0,0.0,0.0,1.0,0.0,0.0,0.0,1.0,1.40243899822,-2.43902444839,1.2195122242,1.0,0.0,0.0,0.0,1.0,0.0,0.0,0.0,1.0,0.478840332031,1.02950671387,11.8177793945,1.0,0.0,0.0,0.0,1.0,0.0,0.0,0.0,1.0
1463930399399786769,254,1463930398729041564,,3.72067093849,-15.5522241592,35.5234642029,0.00266200001352,1.0,0.0,0.0,0.0,1.0,0.0,0.0,0.0,1.0,-2.19512200356,-14.2682924271,-0.792682945728,1.0,0.0,0.0,0.0,1.0,0.0,0.0,0.0,1.0,-0.0478840332031,0.651222851562,9.94551369629,1.0,0.0,0.0,0.0,1.0,0.0,0.0,0.0,1.0
1463930399400412600,255,1463930398749571111,,3.28727245331,-15.1734542847,35.6162490845,0.00150100002065,1.0,0.0,0.0,0.0,1.0,0.0,0.0,0.0,1.0,-3.59756112099,-17.0731716156,0.792682945728,1.0,0.0,0.0,0.0,1.0,0.0,0.0,0.0,1.0,0.92416184082,1.14921679688,10.5727945312,1.0,0.0,0.0,0.0,1.0,0.0,0.0,0.0,1.0
1463930399401614105,256,1463930398770858677,,2.85074996948,-14.8509874344,35.7882156372,0.00151700002607,1.0,0.0,0.0,0.0,1.0,0.0,0.0,0.0,1.0,-2.80487799644,-11.5243911743,4.02439022064,1.0,0.0,0.0,0.0,1.0,0.0,0.0,0.0,1.0,1.5562310791,0.526724328702,10.4482960449,1.0,0.0,0.0,0.0,1.0,0.0,0.0,0.0,1.0
1463930399402895037,257,1463930398791312912,,2.50144147873,-14.667424202,35.8504295349,0.0017490000464,1.0,0.0,0.0,0.0,1.0,0.0,0.0,0.0,1.0,-5.79268312454,-13.2317075729,-2.80487799644,1.0,0.0,0.0,0.0,1.0,0.0,0.0,0.0,1.0,1.17315874041,-1.31681091309,10.0221281494,1.0,0.0,0.0,0.0,1.0,0.0,0.0,0.0,1.0
1463930399419262207,258,1463930398812987559,,2.14320540428,-14.6677846909,35.8385467529,0.00162600004114,1.0,0.0,0.0,0.0,1.0,0.0,0.0,0.0,1.0,-2.37804889679,-0.487804889679,-2.80487799644,1.0,0.0,0.0,0.0,1.0,0.0,0.0,0.0,1.0,1.25935007324,-1.75734401855,8.52335849468,1.0,0.0,0.0,0.0,1.0,0.0,0.0,0.0,1.0
1463930399419732830,259,1463930398833437680,,2.11893033981,-14.6361351013,35.8078346252,0.00173500005621,1.0,0.0,0.0,0.0,1.0,0.0,0.0,0.0,1.0,0.12195122242,0.0,-0.365853667259,1.0,0.0,0.0,0.0,1.0,0.0,0.0,0.0,1.0,0.287304199219,-2.43250888672,10.4674496582,1.0,0.0,0.0,0.0,1.0,0.0,0.0,0.0,1.0
1463930399422322871,260,1463930398855526960,,2.0475692749,-14.5129146576,35.8115463257,0.00161799998023,1.0,0.0,0.0,0.0,1.0,0.0,0.0,0.0,1.0,1.64634156227,-2.5,0.0,1.0,0.0,0.0,0.0,1.0,0.0,0.0,0.0,1.0,0.15801730957,-2.09253210485,10.046070166,1.0,0.0,0.0,0.0,1.0,0.0,0.0,0.0,1.0
1463930399423303543,261,1463930398877269107,,1.92162823677,-14.3788614273,35.8278083801,0.0013569999719,1.0,0.0,0.0,0.0,1.0,0.0,0.0,0.0,1.0,1.15853655338,-7.01219511032,0.548780500889,1.0,0.0,0.0,0.0,1.0,0.0,0.0,0.0,1.0,0.325611425781,-1.58974990234,9.7348239502,1.0,0.0,0.0,0.0,1.0,0.0,0.0,0.0,1.0
1463930399424415101,262,1463930398897070950,,1.74109089375,-14.1604166031,35.8905296326,0.00151700002607,1.0,0.0,0.0,0.0,1.0,0.0,0.0,0.0,1.0,0.853658556938,-2.07317066193,2.74390244484,1.0,0.0,0.0,0.0,1.0,0.0,0.0,0.0,1.0,1.24498486328,-0.0383072265625,10.405200415,1.0,0.0,0.0,0.0,1.0,0.0,0.0,0.0,1.0
1463930399425842855,263,1463930398919177522,,1.64944183826,-13.8513736725,35.9766845703,0.00188999995589,1.0,0.0,0.0,0.0,1.0,0.0,0.0,0.0,1.0,1.03658533096,1.8292683363,4.57317066193,1.0,0.0,0.0,0.0,1.0,0.0,0.0,0.0,1.0,1.22104284668,0.603338854892,10.3716815918,1.0,0.0,0.0,0.0,1.0,0.0,0.0,0.0,1.0
1463930399426811341,264,1463930398940654982,,1.55270957947,-13.4810447693,36.0291557312,0.00135799997952,1.0,0.0,0.0,0.0,1.0,0.0,0.0,0.0,1.0,-0.12195122242,-0.487804889679,1.15853655338,1.0,0.0,0.0,0.0,1.0,0.0,0.0,0.0,1.0,0.641646044922,0.861912597656,10.5823713379,1.0,0.0,0.0,0.0,1.0,0.0,0.0,0.0,1.0
1463930399428326699,265,1463930398961174425,,1.41363871098,-13.2221431732,36.0513534546,0.00148500001524,1.0,0.0,0.0,0.0,1.0,0.0,0.0,0.0,1.0,-0.12195122242,-5.60975599289,-1.15853655338,1.0,0.0,0.0,0.0,1.0,0.0,0.0,0.0,1.0,0.775721337891,-0.201112939453,10.1083194092,1.0,0.0,0.0,0.0,1.0,0.0,0.0,0.0,1.0
1463930399428997634,266,1463930398982955686,,1.17304992676,-13.0512895584,36.0523338318,0.00152499997057,1.0,0.0,0.0,0.0,1.0,0.0,0.0,0.0,1.0,-2.80487799644,-7.68292665482,-0.304878056049,1.0,0.0,0.0,0.0,1.0,0.0,0.0,0.0,1.0,1.10612116699,-1.22104284668,10.1705686523,1.0,0.0,0.0,0.0,1.0,0.0,0.0,0.0,1.0
1463930399429972525,267,1463930399004192210,,0.974476337433,-12.9862346649,36.0866546631,0.00154600001406,1.0,0.0,0.0,0.0,1.0,0.0,0.0,0.0,1.0,-2.13414645195,-3.59756112099,1.64634156227,1.0,0.0,0.0,0.0,1.0,0.0,0.0,0.0,1.0,1.06302561017,-1.00077629395,9.89284125977,1.0,0.0,0.0,0.0,1.0,0.0,0.0,0.0,1.0
1463930399432092516,268,1463930399024498321,,0.793618857861,-12.8388319016,36.1156654358,0.0011269999668,1.0,0.0,0.0,0.0,1.0,0.0,0.0,0.0,1.0,-1.46341466904,-1.58536589146,0.975609779358,1.0,0.0,0.0,0.0,1.0,0.0,0.0,0.0,1.0,1.63284553223,-0.411802685547,10.3908352051,1.0,0.0,0.0,0.0,1.0,0.0,0.0,0.0,1.0
1463930399433488239,269,1463930399047152339,,0.691688477993,-12.6572570801,36.1166038513,0.00165200000629,1.0,0.0,0.0,0.0,1.0,0.0,0.0,0.0,1.0,-0.18292683363,4.2682929039,0.853658556938,1.0,0.0,0.0,0.0,1.0,0.0,0.0,0.0,1.0,1.19710090314,-0.876277807617,9.86889924316,1.0,0.0,0.0,0.0,1.0,0.0,0.0,0.0,1.0
1463930399433558760,270,1463930399068558862,,0.702822983265,-12.5681734085,36.1058044434,0.00163700000849,1.0,0.0,0.0,0.0,1.0,0.0,0.0,0.0,1.0,0.365853667259,3.90243911743,0.853658556938,1.0,0.0,0.0,0.0,1.0,0.0,0.0,0.0,1.0,0.881066210937,-1.70467158203,9.97903251953,1.0,0.0,0.0,0.0,1.0,0.0,0.0,0.0,1.0
1463930399434592714,271,1463930399089502887,,0.717362582684,-12.436712265,36.0941047668,0.00209300010465,1.0,0.0,0.0,0.0,1.0,0.0,0.0,0.0,1.0,0.304878056049,5.79268312454,0.914634168148,1.0,0.0,0.0,0.0,1.0,0.0,0.0,0.0,1.0,1.14921679688,-0.713472094727,10.5296989014,1.0,0.0,0.0,0.0,1.0,0.0,0.0,0.0,1.0
1463930399435257763,272,1463930399110308215,,0.738577544689,-12.2042694092,36.0788002014,0.00145400001202,1.0,0.0,0.0,0.0,1.0,0.0,0.0,0.0,1.0,0.12195122242,5.06097555161,0.12195122242,1.0,0.0,0.0,0.0,1.0,0.0,0.0,0.0,1.0,1.23540805664,-0.0287304199219,9.89762966309,1.0,0.0,0.0,0.0,1.0,0.0,0.0,0.0,1.0
1463930399437083953,273,1463930399132568432,,0.741177082062,-11.969660759,36.0399055481,0.00145199999679,1.0,0.0,0.0,0.0,1.0,0.0,0.0,0.0,1.0,0.0609756112099,5.06097555161,-0.243902444839,1.0,0.0,0.0,0.0,1.0,0.0,0.0,0.0,1.0,1.19231249982,-0.114921679688,10.1562034424,1.0,0.0,0.0,0.0,1.0,0.0,0.0,0.0,1.0
1463930399438593218,274,1463930399153437458,,0.768532216549,-11.7661352158,36.0045700073,0.00156999996398,1.0,0.0,0.0,0.0,1.0,0.0,0.0,0.0,1.0,-0.365853667259,6.28048801422,-0.12195122242,1.0,0.0,0.0,0.0,1.0,0.0,0.0,0.0,1.0,0.905008227539,-0.497993945312,10.3668931885,1.0,0.0,0.0,0.0,1.0,0.0,0.0,0.0,1.0
1463930399439568161,275,1463930399173836225,,0.831622242928,-11.6436471939,35.9740219116,0.00143599999137,1.0,0.0,0.0,0.0,1.0,0.0,0.0,0.0,1.0,-0.792682945728,5.60975599289,-0.487804889679,1.0,0.0,0.0,0.0,1.0,0.0,0.0,0.0,1.0,0.76135612793,-0.794874951172,10.1035310059,1.0,0.0,0.0,0.0,1.0,0.0,0.0,0.0,1.0
1463930399441042530,276,1463930399202020479,,0.890721559525,-11.5122432709,35.9401779175,0.00159600004554,1.0,0.0,0.0,0.0,1.0,0.0,0.0,0.0,1.0,-0.487804889679,5.30487823486,0.365853667259,1.0,0.0,0.0,0.0,1.0,0.0,0.0,0.0,1.0,0.603338854892,-0.675164868164,10.0317049561,1.0,0.0,0.0,0.0,1.0,0.0,0.0,0.0,1.0
1463930399441728621,277,1463930399217759787,,0.947075307369,-11.3689565659,35.9173088074,0.00183900003321,1.0,0.0,0.0,0.0,1.0,0.0,0.0,0.0,1.0,-0.426829278469,2.98780488968,-0.0609756112099,1.0,0.0,0.0,0.0,1.0,0.0,0.0,0.0,1.0,0.493205541992,-0.866701000977,10.2711251221,1.0,0.0,0.0,0.0,1.0,0.0,0.0,0.0,1.0
1463930399442707419,278,1463930399239743599,,0.943880915642,-11.2626819611,35.8938217163,0.00276999990456,1.0,0.0,0.0,0.0,1.0,0.0,0.0,0.0,1.0,-0.0609756112099,0.18292683363,-0.243902444839,1.0,0.0,0.0,0.0,1.0,0.0,0.0,0.0,1.0,0.531512805087,-1.19710090314,10.0317049561,1.0,0.0,0.0,0.0,1.0,0.0,0.0,0.0,1.0
1463930399443960226,279,1463930399261874911,,0.906605184078,-11.1545248032,35.8906021118,0.00158599996939,1.0,0.0,0.0,0.0,1.0,0.0,0.0,0.0,1.0,0.12195122242,1.15853655338,1.09756100178,1.0,0.0,0.0,0.0,1.0,0.0,0.0,0.0,1.0,0.76135612793,-0.828393774414,10.0795889893,1.0,0.0,0.0,0.0,1.0,0.0,0.0,0.0,1.0
1463930399444822618,280,1463930399282253886,,0.878578603268,-10.9769134521,35.9040794373,0.00167999998666,1.0,0.0,0.0,0.0,1.0,0.0,0.0,0.0,1.0,-0.487804889679,0.975609779358,0.792682945728,1.0,0.0,0.0,0.0,1.0,0.0,0.0,0.0,1.0,0.478840332031,-1.1540052002,10.778695874,1.0,0.0,0.0,0.0,1.0,0.0,0.0,0.0,1.0
1463930399445687510,281,1463930399303586139,,0.806842565536,-10.820435524,35.9168167114,0.00151400000323,1.0,0.0,0.0,0.0,1.0,0.0,0.0,0.0,1.0,1.34146344662,-1.46341466904,-0.487804889679,1.0,0.0,0.0,0.0,1.0,0.0,0.0,0.0,1.0,0.905008227539,-0.636857641602,10.0221281494,1.0,0.0,0.0,0.0,1.0,0.0,0.0,0.0,1.0
1463930399446664121,282,1463930399325011880,,0.69193059206,-10.6067142487,35.9055747986,0.00168900005519,1.0,0.0,0.0,0.0,1.0,0.0,0.0,0.0,1.0,-0.487804889679,0.365853667259,-0.243902444839,1.0,0.0,0.0,0.0,1.0,0.0,0.0,0.0,1.0,1.14921679688,-0.952892260742,10.3716815918,1.0,0.0,0.0,0.0,1.0,0.0,0.0,0.0,1.0
1463930399448093385,283,1463930399346222779,,0.625423192978,-10.4616594315,35.8947029114,0.00155399995856,1.0,0.0,0.0,0.0,1.0,0.0,0.0,0.0,1.0,-1.8292683363,-1.34146344662,-0.548780500889,1.0,0.0,0.0,0.0,1.0,0.0,0.0,0.0,1.0,0.636857641602,-0.833182177734,10.5153336914,1.0,0.0,0.0,0.0,1.0,0.0,0.0,0.0,1.0
1463930399449175777,284,1463930399367959353,,0.535057246685,-10.4505805969,35.8818702698,0.00156899995636,1.0,0.0,0.0,0.0,1.0,0.0,0.0,0.0,1.0,-1.58536589146,-0.243902444839,0.609756112099,1.0,0.0,0.0,0.0,1.0,0.0,0.0,0.0,1.0,1.06781401349,-1.33117612305,10.1226846191,1.0,0.0,0.0,0.0,1.0,0.0,0.0,0.0,1.0
1463930399450096502,285,1463930399388698223,,0.471795529127,-10.3912210464,35.8829956055,0.00191099999938,1.0,0.0,0.0,0.0,1.0,0.0,0.0,0.0,1.0,-1.46341466904,0.792682945728,0.609756112099,1.0,0.0,0.0,0.0,1.0,0.0,0.0,0.0,1.0,0.876277807617,-0.588973571866,9.52892319194,1.0,0.0,0.0,0.0,1.0,0.0,0.0,0.0,1.0
1463930399451538266,286,1463930399409244854,,0.419590175152,-10.2436971664,35.8889350891,0.00147300004028,1.0,0.0,0.0,0.0,1.0,0.0,0.0,0.0,1.0,1.03658533096,4.39024400711,1.09756100178,1.0,0.0,0.0,0.0,1.0,0.0,0.0,0.0,1.0,1.31202250977,-0.545877978516,10.8840407471,1.0,0.0,0.0,0.0,1.0,0.0,0.0,0.0,1.0
1463930399453208103,287,1463930399430112160,,0.435172826052,-10.1207618713,35.8615989685,0.00172800000291,1.0,0.0,0.0,0.0,1.0,0.0,0.0,0.0,1.0,-0.18292683363,1.46341466904,-1.09756100178,1.0,0.0,0.0,0.0,1.0,0.0,0.0,0.0,1.0,0.814028564453,-0.895431420898,10.0556469727,1.0,0.0,0.0,0.0,1.0,0.0,0.0,0.0,1.0
1463930399454182370,288,1463930399451688162,,0.389194637537,-10.0234527588,35.8322029114,0.00153300003149,1.0,0.0,0.0,0.0,1.0,0.0,0.0,0.0,1.0,-0.426829278469,3.23170733452,0.548780500889,1.0,0.0,0.0,0.0,1.0,0.0,0.0,0.0,1.0,1.01035310059,-0.627280834961,9.89284125977,1.0,0.0,0.0,0.0,1.0,0.0,0.0,0.0,1.0
1463930400747485695,289,1463930399473175153,,0.393795102835,-9.87182712555,35.8471336365,0.00147500005551,1.0,0.0,0.0,0.0,1.0,0.0,0.0,0.0,1.0,-0.853658556938,2.80487799644,1.58536589146,1.0,0.0,0.0,0.0,1.0,0.0,0.0,0.0,1.0,0.981622680664,-0.349553442383,10.8074262939,1.0,0.0,0.0,0.0,1.0,0.0,0.0,0.0,1.0
1463930400748984282,290,1463930399494790582,,0.347362488508,-9.69851112366,35.8330078125,0.00130500004161,1.0,0.0,0.0,0.0,1.0,0.0,0.0,0.0,1.0,-1.40243899822,1.15853655338,-0.731707334518,1.0,0.0,0.0,0.0,1.0,0.0,0.0,0.0,1.0,1.1540052002,-0.138863696289,10.3046439453,1.0,0.0,0.0,0.0,1.0,0.0,0.0,0.0,1.0
1463930400749297718,291,1463930399516124761,,0.304509401321,-9.59982013702,35.8035888672,0.0015490000369,1.0,0.0,0.0,0.0,1.0,0.0,0.0,0.0,1.0,-1.52439022064,4.75609779358,-0.426829278469,1.0,0.0,0.0,0.0,1.0,0.0,0.0,0.0,1.0,0.933738647461,-0.665588061523,9.56723041851,1.0,0.0,0.0,0.0,1.0,0.0,0.0,0.0,1.0
1463930400749580165,292,1463930399537156494,,0.3556009233,-9.56219768524,35.777217865,0.00171099998988,1.0,0.0,0.0,0.0,1.0,0.0,0.0,0.0,1.0,-0.609756112099,5.36585378647,0.0,1.0,0.0,0.0,0.0,1.0,0.0,0.0,0.0,1.0,0.828393774414,-1.35990654297,10.6254669678,1.0,0.0,0.0,0.0,1.0,0.0,0.0,0.0,1.0
1463930400749886674,293,1463930399557572136,,0.417249470949,-9.52026939392,35.7494850159,0.00145500001963,1.0,0.0,0.0,0.0,1.0,0.0,0.0,0.0,1.0,-0.12195122242,5.30487823486,-0.365853667259,1.0,0.0,0.0,0.0,1.0,0.0,0.0,0.0,1.0,0.612915625,-0.995987890625,9.82580361328,1.0,0.0,0.0,0.0,1.0,0.0,0.0,0.0,1.0
1463930400750169225,294,1463930399578886993,,0.471551775932,-9.44446849823,35.7285575867,0.00216799997725,1.0,0.0,0.0,0.0,1.0,0.0,0.0,0.0,1.0,-0.487804889679,4.39024400711,0.548780500889,1.0,0.0,0.0,0.0,1.0,0.0,0.0,0.0,1.0,0.837970581055,-0.895431420898,9.74918916016,1.0,0.0,0.0,0.0,1.0,0.0,0.0,0.0,1.0
1463930400750452609,295,1463930399599418728,,0.527439117432,-9.347032547,35.7125968933,0.00159100000747,1.0,0.0,0.0,0.0,1.0,0.0,0.0,0.0,1.0,0.365853667259,4.32926845551,0.0,1.0,0.0,0.0,0.0,1.0,0.0,0.0,0.0,1.0,0.574608398438,-0.670376464844,10.4913916748,1.0,0.0,0.0,0.0,1.0,0.0,0.0,0.0,1.0
1463930400750837451,296,1463930399620065046,,0.553838968277,-9.22694396973,35.7039222717,0.00159300002269,1.0,0.0,0.0,0.0,1.0,0.0,0.0,0.0,1.0,0.426829278469,3.10975623131,-0.0609756112099,1.0,0.0,0.0,0.0,1.0,0.0,0.0,0.0,1.0,0.785298144531,-0.469263525391,10.2376062988,1.0,0.0,0.0,0.0,1.0,0.0,0.0,0.0,1.0
1463930400751239324,297,1463930399641569798,,0.557575941086,-9.08530044556,35.6883468628,0.00150300003588,1.0,0.0,0.0,0.0,1.0,0.0,0.0,0.0,1.0,-0.548780500889,2.25609779358,0.18292683363,1.0,0.0,0.0,0.0,1.0,0.0,0.0,0.0,1.0,0.857124194336,-0.335188232422,10.2184526855,1.0,0.0,0.0,0.0,1.0,0.0,0.0,0.0,1.0
1463930400751535261,298,1463930399662716791,,0.549660861492,-8.95097351074,35.681804657,0.00143299996853,1.0,0.0,0.0,0.0,1.0,0.0,0.0,0.0,1.0,-0.12195122242,1.8902438879,0.18292683363,1.0,0.0,0.0,0.0,1.0,0.0,0.0,0.0,1.0,0.718260498047,-0.339976635742,10.2711251221,1.0,0.0,0.0,0.0,1.0,0.0,0.0,0.0,1.0
1463930400751857447,299,1463930399683359359,,0.522747218609,-8.83983039856,35.6765937805,0.00145900005009,1.0,0.0,0.0,0.0,1.0,0.0,0.0,0.0,1.0,-0.853658556938,-0.304878056049,0.0,1.0,0.0,0.0,0.0,1.0,0.0,0.0,0.0,1.0,0.76135612793,-0.493205541992,10.3477395752,1.0,0.0,0.0,0.0,1.0,0.0,0.0,0.0,1.0
1463930400752313174,300,1463930399704406612,,0.459732145071,-8.75937461853,35.6668205261,0.00156700005755,1.0,0.0,0.0,0.0,1.0,0.0,0.0,0.0,1.0,-1.09756100178,-1.15853655338,-0.304878056049,1.0,0.0,0.0,0.0,1.0,0.0,0.0,0.0,1.0,0.593762048251,-1.02950671387,9.89762966309,1.0,0.0,0.0,0.0,1.0,0.0,0.0,0.0,1.0
1463930400752971504,301,1463930399726410789,,0.359620779753,-8.71196174622,35.6713752747,0.00156000000425,1.0,0.0,0.0,0.0,1.0,0.0,0.0,0.0,1.0,-0.914634168148,-1.52439022064,0.426829278469,1.0,0.0,0.0,0.0,1.0,0.0,0.0,0.0,1.0,0.9193734375,-0.881066210937,10.180145459,1.0,0.0,0.0,0.0,1.0,0.0,0.0,0.0,1.0
1463930400753425669,302,1463930399747327887,,0.270060062408,-8.62459754944,35.6786689758,0.00148300000001,1.0,0.0,0.0,0.0,1.0,0.0,0.0,0.0,1.0,-0.426829278469,-0.731707334518,0.365853667259,1.0,0.0,0.0,0.0,1.0,0.0,0.0,0.0,1.0,1.08217922346,-0.632069238281,10.0317049561,1.0,0.0,0.0,0.0,1.0,0.0,0.0,0.0,1.0
1463930400753722907,303,1463930399768256235,,0.183469444513,-8.53607749939,35.6737480164,0.00218699988909,1.0,0.0,0.0,0.0,1.0,0.0,0.0,0.0,1.0,-0.792682945728,0.243902444839,-0.18292683363,1.0,0.0,0.0,0.0,1.0,0.0,0.0,0.0,1.0,1.02950671387,-0.718260498047,10.046070166,1.0,0.0,0.0,0.0,1.0,0.0,0.0,0.0,1.0
1463930400754088323,304,1463930399788843856,,0.133611634374,-8.47222137451,35.6651725769,0.00172800000291,1.0,0.0,0.0,0.0,1.0,0.0,0.0,0.0,1.0,-0.365853667259,1.95121955872,0.18292683363,1.0,0.0,0.0,0.0,1.0,0.0,0.0,0.0,1.0,1.04387185076,-0.92416184082,10.2280294922,1.0,0.0,0.0,0.0,1.0,0.0,0.0,0.0,1.0
1463930400754403790,305,1463930399810614908,,0.115466348827,-8.39855098724,35.6592750549,0.00140700000338,1.0,0.0,0.0,0.0,1.0,0.0,0.0,0.0,1.0,-0.365853667259,2.31707310677,0.18292683363,1.0,0.0,0.0,0.0,1.0,0.0,0.0,0.0,1.0,0.986411083984,-0.708683691406,10.1466266357,1.0,0.0,0.0,0.0,1.0,0.0,0.0,0.0,1.0
1463930400754747226,306,1463930399831927994,,0.0906163677573,-8.29747676849,35.6460647583,0.00135399994906,1.0,0.0,0.0,0.0,1.0,0.0,0.0,0.0,1.0,0.0,2.92682933807,-0.0609756112099,1.0,0.0,0.0,0.0,1.0,0.0,0.0,0.0,1.0,1.09175595703,-0.531512805087,10.2088758789,1.0,0.0,0.0,0.0,1.0,0.0,0.0,0.0,1.0
1463930400755104152,307,1463930399853695766,,0.0861545428634,-8.20462417603,35.6285858154,0.00172099994961,1.0,0.0,0.0,0.0,1.0,0.0,0.0,0.0,1.0,-0.243902444839,3.47560977936,0.0609756112099,1.0,0.0,0.0,0.0,1.0,0.0,0.0,0.0,1.0,0.986411083984,-0.684741674805,10.0077629395,1.0,0.0,0.0,0.0,1.0,0.0,0.0,0.0,1.0
1463930400755406390,308,1463930399874678957,,0.096884354949,-8.13301849365,35.6134643555,0.00137499999255,1.0,0.0,0.0,0.0,1.0,0.0,0.0,0.0,1.0,-0.243902444839,3.47560977936,-0.18292683363,1.0,0.0,0.0,0.0,1.0,0.0,0.0,0.0,1.0,0.933738647461,-0.670376464844,10.4099888184,1.0,0.0,0.0,0.0,1.0,0.0,0.0,0.0,1.0
1463930400755795034,309,1463930399896362875,,0.114694103599,-8.04119205475,35.602191925,0.00141899997834,1.0,0.0,0.0,0.0,1.0,0.0,0.0,0.0,1.0,-0.548780500889,3.29268312454,0.243902444839,1.0,0.0,0.0,0.0,1.0,0.0,0.0,0.0,1.0,0.952892260742,-0.550666381836,10.1562034424,1.0,0.0,0.0,0.0,1.0,0.0,0.0,0.0,1.0
1463930400756315136,310,1463930399918222157,,0.113771386445,-7.94867992401,35.5848808289,0.00278600002639,1.0,0.0,0.0,0.0,1.0,0.0,0.0,0.0,1.0,-0.426829278469,2.56097555161,-0.243902444839,1.0,0.0,0.0,0.0,1.0,0.0,0.0,0.0,1.0,0.861912597656,-0.60812722168,10.2567599121,1.0,0.0,0.0,0.0,1.0,0.0,0.0,0.0,1.0
1463930400756643103,311,1463930399938761965,,0.114847786725,-7.87830162048,35.5713043213,0.00137499999255,1.0,0.0,0.0,0.0,1.0,0.0,0.0,0.0,1.0,-0.487804889679,2.25609779358,0.12195122242,1.0,0.0,0.0,0.0,1.0,0.0,0.0,0.0,1.0,0.76614453125,-0.699106884766,10.2184526855,1.0,0.0,0.0,0.0,1.0,0.0,0.0,0.0,1.0
1463930400756956435,312,1463930399959888176,,0.105651132762,-7.81939458847,35.5618515015,0.00144699995872,1.0,0.0,0.0,0.0,1.0,0.0,0.0,0.0,1.0,-0.243902444839,1.70731711388,0.0609756112099,1.0,0.0,0.0,0.0,1.0,0.0,0.0,0.0,1.0,0.871489404297,-0.622492431641,10.1992990723,1.0,0.0,0.0,0.0,1.0,0.0,0.0,0.0,1.0
1463930400757229403,313,1463930399980513140,,0.089865475893,-7.7480802536,35.557094574,0.00148800003808,1.0,0.0,0.0,0.0,1.0,0.0,0.0,0.0,1.0,-0.243902444839,1.95121955872,0.365853667259,1.0,0.0,0.0,0.0,1.0,0.0,0.0,0.0,1.0,0.847547387695,-0.61770402832,10.1322614258,1.0,0.0,0.0,0.0,1.0,0.0,0.0,0.0,1.0
1463930400757619401,314,1463930400001756279,,0.068853020668,-7.66855573654,35.5495109558,0.00153999996837,1.0,0.0,0.0,0.0,1.0,0.0,0.0,0.0,1.0,-0.670731723309,1.2804877758,0.12195122242,1.0,0.0,0.0,0.0,1.0,0.0,0.0,0.0,1.0,0.881066210937,-0.641646044922,10.1274730225,1.0,0.0,0.0,0.0,1.0,0.0,0.0,0.0,1.0
1463930400758085233,315,1463930400023301291,,0.042748875916,-7.60600662231,35.5389633179,0.00150799995754,1.0,0.0,0.0,0.0,1.0,0.0,0.0,0.0,1.0,-0.365853667259,1.64634156227,0.0,1.0,0.0,0.0,0.0,1.0,0.0,0.0,0.0,1.0,0.885854614258,-0.785298144531,10.1178962158,1.0,0.0,0.0,0.0,1.0,0.0,0.0,0.0,1.0
1463930400758458408,316,1463930400044358649,,0.0183215551078,-7.54981231689,35.5311775208,0.0014159999555,1.0,0.0,0.0,0.0,1.0,0.0,0.0,0.0,1.0,-0.365853667259,1.46341466904,0.0609756112099,1.0,0.0,0.0,0.0,1.0,0.0,0.0,0.0,1.0,0.895431420898,-0.708683691406,10.1992990723,1.0,0.0,0.0,0.0,1.0,0.0,0.0,0.0,1.0
1463930400758809969,317,1463930400065718557,,-0.0140834236518,-7.48803567886,35.5252799988,0.00151099998038,1.0,0.0,0.0,0.0,1.0,0.0,0.0,0.0,1.0,-0.548780500889,1.70731711388,0.0609756112099,1.0,0.0,0.0,0.0,1.0,0.0,0.0,0.0,1.0,1.00077629395,-0.703895288086,10.1945106689,1.0,0.0,0.0,0.0,1.0,0.0,0.0,0.0,1.0
1463930400759166582,318,1463930400086220761,,-0.0358108989894,-7.42736387253,35.5184059143,0.00173500005621,1.0,0.0,0.0,0.0,1.0,0.0,0.0,0.0,1.0,-0.18292683363,2.01219511032,0.12195122242,1.0,0.0,0.0,0.0,1.0,0.0,0.0,0.0,1.0,0.885854614258,-0.723048901367,10.2950671387,1.0,0.0,0.0,0.0,1.0,0.0,0.0,0.0,1.0
1463930400759459081,319,1463930400107961814,,-0.056229326874,-7.36591672897,35.5041885376,0.00187899998855,1.0,0.0,0.0,0.0,1.0,0.0,0.0,0.0,1.0,-0.12195122242,2.37804889679,-0.18292683363,1.0,0.0,0.0,0.0,1.0,0.0,0.0,0.0,1.0,0.962469067383,-0.742202514648,10.1226846191,1.0,0.0,0.0,0.0,1.0,0.0,0.0,0.0,1.0
1463930400759763507,320,1463930400128755215,,-0.0585018619895,-7.30935764313,35.4921188354,0.001215999946,1.0,0.0,0.0,0.0,1.0,0.0,0.0,0.0,1.0,0.243902444839,3.29268312454,0.12195122242,1.0,0.0,0.0,0.0,1.0,0.0,0.0,0.0,1.0,0.890643017578,-0.833182177734,10.1178962158,1.0,0.0,0.0,0.0,1.0,0.0,0.0,0.0,1.0
1463930400760084807,321,1463930400150414653,,-0.0388048700988,-7.25275325775,35.4823493958,0.00137900002301,1.0,0.0,0.0,0.0,1.0,0.0,0.0,0.0,1.0,0.12195122242,3.59756112099,0.0,1.0,0.0,0.0,0.0,1.0,0.0,0.0,0.0,1.0,0.818816967773,-0.76614453125,10.2280294922,1.0,0.0,0.0,0.0,1.0,0.0,0.0,0.0,1.0
1463930400760427723,322,1463930400172080394,,-0.0136264413595,-7.1944642067,35.4676628113,0.0014609999489,1.0,0.0,0.0,0.0,1.0,0.0,0.0,0.0,1.0,0.243902444839,3.41463422775,-0.12195122242,1.0,0.0,0.0,0.0,1.0,0.0,0.0,0.0,1.0,0.76614453125,-0.76614453125,9.82101520996,1.0,0.0,0.0,0.0,1.0,0.0,0.0,0.0,1.0
1463930400760731940,323,1463930400192548223,,0.00982800219208,-7.13486814499,35.4514656067,0.00126199994702,1.0,0.0,0.0,0.0,1.0,0.0,0.0,0.0,1.0,0.670731723309,3.04878044128,-0.12195122242,1.0,0.0,0.0,0.0,1.0,0.0,0.0,0.0,1.0,0.660799658203,-0.785298144531,10.0317049561,1.0,0.0,0.0,0.0,1.0,0.0,0.0,0.0,1.0
1463930400761164751,324,1463930400214595733,,0.0356514565647,-7.06296205521,35.444316864,0.00318600004539,1.0,0.0,0.0,0.0,1.0,0.0,0.0,0.0,1.0,0.487804889679,1.46341466904,0.18292683363,1.0,0.0,0.0,0.0,1.0,0.0,0.0,0.0,1.0,0.507570751953,-0.646434448242,10.3190091553,1.0,0.0,0.0,0.0,1.0,0.0,0.0,0.0,1.0
1463930400761493551,325,1463930400236527567,,0.0138381766155,-6.97720575333,35.4419631958,0.00152900000103,1.0,0.0,0.0,0.0,1.0,0.0,0.0,0.0,1.0,0.304878056049,-0.975609779358,0.243902444839,1.0,0.0,0.0,0.0,1.0,0.0,0.0,0.0,1.0,0.675164868164,-0.363918652344,10.1226846191,1.0,0.0,0.0,0.0,1.0,0.0,0.0,0.0,1.0
1463930400761836466,326,1463930400256666855,,-0.0607502758503,-6.86506605148,35.4462509155,0.00163700000849,1.0,0.0,0.0,0.0,1.0,0.0,0.0,0.0,1.0,-0.12195122242,-2.5,0.609756112099,1.0,0.0,0.0,0.0,1.0,0.0,0.0,0.0,1.0,0.818816967773,-0.124498486328,10.299855542,1.0,0.0,0.0,0.0,1.0,0.0,0.0,0.0,1.0
1463930400762441464,327,1463930400277757078,,-0.176853939891,-6.75860357285,35.463394165,0.00133200001437,1.0,0.0,0.0,0.0,1.0,0.0,0.0,0.0,1.0,-1.15853655338,-3.71951246262,0.243902444839,1.0,0.0,0.0,0.0,1.0,0.0,0.0,0.0,1.0,0.981622680664,-0.110133276367,10.5488525146,1.0,0.0,0.0,0.0,1.0,0.0,0.0,0.0,1.0
1463930400762829587,328,1463930400299304173,,-0.340889722109,-6.67039823532,35.4691505432,0.00160399999004,1.0,0.0,0.0,0.0,1.0,0.0,0.0,0.0,1.0,-1.70731711388,-4.57317066193,-0.243902444839,1.0,0.0,0.0,0.0,1.0,0.0,0.0,0.0,1.0,1.19231249982,-0.330399829102,10.3333743652,1.0,0.0,0.0,0.0,1.0,0.0,0.0,0.0,1.0
1463930400763144586,329,1463930400319600909,,-0.502363860607,-6.6693239212,35.4719772339,0.00144699995872,1.0,0.0,0.0,0.0,1.0,0.0,0.0,0.0,1.0,-1.64634156227,-1.76829278469,0.426829278469,1.0,0.0,0.0,0.0,1.0,0.0,0.0,0.0,1.0,1.25456166992,-0.981622680664,9.88326445312,1.0,0.0,0.0,0.0,1.0,0.0,0.0,0.0,1.0
1463930400763435939,330,1463930400341529930,,-0.608649373055,-6.69184017181,35.4792404175,0.00126499996986,1.0,0.0,0.0,0.0,1.0,0.0,0.0,0.0,1.0,-0.914634168148,0.304878056049,0.487804889679,1.0,0.0,0.0,0.0,1.0,0.0,0.0,0.0,1.0,1.38863696289,-1.11090957031,10.2376062988,1.0,0.0,0.0,0.0,1.0,0.0,0.0,0.0,1.0
1463930400763718281,331,1463930400362782079,,-0.651584625244,-6.68965196609,35.4756622314,0.00195499998517,1.0,0.0,0.0,0.0,1.0,0.0,0.0,0.0,1.0,-0.548780500889,4.81707286835,0.243902444839,1.0,0.0,0.0,0.0,1.0,0.0,0.0,0.0,1.0,1.35990654297,-0.976834277344,9.92636008301,1.0,0.0,0.0,0.0,1.0,0.0,0.0,0.0,1.0
1463930400763983905,332,1463930400384457715,,-0.596783220768,-6.69350671768,35.4649391174,0.00148300000001,1.0,0.0,0.0,0.0,1.0,0.0,0.0,0.0,1.0,0.609756112099,7.37804937363,0.0609756112099,1.0,0.0,0.0,0.0,1.0,0.0,0.0,0.0,1.0,1.02471831055,-1.20188930646,9.8784760498,1.0,0.0,0.0,0.0,1.0,0.0,0.0,0.0,1.0
1463930400764347810,333,1463930400405297053,,-0.502514779568,-6.67267227173,35.4413032532,0.00164300005417,1.0,0.0,0.0,0.0,1.0,0.0,0.0,0.0,1.0,1.15853655338,7.07317113876,-0.243902444839,1.0,0.0,0.0,0.0,1.0,0.0,0.0,0.0,1.0,1.02950671387,-0.818816967773,10.2136642822,1.0,0.0,0.0,0.0,1.0,0.0,0.0,0.0,1.0
1463930400764622340,334,1463930400427310240,,-0.385607421398,-6.5982427597,35.4173469543,0.00139700004365,1.0,0.0,0.0,0.0,1.0,0.0,0.0,0.0,1.0,0.975609779358,8.10975551605,0.18292683363,1.0,0.0,0.0,0.0,1.0,0.0,0.0,0.0,1.0,0.905008227539,-0.46447512207,10.1035310059,1.0,0.0,0.0,0.0,1.0,0.0,0.0,0.0,1.0
1463930400764914891,335,1463930400448386088,,-0.263282299042,-6.48905992508,35.397354126,0.00166900001932,1.0,0.0,0.0,0.0,1.0,0.0,0.0,0.0,1.0,0.243902444839,6.95121955872,-0.304878056049,1.0,0.0,0.0,0.0,1.0,0.0,0.0,0.0,1.0,0.746990917969,-0.272938989258,10.3668931885,1.0,0.0,0.0,0.0,1.0,0.0,0.0,0.0,1.0
1463930400765279212,336,1463930400469660476,,-0.170653387904,-6.39529514313,35.3737449646,0.00274699996226,1.0,0.0,0.0,0.0,1.0,0.0,0.0,0.0,1.0,-0.426829278469,4.57317066193,-0.243902444839,1.0,0.0,0.0,0.0,1.0,0.0,0.0,0.0,1.0,0.641646044922,-0.225054956055,10.2807019287,1.0,0.0,0.0,0.0,1.0,0.0,0.0,0.0,1.0
1463930400765691971,337,1463930400490180857,,-0.132976219058,-6.30852413177,35.3649139404,0.00231799995527,1.0,0.0,0.0,0.0,1.0,0.0,0.0,0.0,1.0,-0.670731723309,2.07317066193,0.18292683363,1.0,0.0,0.0,0.0,1.0,0.0,0.0,0.0,1.0,0.699106884766,-0.296881024126,10.2807019287,1.0,0.0,0.0,0.0,1.0,0.0,0.0,0.0,1.0
1463930400766234104,338,1463930400512064618,,-0.153699502349,-6.24388122559,35.3600692749,0.00195199996233,1.0,0.0,0.0,0.0,1.0,0.0,0.0,0.0,1.0,-1.2195122242,0.18292683363,0.243902444839,1.0,0.0,0.0,0.0,1.0,0.0,0.0,0.0,1.0,0.785298144531,-0.526724328702,10.4578728516,1.0,0.0,0.0,0.0,1.0,0.0,0.0,0.0,1.0
1463930400766660196,339,1463930400535044415,,-0.191502422094,-6.21741819382,35.3530807495,0.00218899990432,1.0,0.0,0.0,0.0,1.0,0.0,0.0,0.0,1.0,-1.52439022064,-0.304878056049,-0.426829278469,1.0,0.0,0.0,0.0,1.0,0.0,0.0,0.0,1.0,0.746990917969,-0.900219824219,10.2471831055,1.0,0.0,0.0,0.0,1.0,0.0,0.0,0.0,1.0
1463930400767098579,340,1463930400556084950,,-0.241613745689,-6.24161911011,35.3460922241,0.00123599998187,1.0,0.0,0.0,0.0,1.0,0.0,0.0,0.0,1.0,-0.975609779358,-0.304878056049,0.0609756112099,1.0,0.0,0.0,0.0,1.0,0.0,0.0,0.0,1.0,0.857124194336,-1.17315874041,9.8305920166,1.0,0.0,0.0,0.0,1.0,0.0,0.0,0.0,1.0
1463930400767468578,341,1463930400577493036,,-0.279140681028,-6.24957036972,35.3453674316,0.00221799989231,1.0,0.0,0.0,0.0,1.0,0.0,0.0,0.0,1.0,-0.243902444839,1.03658533096,0.487804889679,1.0,0.0,0.0,0.0,1.0,0.0,0.0,0.0,1.0,0.957680664062,-0.943315454102,10.0748005859,1.0,0.0,0.0,0.0,1.0,0.0,0.0,0.0,1.0
1463930400767912691,342,1463930400599248047,,-0.304933637381,-6.24078083038,35.3459777832,0.00143399997614,1.0,0.0,0.0,0.0,1.0,0.0,0.0,0.0,1.0,0.0,1.03658533096,-0.0609756112099,1.0,0.0,0.0,0.0,1.0,0.0,0.0,0.0,1.0,0.833182177734,-0.948103857422,10.2423947021,1.0,0.0,0.0,0.0,1.0,0.0,0.0,0.0,1.0
1463930400770253983,343,1463930400620864413,,-0.330411285162,-6.22348880768,35.3363227844,0.00117800000589,1.0,0.0,0.0,0.0,1.0,0.0,0.0,0.0,1.0,0.548780500889,0.975609779358,0.12195122242,1.0,0.0,0.0,0.0,1.0,0.0,0.0,0.0,1.0,0.857124194336,-0.794874951172,9.88805285645,1.0,0.0,0.0,0.0,1.0,0.0,0.0,0.0,1.0
1463930400770704293,344,1463930400642314894,,-0.343488842249,-6.16263151169,35.3412437439,0.00240699993446,1.0,0.0,0.0,0.0,1.0,0.0,0.0,0.0,1.0,-0.12195122242,2.13414645195,1.09756100178,1.0,0.0,0.0,0.0,1.0,0.0,0.0,0.0,1.0,1.00077629395,-0.363918652344,10.7116582275,1.0,0.0,0.0,0.0,1.0,0.0,0.0,0.0,1.0
1463930400771079239,345,1463930400663718969,,-0.365939468145,-6.07087516785,35.3401412964,0.00131099997088,1.0,0.0,0.0,0.0,1.0,0.0,0.0,0.0,1.0,0.12195122242,0.365853667259,-0.548780500889,1.0,0.0,0.0,0.0,1.0,0.0,0.0,0.0,1.0,0.938527050781,-0.0718260498047,10.3573163818,1.0,0.0,0.0,0.0,1.0,0.0,0.0,0.0,1.0
1463930400771368665,346,1463930400684550807,,-0.422181963921,-5.98650360107,35.3270225525,0.0015269999858,1.0,0.0,0.0,0.0,1.0,0.0,0.0,0.0,1.0,-0.731707334518,0.731707334518,-0.0609756112099,1.0,0.0,0.0,0.0,1.0,0.0,0.0,0.0,1.0,1.14442839355,-0.15322890625,9.96466730957,1.0,0.0,0.0,0.0,1.0,0.0,0.0,0.0,1.0
1463930400771703247,347,1463930400705246865,,-0.46909442544,-5.94494438171,35.3253631592,0.00227400008589,1.0,0.0,0.0,0.0,1.0,0.0,0.0,0.0,1.0,-1.15853655338,0.487804889679,0.243902444839,1.0,0.0,0.0,0.0,1.0,0.0,0.0,0.0,1.0,0.976834277344,-0.713472094727,10.1945106689,1.0,0.0,0.0,0.0,1.0,0.0,0.0,0.0,1.0
1463930400772027673,348,1463930400726260421,,-0.528815805912,-5.92963790894,35.3248558044,0.00249399989843,1.0,0.0,0.0,0.0,1.0,0.0,0.0,0.0,1.0,-0.670731723309,0.426829278469,0.12195122242,1.0,0.0,0.0,0.0,1.0,0.0,0.0,0.0,1.0,1.03908344744,-0.665588061523,10.2136642822,1.0,0.0,0.0,0.0,1.0,0.0,0.0,0.0,1.0
1463930401428350492,349,1463930400747241008,,-0.583156049252,-5.91252231598,35.3182868958,0.00136800005566,1.0,0.0,0.0,0.0,1.0,0.0,0.0,0.0,1.0,-0.975609779358,2.19512200356,0.12195122242,1.0,0.0,0.0,0.0,1.0,0.0,0.0,0.0,1.0,1.24019645996,-0.636857641602,9.88805285645,1.0,0.0,0.0,0.0,1.0,0.0,0.0,0.0,1.0
1463930401429052051,350,1463930400767933888,,-0.58496004343,-5.91897010803,35.3105735779,0.00226900004782,1.0,0.0,0.0,0.0,1.0,0.0,0.0,0.0,1.0,-0.609756112099,4.81707286835,0.304878056049,1.0,0.0,0.0,0.0,1.0,0.0,0.0,0.0,1.0,1.08696755371,-1.10133276367,10.0843773926,1.0,0.0,0.0,0.0,1.0,0.0,0.0,0.0,1.0
1463930401429712361,351,1463930400790253637,,-0.532173275948,-5.92622995377,35.290145874,0.00124899996445,1.0,0.0,0.0,0.0,1.0,0.0,0.0,0.0,1.0,0.0609756112099,6.15853643417,-0.487804889679,1.0,0.0,0.0,0.0,1.0,0.0,0.0,0.0,1.0,1.02471831055,-0.952892260742,10.2040874756,1.0,0.0,0.0,0.0,1.0,0.0,0.0,0.0,1.0
1463930401430225171,352,1463930400812842238,,-0.442779749632,-5.91200733185,35.2644538879,0.00225099991076,1.0,0.0,0.0,0.0,1.0,0.0,0.0,0.0,1.0,0.365853667259,7.07317113876,-0.243902444839,1.0,0.0,0.0,0.0,1.0,0.0,0.0,0.0,1.0,0.818816967773,-0.895431420898,9.92157167969,1.0,0.0,0.0,0.0,1.0,0.0,0.0,0.0,1.0
1463930401430894127,353,1463930400833606212,,-0.328704863787,-5.88425254822,35.2499160767,0.00241900002584,1.0,0.0,0.0,0.0,1.0,0.0,0.0,0.0,1.0,0.365853667259,6.09756088257,0.365853667259,1.0,0.0,0.0,0.0,1.0,0.0,0.0,0.0,1.0,0.699106884766,-0.775721337891,10.3333743652,1.0,0.0,0.0,0.0,1.0,0.0,0.0,0.0,1.0
1463930401431673238,354,1463930400854861017,,-0.249615073204,-5.82800340652,35.2337226868,0.00133500003722,1.0,0.0,0.0,0.0,1.0,0.0,0.0,0.0,1.0,0.12195122242,3.59756112099,-0.12195122242,1.0,0.0,0.0,0.0,1.0,0.0,0.0,0.0,1.0,0.636857641602,-0.507570751953,10.0412817627,1.0,0.0,0.0,0.0,1.0,0.0,0.0,0.0,1.0
1463930401432006466,355,1463930400876281654,,-0.214308992028,-5.7442688942,35.2223014832,0.00219999998808,1.0,0.0,0.0,0.0,1.0,0.0,0.0,0.0,1.0,-0.12195122242,2.74390244484,0.487804889679,1.0,0.0,0.0,0.0,1.0,0.0,0.0,0.0,1.0,0.675164868164,-0.282515795898,10.2088758789,1.0,0.0,0.0,0.0,1.0,0.0,0.0,0.0,1.0
1463930401432312506,356,1463930400897510834,,-0.196874514222,-5.68527650833,35.2219390869,0.00132599996869,1.0,0.0,0.0,0.0,1.0,0.0,0.0,0.0,1.0,-0.487804889679,0.975609779358,0.18292683363,1.0,0.0,0.0,0.0,1.0,0.0,0.0,0.0,1.0,0.646434448242,-0.325611425781,10.3764699951,1.0,0.0,0.0,0.0,1.0,0.0,0.0,0.0,1.0
1463930401435271973,357,1463930400918899337,,-0.228057518601,-5.64173030853,35.2137031555,0.00274599995464,1.0,0.0,0.0,0.0,1.0,0.0,0.0,0.0,1.0,-1.15853655338,-0.487804889679,0.0609756112099,1.0,0.0,0.0,0.0,1.0,0.0,0.0,0.0,1.0,0.751779321289,-0.517147558594,10.060435376,1.0,0.0,0.0,0.0,1.0,0.0,0.0,0.0,1.0
1463930401436573790,358,1463930400940567213,,-0.280678033829,-5.6345076561,35.2154350281,0.00178799999412,1.0,0.0,0.0,0.0,1.0,0.0,0.0,0.0,1.0,-1.2195122242,-1.52439022064,0.18292683363,1.0,0.0,0.0,0.0,1.0,0.0,0.0,0.0,1.0,0.775721337891,-0.737414111328,10.2232410889,1.0,0.0,0.0,0.0,1.0,0.0,0.0,0.0,1.0
1463930401437820503,359,1463930400961777018,,-0.363942354918,-5.63420724869,35.2195129395,0.00220900005661,1.0,0.0,0.0,0.0,1.0,0.0,0.0,0.0,1.0,-0.975609779358,-1.8902438879,0.18292683363,1.0,0.0,0.0,0.0,1.0,0.0,0.0,0.0,1.0,0.9193734375,-0.794874951172,10.4722380615,1.0,0.0,0.0,0.0,1.0,0.0,0.0,0.0,1.0
1463930401438498469,360,1463930400984199110,,-0.465901523829,-5.64366006851,35.2186164856,0.00218999991193,1.0,0.0,0.0,0.0,1.0,0.0,0.0,0.0,1.0,-0.548780500889,-1.34146344662,-0.426829278469,1.0,0.0,0.0,0.0,1.0,0.0,0.0,0.0,1.0,1.08696755371,-0.857124194336,9.79707319336,1.0,0.0,0.0,0.0,1.0,0.0,0.0,0.0,1.0
1463930401439163883,361,1463930401005286624,,-0.539339542389,-5.64858293533,35.2224006653,0.0022450000979,1.0,0.0,0.0,0.0,1.0,0.0,0.0,0.0,1.0,0.243902444839,1.46341466904,0.731707334518,1.0,0.0,0.0,0.0,1.0,0.0,0.0,0.0,1.0,1.13963999023,-0.948103857422,10.1226846191,1.0,0.0,0.0,0.0,1.0,0.0,0.0,0.0,1.0
1463930401439534246,362,1463930401028174911,,-0.554990470409,-5.61936616898,35.2188453674,0.00253099994734,1.0,0.0,0.0,0.0,1.0,0.0,0.0,0.0,1.0,0.243902444839,2.68292689323,0.12195122242,1.0,0.0,0.0,0.0,1.0,0.0,0.0,0.0,1.0,1.03908344744,-0.574608398438,10.4291424316,1.0,0.0,0.0,0.0,1.0,0.0,0.0,0.0,1.0
1463930401440250753,363,1463930401050047318,,-0.546270608902,-5.5817937851,35.2088699341,0.00140599999577,1.0,0.0,0.0,0.0,1.0,0.0,0.0,0.0,1.0,0.0,3.17073178291,-0.12195122242,1.0,0.0,0.0,0.0,1.0,0.0,0.0,0.0,1.0,0.857124194336,-0.497993945312,10.0795889893,1.0,0.0,0.0,0.0,1.0,0.0,0.0,0.0,1.0
1463930401440641012,364,1463930401070999259,,-0.538434743881,-5.53208827972,35.1955413818,0.00226600002497,1.0,0.0,0.0,0.0,1.0,0.0,0.0,0.0,1.0,-0.12195122242,2.25609779358,0.0,1.0,0.0,0.0,0.0,1.0,0.0,0.0,0.0,1.0,0.962469067383,-0.531512805087,10.285490332,1.0,0.0,0.0,0.0,1.0,0.0,0.0,0.0,1.0
1463930401441375176,365,1463930401092809426,,-0.543684899807,-5.48081827164,35.1903800964,0.00222999998368,1.0,0.0,0.0,0.0,1.0,0.0,0.0,0.0,1.0,-0.426829278469,2.19512200356,0.12195122242,1.0,0.0,0.0,0.0,1.0,0.0,0.0,0.0,1.0,1.04387185076,-0.46447512207,10.2136642822,1.0,0.0,0.0,0.0,1.0,0.0,0.0,0.0,1.0
1463930401442117048,366,1463930401114122408,,-0.571617364883,-5.43111753464,35.1876983643,0.00216599996202,1.0,0.0,0.0,0.0,1.0,0.0,0.0,0.0,1.0,-0.731707334518,1.52439022064,-0.18292683363,1.0,0.0,0.0,0.0,1.0,0.0,0.0,0.0,1.0,1.04866025408,-0.392649072266,10.2711251221,1.0,0.0,0.0,0.0,1.0,0.0,0.0,0.0,1.0
1463930401442766836,367,1463930401134811070,,-0.588374137878,-5.40074157715,35.1815338135,0.00218899990432,1.0,0.0,0.0,0.0,1.0,0.0,0.0,0.0,1.0,-1.2195122242,2.68292689323,0.304878056049,1.0,0.0,0.0,0.0,1.0,0.0,0.0,0.0,1.0,1.07739082014,-0.588973571866,10.1322614258,1.0,0.0,0.0,0.0,1.0,0.0,0.0,0.0,1.0
1463930401443215845,368,1463930401156831184,,-0.585462331772,-5.38852977753,35.1707115173,0.00139400002081,1.0,0.0,0.0,0.0,1.0,0.0,0.0,0.0,1.0,-0.548780500889,3.53658556938,-0.304878056049,1.0,0.0,0.0,0.0,1.0,0.0,0.0,0.0,1.0,1.00556469727,-0.732625708008,10.1131078125,1.0,0.0,0.0,0.0,1.0,0.0,0.0,0.0,1.0
1463930401444236778,369,1463930401177935469,,-0.558280408382,-5.397772789,35.1588554382,0.00150500005111,1.0,0.0,0.0,0.0,1.0,0.0,0.0,0.0,1.0,-0.365853667259,3.35365867615,-0.12195122242,1.0,0.0,0.0,0.0,1.0,0.0,0.0,0.0,1.0,0.9193734375,-1.01035310059,10.1514150391,1.0,0.0,0.0,0.0,1.0,0.0,0.0,0.0,1.0
1463930401444667974,370,1463930401198629599,,-0.523109674454,-5.41626930237,35.1482009888,0.00130300002638,1.0,0.0,0.0,0.0,1.0,0.0,0.0,0.0,1.0,-0.18292683363,3.71951246262,0.12195122242,1.0,0.0,0.0,0.0,1.0,0.0,0.0,0.0,1.0,0.885854614258,-0.885854614258,9.99818613281,1.0,0.0,0.0,0.0,1.0,0.0,0.0,0.0,1.0
1463930401445146462,371,1463930401219376281,,-0.485651701689,-5.40688228607,35.1409988403,0.00141499994788,1.0,0.0,0.0,0.0,1.0,0.0,0.0,0.0,1.0,0.0609756112099,4.14634132385,0.304878056049,1.0,0.0,0.0,0.0,1.0,0.0,0.0,0.0,1.0,0.876277807617,-0.861912597656,9.97424411621,1.0,0.0,0.0,0.0,1.0,0.0,0.0,0.0,1.0
1463930401445974375,372,1463930401239925412,,-0.438166767359,-5.37437963486,35.1321907043,0.00138999999035,1.0,0.0,0.0,0.0,1.0,0.0,0.0,0.0,1.0,0.243902444839,4.63414621353,0.426829278469,1.0,0.0,0.0,0.0,1.0,0.0,0.0,0.0,1.0,0.876277807617,-0.636857641602,10.2328178955,1.0,0.0,0.0,0.0,1.0,0.0,0.0,0.0,1.0
1463930401446933537,373,1463930401261576674,,-0.382314890623,-5.32879972458,35.1198196411,0.00143199996091,1.0,0.0,0.0,0.0,1.0,0.0,0.0,0.0,1.0,-0.304878056049,4.32926845551,-0.0609756112099,1.0,0.0,0.0,0.0,1.0,0.0,0.0,0.0,1.0,0.852335791016,-0.497993945312,10.1609918457,1.0,0.0,0.0,0.0,1.0,0.0,0.0,0.0,1.0
1463930401447567076,374,1463930401283074498,,-0.340539872646,-5.28356790543,35.1085968018,0.00133600004483,1.0,0.0,0.0,0.0,1.0,0.0,0.0,0.0,1.0,-0.487804889679,2.74390244484,-0.12195122242,1.0,0.0,0.0,0.0,1.0,0.0,0.0,0.0,1.0,0.689530078125,-0.488417138672,10.2280294922,1.0,0.0,0.0,0.0,1.0,0.0,0.0,0.0,1.0
1463930401448730248,375,1463930401304265866,,-0.33343860507,-5.24135065079,35.1008300781,0.00127999996766,1.0,0.0,0.0,0.0,1.0,0.0,0.0,0.0,1.0,-0.426829278469,0.365853667259,0.0,1.0,0.0,0.0,0.0,1.0,0.0,0.0,0.0,1.0,0.708683691406,-0.497993945312,10.1131078125,1.0,0.0,0.0,0.0,1.0,0.0,0.0,0.0,1.0
1463930401449039726,376,1463930401326184783,,-0.376878142357,-5.21162891388,35.104057312,0.0014309999533,1.0,0.0,0.0,0.0,1.0,0.0,0.0,0.0,1.0,-0.914634168148,-0.853658556938,0.426829278469,1.0,0.0,0.0,0.0,1.0,0.0,0.0,0.0,1.0,0.804451757813,-0.469263525391,10.2423947021,1.0,0.0,0.0,0.0,1.0,0.0,0.0,0.0,1.0
1463930401449514985,377,1463930401347027298,,-0.445282965899,-5.19622659683,35.1067962646,0.00136999995448,1.0,0.0,0.0,0.0,1.0,0.0,0.0,0.0,1.0,-1.2804877758,-0.975609779358,0.12195122242,1.0,0.0,0.0,0.0,1.0,0.0,0.0,0.0,1.0,1.00077629395,-0.569819995117,10.2184526855,1.0,0.0,0.0,0.0,1.0,0.0,0.0,0.0,1.0
1463930401450089566,378,1463930401367248722,,-0.512035131454,-5.19020080566,35.1028213501,0.00138799997512,1.0,0.0,0.0,0.0,1.0,0.0,0.0,0.0,1.0,-1.09756100178,0.548780500889,-0.12195122242,1.0,0.0,0.0,0.0,1.0,0.0,0.0,0.0,1.0,1.07260241682,-0.780509741211,9.95030209961,1.0,0.0,0.0,0.0,1.0,0.0,0.0,0.0,1.0
1463930401450456283,379,1463930401389192534,,-0.546953618526,-5.19617271423,35.0961074829,0.00168600003235,1.0,0.0,0.0,0.0,1.0,0.0,0.0,0.0,1.0,-0.487804889679,2.07317066193,-0.243902444839,1.0,0.0,0.0,0.0,1.0,0.0,0.0,0.0,1.0,1.00556469727,-0.9193734375,10.3333743652,1.0,0.0,0.0,0.0,1.0,0.0,0.0,0.0,1.0
1463930401451117999,380,1463930401410628745,,-0.547797858715,-5.21889162064,35.0892448425,0.00134299998172,1.0,0.0,0.0,0.0,1.0,0.0,0.0,0.0,1.0,-0.365853667259,2.5,0.18292683363,1.0,0.0,0.0,0.0,1.0,0.0,0.0,0.0,1.0,0.976834277344,-0.991199487305,10.0077629395,1.0,0.0,0.0,0.0,1.0,0.0,0.0,0.0,1.0
1463930403291063309,381,1463930401431857300,,-0.542838394642,-5.2258348465,35.0835647583,0.00142500002403,1.0,0.0,0.0,0.0,1.0,0.0,0.0,0.0,1.0,-0.12195122242,3.23170733452,0.365853667259,1.0,0.0,0.0,0.0,1.0,0.0,0.0,0.0,1.0,0.962469067383,-0.809240161133,10.1322614258,1.0,0.0,0.0,0.0,1.0,0.0,0.0,0.0,1.0
1463930403291190028,382,1463930401453313458,,-0.519164562225,-5.19737625122,35.0786437988,0.00142800004687,1.0,0.0,0.0,0.0,1.0,0.0,0.0,0.0,1.0,0.18292683363,3.59756112099,0.243902444839,1.0,0.0,0.0,0.0,1.0,0.0,0.0,0.0,1.0,0.928950244141,-0.517147558594,10.1992990723,1.0,0.0,0.0,0.0,1.0,0.0,0.0,0.0,1.0
1463930403291241954,383,1463930401474608523,,-0.496238976717,-5.14948797226,35.0688018799,0.00129399995785,1.0,0.0,0.0,0.0,1.0,0.0,0.0,0.0,1.0,0.0,4.14634132385,-0.0609756112099,1.0,0.0,0.0,0.0,1.0,0.0,0.0,0.0,1.0,1.01035310059,-0.383072265625,10.2471831055,1.0,0.0,0.0,0.0,1.0,0.0,0.0,0.0,1.0
1463930403291286225,384,1463930401495366299,,-0.452089995146,-5.11039447784,35.0554084778,0.00160700001288,1.0,0.0,0.0,0.0,1.0,0.0,0.0,0.0,1.0,-0.487804889679,4.08536577225,0.12195122242,1.0,0.0,0.0,0.0,1.0,0.0,0.0,0.0,1.0,0.852335791016,-0.440533105469,10.2807019287,1.0,0.0,0.0,0.0,1.0,0.0,0.0,0.0,1.0
1463930403291319558,385,1463930401518250003,,-0.415017008781,-5.07939195633,35.0441398621,0.00264100008644,1.0,0.0,0.0,0.0,1.0,0.0,0.0,0.0,1.0,-0.487804889679,2.80487799644,0.12195122242,1.0,0.0,0.0,0.0,1.0,0.0,0.0,0.0,1.0,0.828393774414,-0.612915625,10.3237975586,1.0,0.0,0.0,0.0,1.0,0.0,0.0,0.0,1.0
1463930403291355496,386,1463930401538806113,,-0.401874661446,-5.05799055099,35.0399398804,0.00190499995369,1.0,0.0,0.0,0.0,1.0,0.0,0.0,0.0,1.0,-0.487804889679,1.8902438879,-0.0609756112099,1.0,0.0,0.0,0.0,1.0,0.0,0.0,0.0,1.0,0.799663354492,-0.574608398438,10.1992990723,1.0,0.0,0.0,0.0,1.0,0.0,0.0,0.0,1.0
1463930403291388412,387,1463930401559969565,,-0.416278600693,-5.04906272888,35.0368270874,0.0014009999577,1.0,0.0,0.0,0.0,1.0,0.0,0.0,0.0,1.0,-0.609756112099,1.03658533096,0.0609756112099,1.0,0.0,0.0,0.0,1.0,0.0,0.0,0.0,1.0,0.852335791016,-0.718260498047,10.1897222656,1.0,0.0,0.0,0.0,1.0,0.0,0.0,0.0,1.0
1463930403291425756,388,1463930401580946558,,-0.434848487377,-5.04838609695,35.0328102112,0.00132799998391,1.0,0.0,0.0,0.0,1.0,0.0,0.0,0.0,1.0,-0.670731723309,1.64634156227,0.0609756112099,1.0,0.0,0.0,0.0,1.0,0.0,0.0,0.0,1.0,0.9193734375,-0.732625708008,10.1274730225,1.0,0.0,0.0,0.0,1.0,0.0,0.0,0.0,1.0
1463930403291460964,389,1463930401603293390,,-0.435740917921,-5.05619621277,35.0243759155,0.0014609999489,1.0,0.0,0.0,0.0,1.0,0.0,0.0,0.0,1.0,-0.487804889679,1.8902438879,-0.12195122242,1.0,0.0,0.0,0.0,1.0,0.0,0.0,0.0,1.0,0.885854614258,-0.742202514648,10.0317049561,1.0,0.0,0.0,0.0,1.0,0.0,0.0,0.0,1.0
1463930403291502474,390,1463930401623312158,,-0.420528918505,-5.05345344543,35.0178489685,0.00134399998933,1.0,0.0,0.0,0.0,1.0,0.0,0.0,0.0,1.0,-0.12195122242,3.10975623131,-0.0609756112099,1.0,0.0,0.0,0.0,1.0,0.0,0.0,0.0,1.0,0.842758984375,-0.828393774414,10.180145459,1.0,0.0,0.0,0.0,1.0,0.0,0.0,0.0,1.0
1463930403291537266,391,1463930401644351860,,-0.394773125648,-5.05132913589,35.0139923096,0.0021579999011,1.0,0.0,0.0,0.0,1.0,0.0,0.0,0.0,1.0,0.18292683363,2.31707310677,0.304878056049,1.0,0.0,0.0,0.0,1.0,0.0,0.0,0.0,1.0,0.751779321289,-0.76614453125,10.165780249,1.0,0.0,0.0,0.0,1.0,0.0,0.0,0.0,1.0
1463930403291605599,392,1463930401666314266,,-0.39057597518,-5.03133583069,35.0100288391,0.00137700000778,1.0,0.0,0.0,0.0,1.0,0.0,0.0,0.0,1.0,-0.12195122242,1.34146344662,0.0609756112099,1.0,0.0,0.0,0.0,1.0,0.0,0.0,0.0,1.0,0.775721337891,-0.517147558594,10.1705686523,1.0,0.0,0.0,0.0,1.0,0.0,0.0,0.0,1.0
1463930403291655494,393,1463930401687330635,,-0.410133838654,-4.99558925629,35.0094490051,0.00156999996398,1.0,0.0,0.0,0.0,1.0,0.0,0.0,0.0,1.0,0.0,-0.0609756112099,-0.12195122242,1.0,0.0,0.0,0.0,1.0,0.0,0.0,0.0,1.0,0.76614453125,-0.387860668945,10.1274730225,1.0,0.0,0.0,0.0,1.0,0.0,0.0,0.0,1.0
1463930403291693515,394,1463930401709258458,,-0.46223294735,-4.95915555954,35.0091896057,0.00179600005504,1.0,0.0,0.0,0.0,1.0,0.0,0.0,0.0,1.0,-0.731707334518,-1.09756100178,0.426829278469,1.0,0.0,0.0,0.0,1.0,0.0,0.0,0.0,1.0,0.861912597656,-0.493205541992,10.2471831055,1.0,0.0,0.0,0.0,1.0,0.0,0.0,0.0,1.0
1463930403294633034,395,1463930401729730766,,-0.528755366802,-4.93579435349,35.0137252808,0.0015340000391,1.0,0.0,0.0,0.0,1.0,0.0,0.0,0.0,1.0,-0.792682945728,-0.914634168148,0.12195122242,1.0,0.0,0.0,0.0,1.0,0.0,0.0,0.0,1.0,0.952892260742,-0.560243188477,10.180145459,1.0,0.0,0.0,0.0,1.0,0.0,0.0,0.0,1.0
1463930403294691106,396,1463930401751303434,,-0.610561549664,-4.92665100098,35.018573761,0.00140599999577,1.0,0.0,0.0,0.0,1.0,0.0,0.0,0.0,1.0,-0.914634168148,-1.03658533096,0.18292683363,1.0,0.0,0.0,0.0,1.0,0.0,0.0,0.0,1.0,1.20188930646,-0.579396801758,10.1322614258,1.0,0.0,0.0,0.0,1.0,0.0,0.0,0.0,1.0
1463930403294741314,397,1463930401771914544,,-0.680957496166,-4.92870426178,35.019821167,0.00147300004028,1.0,0.0,0.0,0.0,1.0,0.0,0.0,0.0,1.0,-1.03658533096,0.243902444839,0.0609756112099,1.0,0.0,0.0,0.0,1.0,0.0,0.0,0.0,1.0,1.02950671387,-0.727837304687,10.2711251221,1.0,0.0,0.0,0.0,1.0,0.0,0.0,0.0,1.0
1463930403294780168,398,1463930401793125234,,-0.738601267338,-4.94842481613,35.0176544189,0.00141799997073,1.0,0.0,0.0,0.0,1.0,0.0,0.0,0.0,1.0,-0.853658556938,1.52439022064,0.0,1.0,0.0,0.0,0.0,1.0,0.0,0.0,0.0,1.0,1.26892687988,-0.876277807617,10.1178962158,1.0,0.0,0.0,0.0,1.0,0.0,0.0,0.0,1.0
1463930403295447353,399,1463930401814902537,,-0.76238656044,-4.95798397064,35.0076637268,0.00152199994773,1.0,0.0,0.0,0.0,1.0,0.0,0.0,0.0,1.0,-0.426829278469,4.08536577225,0.304878056049,1.0,0.0,0.0,0.0,1.0,0.0,0.0,0.0,1.0,1.26413847656,-0.76614453125,10.0843773926,1.0,0.0,0.0,0.0,1.0,0.0,0.0,0.0,1.0
1463930403297930207,400,1463930401837292285,,-0.724585950375,-4.95210647583,34.9960250854,0.00163399998564,1.0,0.0,0.0,0.0,1.0,0.0,0.0,0.0,1.0,0.0,5.85365867615,0.0609756112099,1.0,0.0,0.0,0.0,1.0,0.0,0.0,0.0,1.0,1.07260241682,-0.665588061523,10.2088758789,1.0,0.0,0.0,0.0,1.0,0.0,0.0,0.0,1.0
1463930403297989113,401,1463930401858205581,,-0.648514151573,-4.93886184692,34.9802780151,0.00136100000236,1.0,0.0,0.0,0.0,1.0,0.0,0.0,0.0,1.0,0.0,6.58536624908,0.0,1.0,0.0,0.0,0.0,1.0,0.0,0.0,0.0,1.0,0.9193734375,-0.732625708008,10.2519715088,1.0,0.0,0.0,0.0,1.0,0.0,0.0,0.0,1.0
1463930403298366924,402,1463930401877825081,,-0.551608324051,-4.91682291031,34.9644927979,0.0017190000508,1.0,0.0,0.0,0.0,1.0,0.0,0.0,0.0,1.0,0.304878056049,6.58536624908,0.0,1.0,0.0,0.0,0.0,1.0,0.0,0.0,0.0,1.0,0.76135612793,-0.555454785156,10.1992990723,1.0,0.0,0.0,0.0,1.0,0.0,0.0,0.0,1.0
1463930403298576975,403,1463930401898812074,,-0.460418403149,-4.88781118393,34.948802948,0.00193100003526,1.0,0.0,0.0,0.0,1.0,0.0,0.0,0.0,1.0,0.0609756112099,4.87804889679,-0.0609756112099,1.0,0.0,0.0,0.0,1.0,0.0,0.0,0.0,1.0,0.756567724609,-0.507570751953,10.1897222656,1.0,0.0,0.0,0.0,1.0,0.0,0.0,0.0,1.0
1463930403298942286,404,1463930401920296566,,-0.392614096403,-4.85263156891,34.9377746582,0.00142600003164,1.0,0.0,0.0,0.0,1.0,0.0,0.0,0.0,1.0,-0.365853667259,3.71951246262,0.18292683363,1.0,0.0,0.0,0.0,1.0,0.0,0.0,0.0,1.0,0.675164868164,-0.507570751953,10.2759135254,1.0,0.0,0.0,0.0,1.0,0.0,0.0,0.0,1.0
1463930403298994994,405,1463930401942547929,,-0.355767309666,-4.83095979691,34.9283790588,0.00141699996311,1.0,0.0,0.0,0.0,1.0,0.0,0.0,0.0,1.0,-0.670731723309,2.37804889679,0.0609756112099,1.0,0.0,0.0,0.0,1.0,0.0,0.0,0.0,1.0,0.713472094727,-0.584185168546,10.1083194092,1.0,0.0,0.0,0.0,1.0,0.0,0.0,0.0,1.0
1463930403299340409,406,1463930401962864092,,-0.340150743723,-4.82428789139,34.9250984192,0.00151700002607,1.0,0.0,0.0,0.0,1.0,0.0,0.0,0.0,1.0,-0.731707334518,1.64634156227,0.304878056049,1.0,0.0,0.0,0.0,1.0,0.0,0.0,0.0,1.0,0.737414111328,-0.636857641602,9.92636008301,1.0,0.0,0.0,0.0,1.0,0.0,0.0,0.0,1.0
1463930403299386242,407,1463930401984887123,,-0.346849888563,-4.82252979279,34.921497345,0.00143900001422,1.0,0.0,0.0,0.0,1.0,0.0,0.0,0.0,1.0,-0.609756112099,0.426829278469,0.0609756112099,1.0,0.0,0.0,0.0,1.0,0.0,0.0,0.0,1.0,0.818816967773,-0.646434448242,10.0412817627,1.0,0.0,0.0,0.0,1.0,0.0,0.0,0.0,1.0
1463930403299677908,408,1463930402005842033,,-0.370745897293,-4.82712888718,34.9209861755,0.0014969999902,1.0,0.0,0.0,0.0,1.0,0.0,0.0,0.0,1.0,-0.365853667259,0.12195122242,0.304878056049,1.0,0.0,0.0,0.0,1.0,0.0,0.0,0.0,1.0,0.703895288086,-0.751779321289,10.1705686523,1.0,0.0,0.0,0.0,1.0,0.0,0.0,0.0,1.0
1463930403299940303,409,1463930402027389702,,-0.414411365986,-4.8402261734,34.9215011597,0.00131399999373,1.0,0.0,0.0,0.0,1.0,0.0,0.0,0.0,1.0,-0.304878056049,-0.731707334518,0.0609756112099,1.0,0.0,0.0,0.0,1.0,0.0,0.0,0.0,1.0,0.861912597656,-0.857124194336,9.99818613281,1.0,0.0,0.0,0.0,1.0,0.0,0.0,0.0,1.0
1463930403300214468,410,1463930402049220129,,-0.471895307302,-4.83701610565,34.9248352051,0.00156200001948,1.0,0.0,0.0,0.0,1.0,0.0,0.0,0.0,1.0,0.18292683363,-0.12195122242,0.18292683363,1.0,0.0,0.0,0.0,1.0,0.0,0.0,0.0,1.0,0.861912597656,-0.603338854892,9.96945571289,1.0,0.0,0.0,0.0,1.0,0.0,0.0,0.0,1.0
1463930403300486654,411,1463930402069882957,,-0.521179199219,-4.81653356552,34.9278297424,0.00173999997787,1.0,0.0,0.0,0.0,1.0,0.0,0.0,0.0,1.0,0.0,0.365853667259,0.12195122242,1.0,0.0,0.0,0.0,1.0,0.0,0.0,0.0,1.0,0.962469067383,-0.541089611728,10.285490332,1.0,0.0,0.0,0.0,1.0,0.0,0.0,0.0,1.0
1463930403300744049,412,1463930402090924951,,-0.565045118332,-4.79458713531,34.9260826111,0.00132399995346,1.0,0.0,0.0,0.0,1.0,0.0,0.0,0.0,1.0,-0.0609756112099,0.426829278469,0.0609756112099,1.0,0.0,0.0,0.0,1.0,0.0,0.0,0.0,1.0,0.967257470703,-0.627280834961,10.2471831055,1.0,0.0,0.0,0.0,1.0,0.0,0.0,0.0,1.0
1463930403301005923,413,1463930402112414911,,-0.60500228405,-4.78453302383,34.9252624512,0.00144499994349,1.0,0.0,0.0,0.0,1.0,0.0,0.0,0.0,1.0,-0.304878056049,0.548780500889,0.0,1.0,0.0,0.0,0.0,1.0,0.0,0.0,0.0,1.0,0.991199487305,-0.622492431641,10.1562034424,1.0,0.0,0.0,0.0,1.0,0.0,0.0,0.0,1.0
1463930403301258422,414,1463930402133097635,,-0.641095459461,-4.77041769028,34.9263343811,0.00157299998682,1.0,0.0,0.0,0.0,1.0,0.0,0.0,0.0,1.0,-0.18292683363,0.609756112099,0.365853667259,1.0,0.0,0.0,0.0,1.0,0.0,0.0,0.0,1.0,1.10133276367,-0.550666381836,10.2471831055,1.0,0.0,0.0,0.0,1.0,0.0,0.0,0.0,1.0
1463930403301508265,415,1463930402154244732,,-0.681569039822,-4.7564163208,34.9240036011,0.0013490000274,1.0,0.0,0.0,0.0,1.0,0.0,0.0,0.0,1.0,-0.670731723309,1.2804877758,0.0,1.0,0.0,0.0,0.0,1.0,0.0,0.0,0.0,1.0,1.13485158691,-0.440533105469,10.1992990723,1.0,0.0,0.0,0.0,1.0,0.0,0.0,0.0,1.0
1463930403306078349,416,1463930402174767405,,-0.707831025124,-4.74930858612,34.9202346802,0.00155000004452,1.0,0.0,0.0,0.0,1.0,0.0,0.0,0.0,1.0,-0.670731723309,2.31707310677,0.243902444839,1.0,0.0,0.0,0.0,1.0,0.0,0.0,0.0,1.0,1.08696755371,-0.550666381836,10.0269165527,1.0,0.0,0.0,0.0,1.0,0.0,0.0,0.0,1.0
1463930403307189438,417,1463930402202755827,,-0.71528762579,-4.7479891777,34.9125366211,0.0018459999701,1.0,0.0,0.0,0.0,1.0,0.0,0.0,0.0,1.0,1.76829278469,5.42682933807,0.0609756112099,1.0,0.0,0.0,0.0,1.0,0.0,0.0,0.0,1.0,1.96803376465,-0.981622680664,9.33738589009,1.0,0.0,0.0,0.0,1.0,0.0,0.0,0.0,1.0
1463930403307459437,418,1463930402216072749,,-0.608314156532,-4.69489765167,34.9029693604,0.00151299999561,1.0,0.0,0.0,0.0,1.0,0.0,0.0,0.0,1.0,-2.13414645195,5.48780488968,0.18292683363,1.0,0.0,0.0,0.0,1.0,0.0,0.0,0.0,1.0,-1.05823706072,-1.4604630127,10.2950671387,1.0,0.0,0.0,0.0,1.0,0.0,0.0,0.0,1.0
1463930403307730790,419,1463930402238548434,,-1.02172553539,-4.06413555145,34.8495254517,0.00188500003424,1.0,0.0,0.0,0.0,1.0,0.0,0.0,0.0,1.0,22.9878044128,1.70731711388,-8.59756088257,1.0,0.0,0.0,0.0,1.0,0.0,0.0,0.0,1.0,4.24252563406,4.15633378977,6.89530078125,1.0,0.0,0.0,0.0,1.0,0.0,0.0,0.0,1.0
1463930403308002351,420,1463930402259573136,,-0.694961667061,-3.21217083931,34.5230102539,0.0023270000238,1.0,0.0,0.0,0.0,1.0,0.0,0.0,0.0,1.0,12.3170728683,15.975610733,-9.14634132385,1.0,0.0,0.0,0.0,1.0,0.0,0.0,0.0,1.0,-0.780509741211,0.196324536133,11.5879360352,1.0,0.0,0.0,0.0,1.0,0.0,0.0,0.0,1.0
1463930403308268288,421,1463930402280099038,,-0.392561256886,-3.1035387516,34.465877533,0.00143299996853,1.0,0.0,0.0,0.0,1.0,0.0,0.0,0.0,1.0,5.48780488968,7.43902492523,-1.46341466904,1.0,0.0,0.0,0.0,1.0,0.0,0.0,0.0,1.0,0.0143652099609,0.0191536132812,11.5927244385,1.0,0.0,0.0,0.0,1.0,0.0,0.0,0.0,1.0
1463930403308529849,422,1463930402300957282,,-0.275889635086,-2.91215443611,34.4623603821,0.0014600000577,1.0,0.0,0.0,0.0,1.0,0.0,0.0,0.0,1.0,-4.02439022064,7.07317113876,1.34146344662,1.0,0.0,0.0,0.0,1.0,0.0,0.0,0.0,1.0,1.01035310059,1.38863696289,10.0891657959,1.0,0.0,0.0,0.0,1.0,0.0,0.0,0.0,1.0
1463930403308783286,423,1463930402322001463,,-0.218511670828,-2.89364886284,34.4928245544,0.00153500004672,1.0,0.0,0.0,0.0,1.0,0.0,0.0,0.0,1.0,-2.07317066193,10.7317075729,-0.670731723309,1.0,0.0,0.0,0.0,1.0,0.0,0.0,0.0,1.0,1.87705410156,1.8626888916,11.0420580566,1.0,0.0,0.0,0.0,1.0,0.0,0.0,0.0,1.0
1463930403309196409,424,1463930402343403663,,0.00113647943363,-2.82313728333,34.464389801,0.00148300000001,1.0,0.0,0.0,0.0,1.0,0.0,0.0,0.0,1.0,-4.08536577225,3.29268312454,-1.52439022064,1.0,0.0,0.0,0.0,1.0,0.0,0.0,0.0,1.0,0.263362164351,-0.143652099609,10.3573163818,1.0,0.0,0.0,0.0,1.0,0.0,0.0,0.0,1.0
1463930403309388908,425,1463930402364268105,,0.0725475698709,-2.87062883377,34.4829101562,0.00143599999137,1.0,0.0,0.0,0.0,1.0,0.0,0.0,0.0,1.0,-12.0121955872,5.60975599289,3.84146332741,1.0,0.0,0.0,0.0,1.0,0.0,0.0,0.0,1.0,0.229843359375,-0.258573779297,9.97424411621,1.0,0.0,0.0,0.0,1.0,0.0,0.0,0.0,1.0
1463930403324606291,426,1463930402385704940,,0.246335700154,-3.05253148079,34.6024703979,0.00164000003133,1.0,0.0,0.0,0.0,1.0,0.0,0.0,0.0,1.0,-4.2682929039,1.09756100178,5.97560977936,1.0,0.0,0.0,0.0,1.0,0.0,0.0,0.0,1.0,-0.354341845703,-0.699106884766,9.54807680523,1.0,0.0,0.0,0.0,1.0,0.0,0.0,0.0,1.0
1463930403324957904,427,1463930402406315113,,0.296651124954,-3.14794206619,34.6721954346,0.00159100000747,1.0,0.0,0.0,0.0,1.0,0.0,0.0,0.0,1.0,-0.487804889679,-10.4878053665,0.670731723309,1.0,0.0,0.0,0.0,1.0,0.0,0.0,0.0,1.0,-0.833182177734,-1.34554133301,9.86411083984,1.0,0.0,0.0,0.0,1.0,0.0,0.0,0.0,1.0
1463930403325226392,428,1463930402428636528,,0.0634106919169,-3.24890518188,34.6690444946,0.00229299999774,1.0,0.0,0.0,0.0,1.0,0.0,0.0,0.0,1.0,-1.64634156227,-19.5121955872,-0.304878056049,1.0,0.0,0.0,0.0,1.0,0.0,0.0,0.0,1.0,-0.641646044922,-1.35990654297,10.2184526855,1.0,0.0,0.0,0.0,1.0,0.0,0.0,0.0,1.0
1463930403325514412,429,1463930402447818946,,-0.315884947777,-3.38262748718,34.7062797546,0.00145800004248,1.0,0.0,0.0,0.0,1.0,0.0,0.0,0.0,1.0,-0.975609779358,-25.6707324982,0.365853667259,1.0,0.0,0.0,0.0,1.0,0.0,0.0,0.0,1.0,-0.387860668945,-1.24498486328,10.2232410889,1.0,0.0,0.0,0.0,1.0,0.0,0.0,0.0,1.0
1463930403325886962,430,1463930402468977553,,-1.00328624249,-3.42257332802,34.8259353638,0.00164100003894,1.0,0.0,0.0,0.0,1.0,0.0,0.0,0.0,1.0,-3.71951246262,-16.7682933807,4.20731735229,1.0,0.0,0.0,0.0,1.0,0.0,0.0,0.0,1.0,4.26167924734,-0.483628735352,10.2615483154,1.0,0.0,0.0,0.0,1.0,0.0,0.0,0.0,1.0
1463930403326196024,431,1463930402490784647,,-1.42662513256,-3.33568382263,35.0999603271,0.0018609999679,1.0,0.0,0.0,0.0,1.0,0.0,0.0,0.0,1.0,3.71951246262,0.548780500889,12.8048782349,1.0,0.0,0.0,0.0,1.0,0.0,0.0,0.0,1.0,4.44363828125,0.981622680664,9.93593688965,1.0,0.0,0.0,0.0,1.0,0.0,0.0,0.0,1.0
1463930403326469460,432,1463930402512116119,,-1.52861011028,-3.1049425602,35.3185348511,0.00146399997175,1.0,0.0,0.0,0.0,1.0,0.0,0.0,0.0,1.0,3.90243911743,18.2926826477,8.5365858078,1.0,0.0,0.0,0.0,1.0,0.0,0.0,0.0,1.0,3.26090266113,1.49398183594,11.1090957031,1.0,0.0,0.0,0.0,1.0,0.0,0.0,0.0,1.0
1463930403330255590,433,1463930402533387851,,-1.28616702557,-2.85937905312,35.3933677673,0.00162899994757,1.0,0.0,0.0,0.0,1.0,0.0,0.0,0.0,1.0,-1.95121955872,18.5975627899,1.34146344662,1.0,0.0,0.0,0.0,1.0,0.0,0.0,0.0,1.0,1.74297880859,2.00155258789,10.8074262939,1.0,0.0,0.0,0.0,1.0,0.0,0.0,0.0,1.0
1463930403330615744,434,1463930402553613077,,-0.990531027317,-2.67117500305,35.3894729614,0.001408000011,1.0,0.0,0.0,0.0,1.0,0.0,0.0,0.0,1.0,-1.15853655338,19.4512195587,3.65853667259,1.0,0.0,0.0,0.0,1.0,0.0,0.0,0.0,1.0,1.99676418457,0.679953271484,9.8305920166,1.0,0.0,0.0,0.0,1.0,0.0,0.0,0.0,1.0
1463930403330668140,435,1463930402574294134,,-0.589544117451,-2.63297629356,35.5934410095,0.00141100003384,1.0,0.0,0.0,0.0,1.0,0.0,0.0,0.0,1.0,1.58536589146,45.7926826477,24.0243911743,1.0,0.0,0.0,0.0,1.0,0.0,0.0,0.0,1.0,2.36068269078,1.16358193377,10.7595422607,1.0,0.0,0.0,0.0,1.0,0.0,0.0,0.0,1.0
1463930403330705067,436,1463930402595164878,,0.313407659531,-2.42383289337,35.7371902466,0.00162800005637,1.0,0.0,0.0,0.0,1.0,0.0,0.0,0.0,1.0,6.52439069748,35.9146347046,9.02439117432,1.0,0.0,0.0,0.0,1.0,0.0,0.0,0.0,1.0,-0.0287304199219,1.31681091309,11.5639940186,1.0,0.0,0.0,0.0,1.0,0.0,0.0,0.0,1.0
1463930403331136055,437,1463930402617150149,,0.903416395187,-1.9829595089,35.7468109131,0.00147899996955,1.0,0.0,0.0,0.0,1.0,0.0,0.0,0.0,1.0,11.0975618362,49.5121955872,0.487804889679,1.0,0.0,0.0,0.0,1.0,0.0,0.0,0.0,1.0,4.40054265137,2.05901342773,11.7842605713,1.0,0.0,0.0,0.0,1.0,0.0,0.0,0.0,1.0
1463930403331412251,438,1463930402638813702,,1.98767256737,-1.4393362999,35.8217468262,0.00195900001563,1.0,0.0,0.0,0.0,1.0,0.0,0.0,0.0,1.0,6.64634132385,62.5609779358,9.75609779358,1.0,0.0,0.0,0.0,1.0,0.0,0.0,0.0,1.0,1.96803376465,4.40533105469,9.61511445171,1.0,0.0,0.0,0.0,1.0,0.0,0.0,0.0,1.0
1463930403331688969,439,1463930402660353870,,3.28675866127,-0.797663629055,35.9061317444,0.00152599997818,1.0,0.0,0.0,0.0,1.0,0.0,0.0,0.0,1.0,11.1585359573,66.2195129395,-4.32926845551,1.0,0.0,0.0,0.0,1.0,0.0,0.0,0.0,1.0,-0.61770402832,3.52426484375,10.4674496582,1.0,0.0,0.0,0.0,1.0,0.0,0.0,0.0,1.0
1463930403331945635,440,1463930402681374301,,4.5139465332,-0.548177480698,35.7153129578,0.00149900000542,1.0,0.0,0.0,0.0,1.0,0.0,0.0,0.0,1.0,-3.35365867615,49.1463432312,-12.8048782349,1.0,0.0,0.0,0.0,1.0,0.0,0.0,0.0,1.0,-1.16837033709,2.09732050817,10.3668931885,1.0,0.0,0.0,0.0,1.0,0.0,0.0,0.0,1.0
1463930403332226154,441,1463930402702941449,,5.35508012772,-0.899461209774,35.4031944275,0.00133799994364,1.0,0.0,0.0,0.0,1.0,0.0,0.0,0.0,1.0,-7.31707334518,34.3902435303,-20.4878044128,1.0,0.0,0.0,0.0,1.0,0.0,0.0,0.0,1.0,0.0143652099609,-0.488417138672,11.8800286377,1.0,0.0,0.0,0.0,1.0,0.0,0.0,0.0,1.0
1463930403339902423,442,1463930402724348649,,6.00971364975,-1.26499843597,34.8619918823,0.00141899997834,1.0,0.0,0.0,0.0,1.0,0.0,0.0,0.0,1.0,-32.5609779358,17.0121955872,-29.0243911743,1.0,0.0,0.0,0.0,1.0,0.0,0.0,0.0,1.0,-2.37504819301,-2.46602770996,12.631807959,1.0,0.0,0.0,0.0,1.0,0.0,0.0,0.0,1.0
1463930403340268047,443,1463930402746040692,,6.4192276001,-1.99263572693,34.1943778992,0.00171800004318,1.0,0.0,0.0,0.0,1.0,0.0,0.0,0.0,1.0,-24.3292694092,4.02439022064,-27.1951236725,1.0,0.0,0.0,0.0,1.0,0.0,0.0,0.0,1.0,-2.48518132324,-3.48116921387,8.69095202637,1.0,0.0,0.0,0.0,1.0,0.0,0.0,0.0,1.0
1463930403340789555,444,1463930402766942633,,6.46208047867,-2.78071427345,33.5807876587,0.00137499999255,1.0,0.0,0.0,0.0,1.0,0.0,0.0,0.0,1.0,-22.1341457367,-0.609756112099,-26.5853652954,1.0,0.0,0.0,0.0,1.0,0.0,0.0,0.0,1.0,-1.24019645996,-2.53785375977,12.0236807373,1.0,0.0,0.0,0.0,1.0,0.0,0.0,0.0,1.0
1463930403340843149,445,1463930402787536712,,6.42463636398,-3.60038948059,33.1589927673,0.00144100002944,1.0,0.0,0.0,0.0,1.0,0.0,0.0,0.0,1.0,-22.8048782349,-1.2195122242,-16.5853652954,1.0,0.0,0.0,0.0,1.0,0.0,0.0,0.0,1.0,-0.588973571866,-3.23696064453,9.95509050293,1.0,0.0,0.0,0.0,1.0,0.0,0.0,0.0,1.0
1463930403340880596,446,1463930402809011985,,6.47209310532,-4.29129695892,32.7881622314,0.00227600010112,1.0,0.0,0.0,0.0,1.0,0.0,0.0,0.0,1.0,-3.29268312454,3.53658556938,-16.8292694092,1.0,0.0,0.0,0.0,1.0,0.0,0.0,0.0,1.0,-0.526724328702,-2.35589428746,10.046070166,1.0,0.0,0.0,0.0,1.0,0.0,0.0,0.0,1.0
1463930403341202210,447,1463930402829967572,,6.53887796402,-4.60389184952,32.4091529846,0.00134399998933,1.0,0.0,0.0,0.0,1.0,0.0,0.0,0.0,1.0,-5.73170757294,15.0000009537,-12.8658542633,1.0,0.0,0.0,0.0,1.0,0.0,0.0,0.0,1.0,1.02950671387,-1.19710090314,9.37569311665,1.0,0.0,0.0,0.0,1.0,0.0,0.0,0.0,1.0
1463930403346826769,448,1463930402851298887,,6.816822052,-4.80598640442,32.153427124,0.00150500005111,1.0,0.0,0.0,0.0,1.0,0.0,0.0,0.0,1.0,-0.853658556938,38.5975608826,-13.1707324982,1.0,0.0,0.0,0.0,1.0,0.0,0.0,0.0,1.0,3.15076938477,-0.215478149414,10.060435376,1.0,0.0,0.0,0.0,1.0,0.0,0.0,0.0,1.0
1463930403347222236,449,1463930402872824733,,7.56374406815,-4.82413625717,31.6059188843,0.00149000005331,1.0,0.0,0.0,0.0,1.0,0.0,0.0,0.0,1.0,-0.487804889679,66.0975646973,-28.4146347046,1.0,0.0,0.0,0.0,1.0,0.0,0.0,0.0,1.0,2.72938989258,-0.694318481445,10.2950671387,1.0,0.0,0.0,0.0,1.0,0.0,0.0,0.0,1.0
1463930403347520255,450,1463930402893896622,,8.74307727814,-4.82094430923,30.654548645,0.00138999999035,1.0,0.0,0.0,0.0,1.0,0.0,0.0,0.0,1.0,5.79268312454,89.5731735229,-47.0731697083,1.0,0.0,0.0,0.0,1.0,0.0,0.0,0.0,1.0,2.7820623291,-0.0383072265625,9.35175110005,1.0,0.0,0.0,0.0,1.0,0.0,0.0,0.0,1.0
1463930403347832233,451,1463930402914854657,,10.3752908707,-4.92456579208,29.2781085968,0.00142400001641,1.0,0.0,0.0,0.0,1.0,0.0,0.0,0.0,1.0,7.62195110321,105.121955872,-63.6585388184,1.0,0.0,0.0,0.0,1.0,0.0,0.0,0.0,1.0,1.41736738281,-1.22104284668,9.90720646973,1.0,0.0,0.0,0.0,1.0,0.0,0.0,0.0,1.0
1463930403348118534,452,1463930402937528883,,12.3823060989,-5.13420057297,27.4574985504,0.00162500003353,1.0,0.0,0.0,0.0,1.0,0.0,0.0,0.0,1.0,9.02439117432,111.707321167,-76.5243911743,1.0,0.0,0.0,0.0,1.0,0.0,0.0,0.0,1.0,0.177170922852,-1.27850368652,9.55286520855,1.0,0.0,0.0,0.0,1.0,0.0,0.0,0.0,1.0
1463930403348410929,453,1463930402958179420,,14.4657011032,-5.46823978424,25.4940757751,0.00222999998368,1.0,0.0,0.0,0.0,1.0,0.0,0.0,0.0,1.0,12.3780488968,113.963417053,-81.0365905762,1.0,0.0,0.0,0.0,1.0,0.0,0.0,0.0,1.0,-1.33117612305,-1.46525141602,8.93037219238,1.0,0.0,0.0,0.0,1.0,0.0,0.0,0.0,1.0
1463930403348680355,454,1463930402978916727,,16.6028804779,-5.86175918579,23.4751777649,0.00142600003164,1.0,0.0,0.0,0.0,1.0,0.0,0.0,0.0,1.0,10.7926826477,122.926826477,-77.134147644,1.0,0.0,0.0,0.0,1.0,0.0,0.0,0.0,1.0,-0.9193734375,-2.28406838379,9.92157167969,1.0,0.0,0.0,0.0,1.0,0.0,0.0,0.0,1.0
1463930403348959520,455,1463930402999648409,,18.9177188873,-6.36392879486,21.4465808868,0.00164499995299,1.0,0.0,0.0,0.0,1.0,0.0,0.0,0.0,1.0,18.658536911,125.914642334,-77.8048782349,1.0,0.0,0.0,0.0,1.0,0.0,0.0,0.0,1.0,-2.11647412145,-2.77248552246,8.91600698242,1.0,0.0,0.0,0.0,1.0,0.0,0.0,0.0,1.0
1463930403355378607,456,1463930403020490977,,21.2374210358,-6.96088647842,19.2807922363,0.00161399994977,1.0,0.0,0.0,0.0,1.0,0.0,0.0,0.0,1.0,17.9878044128,123.414642334,-80.6707382202,1.0,0.0,0.0,0.0,1.0,0.0,0.0,0.0,1.0,-2.42293208008,-3.56257207031,8.67658681641,1.0,0.0,0.0,0.0,1.0,0.0,0.0,0.0,1.0
1463930403355437513,457,1463930403041892291,,23.4632911682,-7.61742782593,16.9784832001,0.00153799995314,1.0,0.0,0.0,0.0,1.0,0.0,0.0,0.0,1.0,24.817073822,107.56098175,-80.7317123413,1.0,0.0,0.0,0.0,1.0,0.0,0.0,0.0,1.0,-3.13161577148,-3.47638081055,8.25999572754,1.0,0.0,0.0,0.0,1.0,0.0,0.0,0.0,1.0
1463930403358787603,458,1463930403062589286,,25.2848014832,-8.21759128571,14.7681436539,0.00151099998038,1.0,0.0,0.0,0.0,1.0,0.0,0.0,0.0,1.0,28.3536586761,99.1463470459,-74.0853729248,1.0,0.0,0.0,0.0,1.0,0.0,0.0,0.0,1.0,-3.34230551758,-3.80678063965,8.54251210796,1.0,0.0,0.0,0.0,1.0,0.0,0.0,0.0,1.0
1463930403359112237,459,1463930403084134559,,27.0344028473,-8.81262493134,12.6476802826,0.00155000004452,1.0,0.0,0.0,0.0,1.0,0.0,0.0,0.0,1.0,23.1097564697,87.6219558716,-67.3780517578,1.0,0.0,0.0,0.0,1.0,0.0,0.0,0.0,1.0,-4.52025273438,-3.4189199707,9.03092866211,1.0,0.0,0.0,0.0,1.0,0.0,0.0,0.0,1.0
1463930403359446871,460,1463930403105268687,,28.5461959839,-9.34276485443,10.7692718506,0.00144300004467,1.0,0.0,0.0,0.0,1.0,0.0,0.0,0.0,1.0,22.682926178,76.1585388184,-55.2439041138,1.0,0.0,0.0,0.0,1.0,0.0,0.0,0.0,1.0,-5.04697709961,-2.7341782959,9.20331118164,1.0,0.0,0.0,0.0,1.0,0.0,0.0,0.0,1.0
1463930403359750984,461,1463930403126804376,,29.8305492401,-9.8129901886,9.19024085999,0.00119700003415,1.0,0.0,0.0,0.0,1.0,0.0,0.0,0.0,1.0,17.317073822,61.2804870605,-43.1707305908,1.0,0.0,0.0,0.0,1.0,0.0,0.0,0.0,1.0,-5.12837995605,-3.24653745117,9.39005832661,1.0,0.0,0.0,0.0,1.0,0.0,0.0,0.0,1.0
1463930403365014504,462,1463930403157742056,,31.2250652313,-10.3127641678,7.70221185684,0.0113460002467,1.0,0.0,0.0,0.0,1.0,0.0,0.0,0.0,1.0,7.68292665482,42.7439041138,-19.9390239716,1.0,0.0,0.0,0.0,1.0,0.0,0.0,0.0,1.0,-5.43004936523,-2.64798703613,9.16500395508,1.0,0.0,0.0,0.0,1.0,0.0,0.0,0.0,1.0
1463930403365340804,463,1463930403178219104,,31.9144821167,-10.512465477,7.25055074692,0.00150699994992,1.0,0.0,0.0,0.0,1.0,0.0,0.0,0.0,1.0,5.0,40.9146385193,-7.37804937363,1.0,0.0,0.0,0.0,1.0,0.0,0.0,0.0,1.0,-4.98472785645,-1.87226569824,8.8633345459,1.0,0.0,0.0,0.0,1.0,0.0,0.0,0.0,1.0
1463930403365712678,464,1463930403203158998,,32.8127059937,-10.8929710388,6.50427627563,0.00902299955487,1.0,0.0,0.0,0.0,1.0,0.0,0.0,0.0,1.0,6.82926845551,39.390247345,-19.6341457367,1.0,0.0,0.0,0.0,1.0,0.0,0.0,0.0,1.0,-6.1770402832,-2.62883342285,8.24563051758,1.0,0.0,0.0,0.0,1.0,0.0,0.0,0.0,1.0
1463930403366011478,465,1463930403224423803,,33.5291862488,-11.0981912613,5.94977664948,0.00151600001846,1.0,0.0,0.0,0.0,1.0,0.0,0.0,0.0,1.0,5.12195110321,35.1219520569,-9.93902492523,1.0,0.0,0.0,0.0,1.0,0.0,0.0,0.0,1.0,-5.02303508301,-1.99197578125,8.46110808247,1.0,0.0,0.0,0.0,1.0,0.0,0.0,0.0,1.0
1463930403370067503,466,1463930403245295953,,34.3601989746,-11.2720041275,5.5313873291,0.00145600002725,1.0,0.0,0.0,0.0,1.0,0.0,0.0,0.0,1.0,6.46341466904,43.7195129395,-2.5,1.0,0.0,0.0,0.0,1.0,0.0,0.0,0.0,1.0,-5.41089575195,-1.5322890625,8.27914934082,1.0,0.0,0.0,0.0,1.0,0.0,0.0,0.0,1.0
1463930403370467761,467,1463930403268567833,,35.3418960571,-11.4078044891,5.26643323898,0.00268299994059,1.0,0.0,0.0,0.0,1.0,0.0,0.0,0.0,1.0,2.80487799644,47.0731697083,1.52439022064,1.0,0.0,0.0,0.0,1.0,0.0,0.0,0.0,1.0,-5.00388146973,-2.55700737305,8.32224438618,1.0,0.0,0.0,0.0,1.0,0.0,0.0,0.0,1.0
1463930403370516668,468,1463930403291421433,,36.3499298096,-11.5695676804,4.97112941742,0.00270500010811,1.0,0.0,0.0,0.0,1.0,0.0,0.0,0.0,1.0,1.8902438879,46.0975646973,-1.15853655338,1.0,0.0,0.0,0.0,1.0,0.0,0.0,0.0,1.0,-5.41089575195,-1.96803376465,8.03015236816,1.0,0.0,0.0,0.0,1.0,0.0,0.0,0.0,1.0
1463930403370796823,469,1463930403311485045,,37.2292938232,-11.7921934128,4.64270210266,0.00128099997528,1.0,0.0,0.0,0.0,1.0,0.0,0.0,0.0,1.0,0.365853667259,45.0609779358,-0.243902444839,1.0,0.0,0.0,0.0,1.0,0.0,0.0,0.0,1.0,-5.49708701172,-2.48996972656,8.41322404927,1.0,0.0,0.0,0.0,1.0,0.0,0.0,0.0,1.0
1463930403371074113,470,1463930403333180681,,38.2703361511,-11.9450292587,4.47776889801,0.00133500003722,1.0,0.0,0.0,0.0,1.0,0.0,0.0,0.0,1.0,-5.06097555161,49.207321167,6.28048801422,1.0,0.0,0.0,0.0,1.0,0.0,0.0,0.0,1.0,-6.15788666992,-1.70467158203,7.9918451416,1.0,0.0,0.0,0.0,1.0,0.0,0.0,0.0,1.0
1463930404656487992,471,1463930403356025375,,39.3118515015,-12.0585441589,4.40886116028,0.00183600001037,1.0,0.0,0.0,0.0,1.0,0.0,0.0,0.0,1.0,-2.98780488968,49.817073822,7.56097555161,1.0,0.0,0.0,0.0,1.0,0.0,0.0,0.0,1.0,-5.67904633789,-1.24498486328,8.06367119141,1.0,0.0,0.0,0.0,1.0,0.0,0.0,0.0,1.0
1463930404656827262,472,1463930403377354242,,40.33801651,-12.1973133087,4.30498409271,0.00144699995872,1.0,0.0,0.0,0.0,1.0,0.0,0.0,0.0,1.0,-3.17073178291,52.5609779358,7.98780536652,1.0,0.0,0.0,0.0,1.0,0.0,0.0,0.0,1.0,-4.70700017161,-1.9105729248,7.9439611084,1.0,0.0,0.0,0.0,1.0,0.0,0.0,0.0,1.0
1463930404657289291,473,1463930403397930040,,41.4412307739,-12.2978019714,4.21572780609,0.00281199999154,1.0,0.0,0.0,0.0,1.0,0.0,0.0,0.0,1.0,-4.57317066193,59.207321167,8.35365867615,1.0,0.0,0.0,0.0,1.0,0.0,0.0,0.0,1.0,-5.516240625,-1.35990654297,7.7093293457,1.0,0.0,0.0,0.0,1.0,0.0,0.0,0.0,1.0
1463930404657621425,474,1463930403419318698,,42.6103439331,-12.4956998825,4.04198122025,0.00260300002992,1.0,0.0,0.0,0.0,1.0,0.0,0.0,0.0,1.0,-2.74390244484,55.7317085266,8.35365867615,1.0,0.0,0.0,0.0,1.0,0.0,0.0,0.0,1.0,-6.30153876953,-1.58496149902,7.4268135498,1.0,0.0,0.0,0.0,1.0,0.0,0.0,0.0,1.0
1463930404657927153,475,1463930403439856631,,43.7636146545,-12.6585502625,3.93057274818,0.00142900005449,1.0,0.0,0.0,0.0,1.0,0.0,0.0,0.0,1.0,-7.98780536652,56.3414649963,8.41463470459,1.0,0.0,0.0,0.0,1.0,0.0,0.0,0.0,1.0,-6.94797321777,-1.43173259277,7.54173522949,1.0,0.0,0.0,0.0,1.0,0.0,0.0,0.0,1.0
1463930404658205485,476,1463930403460230607,,44.9389953613,-12.8791971207,3.8661365509,0.00146199995652,1.0,0.0,0.0,0.0,1.0,0.0,0.0,0.0,1.0,-9.02439117432,54.0243911743,11.2195119858,1.0,0.0,0.0,0.0,1.0,0.0,0.0,0.0,1.0,-6.70376464844,-1.5322890625,6.93839641113,1.0,0.0,0.0,0.0,1.0,0.0,0.0,0.0,1.0
1463930404658476161,477,1463930403482015045,,46.1113929749,-13.038022995,3.87860393524,0.0012969999807,1.0,0.0,0.0,0.0,1.0,0.0,0.0,0.0,1.0,-9.87804889679,56.8292694092,10.7926826477,1.0,0.0,0.0,0.0,1.0,0.0,0.0,0.0,1.0,-6.44040246582,-1.29286889648,6.82347473145,1.0,0.0,0.0,0.0,1.0,0.0,0.0,0.0,1.0
1463930404658748035,478,1463930403501683138,,47.3352127075,-13.261100769,3.84879922867,0.00126599997748,1.0,0.0,0.0,0.0,1.0,0.0,0.0,0.0,1.0,-11.7073173523,48.9634170532,10.9146347046,1.0,0.0,0.0,0.0,1.0,0.0,0.0,0.0,1.0,-9.5432884019,-0.742202514648,7.17781657715,1.0,0.0,0.0,0.0,1.0,0.0,0.0,0.0,1.0
1463930404659050221,479,1463930403522834766,,48.2099380493,-13.4013624191,3.89834976196,0.00138899998274,1.0,0.0,0.0,0.0,1.0,0.0,0.0,0.0,1.0,-9.08536529541,25.6097564697,6.95121955872,1.0,0.0,0.0,0.0,1.0,0.0,0.0,0.0,1.0,-10.4004120117,-1.05823706072,7.08683691406,1.0,0.0,0.0,0.0,1.0,0.0,0.0,0.0,1.0
1463930404659354491,480,1463930403544484309,,48.7403297424,-13.2730703354,4.1558175087,0.00165099999867,1.0,0.0,0.0,0.0,1.0,0.0,0.0,0.0,1.0,-5.85365867615,8.96341514587,9.93902492523,1.0,0.0,0.0,0.0,1.0,0.0,0.0,0.0,1.0,-8.77714328613,-0.45968671875,7.19697019043,1.0,0.0,0.0,0.0,1.0,0.0,0.0,0.0,1.0
1463930404659654646,481,1463930403564806462,,48.8626365662,-13.0758171082,4.47187232971,0.00142200000118,1.0,0.0,0.0,0.0,1.0,0.0,0.0,0.0,1.0,-3.35365867615,2.98780488968,7.01219511032,1.0,0.0,0.0,0.0,1.0,0.0,0.0,0.0,1.0,-6.44997927246,-0.895431420898,7.37414111328,1.0,0.0,0.0,0.0,1.0,0.0,0.0,0.0,1.0
1463930404659923238,482,1463930403586085694,,48.8557014465,-12.9341497421,4.68723773956,0.00145900005009,1.0,0.0,0.0,0.0,1.0,0.0,0.0,0.0,1.0,-4.20731735229,3.10975623131,2.43902444839,1.0,0.0,0.0,0.0,1.0,0.0,0.0,0.0,1.0,-6.22013591309,-0.598550451572,6.87614716797,1.0,0.0,0.0,0.0,1.0,0.0,0.0,0.0,1.0
1463930404660215164,483,1463930403608740128,,48.9096336365,-12.8034076691,4.88455486298,0.00238800002262,1.0,0.0,0.0,0.0,1.0,0.0,0.0,0.0,1.0,-5.0,7.01219511032,4.08536577225,1.0,0.0,0.0,0.0,1.0,0.0,0.0,0.0,1.0,-7.15866296387,-0.45489831543,7.32146867676,1.0,0.0,0.0,0.0,1.0,0.0,0.0,0.0,1.0
1463930404660532038,484,1463930403629870923,,49.0038223267,-12.6635570526,5.12422895432,0.00152299995534,1.0,0.0,0.0,0.0,1.0,0.0,0.0,0.0,1.0,-4.93902444839,9.81707286835,6.15853643417,1.0,0.0,0.0,0.0,1.0,0.0,0.0,0.0,1.0,-6.04775339355,-0.91458503418,7.36456430664,1.0,0.0,0.0,0.0,1.0,0.0,0.0,0.0,1.0
1463930404660865265,485,1463930403650966146,,49.1589851379,-12.5030937195,5.34458351135,0.00212000007741,1.0,0.0,0.0,0.0,1.0,0.0,0.0,0.0,1.0,-4.14634132385,13.9024391174,4.32926845551,1.0,0.0,0.0,0.0,1.0,0.0,0.0,0.0,1.0,-6.35421120605,-1.28329208984,7.86255825195,1.0,0.0,0.0,0.0,1.0,0.0,0.0,0.0,1.0
1463930404661119743,486,1463930403671568662,,49.2481002808,-12.5490283966,5.35473251343,0.00149099994451,1.0,0.0,0.0,0.0,1.0,0.0,0.0,0.0,1.0,-2.86585378647,11.7073173523,-0.0609756112099,1.0,0.0,0.0,0.0,1.0,0.0,0.0,0.0,1.0,-6.42603725586,-1.43652099609,7.86734665527,1.0,0.0,0.0,0.0,1.0,0.0,0.0,0.0,1.0
1463930404662656768,487,1463930403692348156,,49.3848419189,-12.5853710175,5.29347801208,0.00144899997395,1.0,0.0,0.0,0.0,1.0,0.0,0.0,0.0,1.0,-2.68292689323,12.3170728683,-2.62195134163,1.0,0.0,0.0,0.0,1.0,0.0,0.0,0.0,1.0,-6.86657036133,-0.790086547852,6.51222851562,1.0,0.0,0.0,0.0,1.0,0.0,0.0,0.0,1.0
1463930404666601907,488,1463930403712787235,,49.6325836182,-12.5861940384,5.2604136467,0.00138499995228,1.0,0.0,0.0,0.0,1.0,0.0,0.0,0.0,1.0,-1.03658533096,16.8902435303,0.670731723309,1.0,0.0,0.0,0.0,1.0,0.0,0.0,0.0,1.0,-7.77157858887,-0.699106884766,6.81868632812,1.0,0.0,0.0,0.0,1.0,0.0,0.0,0.0,1.0
1463930404668027110,489,1463930403733711156,,49.9226036072,-12.6048460007,5.22348165512,0.00154500000644,1.0,0.0,0.0,0.0,1.0,0.0,0.0,0.0,1.0,0.0,8.84146404266,-0.975609779358,1.0,0.0,0.0,0.0,1.0,0.0,0.0,0.0,1.0,-8.2743609375,-1.47003981934,6.77559069824,1.0,0.0,0.0,0.0,1.0,0.0,0.0,0.0,1.0
1463930404668328827,490,1463930403757083244,,50.0265884399,-12.5745725632,5.20545101166,0.00308599998243,1.0,0.0,0.0,0.0,1.0,0.0,0.0,0.0,1.0,0.487804889679,0.365853667259,-0.609756112099,1.0,0.0,0.0,0.0,1.0,0.0,0.0,0.0,1.0,-7.69496413574,-1.02950671387,7.08683691406,1.0,0.0,0.0,0.0,1.0,0.0,0.0,0.0,1.0
1463930404668603566,491,1463930403778322528,,50.0045051575,-12.4833021164,5.27883338928,0.00242100004107,1.0,0.0,0.0,0.0,1.0,0.0,0.0,0.0,1.0,-0.487804889679,1.09756100178,1.8292683363,1.0,0.0,0.0,0.0,1.0,0.0,0.0,0.0,1.0,-6.79953271484,-0.938527050781,7.23048901367,1.0,0.0,0.0,0.0,1.0,0.0,0.0,0.0,1.0
1463930404668883564,492,1463930403799646552,,49.9534111023,-12.411564827,5.38277959824,0.00132799998391,1.0,0.0,0.0,0.0,1.0,0.0,0.0,0.0,1.0,-1.8292683363,5.24390268326,1.09756100178,1.0,0.0,0.0,0.0,1.0,0.0,0.0,0.0,1.0,-6.74686027832,-1.13006318359,7.15866296387,1.0,0.0,0.0,0.0,1.0,0.0,0.0,0.0,1.0
1463930404669143459,493,1463930403820313234,,49.9899101257,-12.3719844818,5.42370414734,0.00155499996617,1.0,0.0,0.0,0.0,1.0,0.0,0.0,0.0,1.0,-1.64634156227,3.41463422775,0.0,1.0,0.0,0.0,0.0,1.0,0.0,0.0,0.0,1.0,-7.44117875977,-0.823605371094,7.0724717041,1.0,0.0,0.0,0.0,1.0,0.0,0.0,0.0,1.0
1463930404669395854,494,1463930403841977881,,50.0238304138,-12.2786884308,5.52129030228,0.00175099994522,1.0,0.0,0.0,0.0,1.0,0.0,0.0,0.0,1.0,-0.975609779358,1.8292683363,1.2804877758,1.0,0.0,0.0,0.0,1.0,0.0,0.0,0.0,1.0,-7.24006582031,-0.871489404297,7.01501086426,1.0,0.0,0.0,0.0,1.0,0.0,0.0,0.0,1.0
1463930404669662676,495,1463930403863320654,,50.0022735596,-12.2260522842,5.56531238556,0.00132399995346,1.0,0.0,0.0,0.0,1.0,0.0,0.0,0.0,1.0,0.0609756112099,1.76829278469,-1.2195122242,1.0,0.0,0.0,0.0,1.0,0.0,0.0,0.0,1.0,-7.00543405762,-1.08696755371,6.93360800781,1.0,0.0,0.0,0.0,1.0,0.0,0.0,0.0,1.0
1463930404669934758,496,1463930403885379987,,49.9531097412,-12.2196893692,5.53259658813,0.00167899997905,1.0,0.0,0.0,0.0,1.0,0.0,0.0,0.0,1.0,0.975609779358,1.46341466904,-1.70731711388,1.0,0.0,0.0,0.0,1.0,0.0,0.0,0.0,1.0,-7.08204851074,-1.25456166992,7.09162531738,1.0,0.0,0.0,0.0,1.0,0.0,0.0,0.0,1.0
1463930404670191840,497,1463930403906535678,,49.9131546021,-12.2283592224,5.4950761795,0.00139700004365,1.0,0.0,0.0,0.0,1.0,0.0,0.0,0.0,1.0,0.487804889679,1.34146344662,-0.792682945728,1.0,0.0,0.0,0.0,1.0,0.0,0.0,0.0,1.0,-7.21133540039,-1.59453830566,7.18260498047,1.0,0.0,0.0,0.0,1.0,0.0,0.0,0.0,1.0
1463930404670515901,498,1463930403927803452,,49.8681488037,-12.2231235504,5.48079586029,0.0016309999628,1.0,0.0,0.0,0.0,1.0,0.0,0.0,0.0,1.0,0.18292683363,1.2804877758,0.18292683363,1.0,0.0,0.0,0.0,1.0,0.0,0.0,0.0,1.0,-6.99106884766,-1.31681091309,6.86178195801,1.0,0.0,0.0,0.0,1.0,0.0,0.0,0.0,1.0
1463930404670561526,499,1463930403949115860,,49.8509788513,-12.1779203415,5.51923036575,0.00188800005708,1.0,0.0,0.0,0.0,1.0,0.0,0.0,0.0,1.0,-0.365853667259,3.29268312454,1.09756100178,1.0,0.0,0.0,0.0,1.0,0.0,0.0,0.0,1.0,-6.99106884766,-1.01514150391,6.83783994141,1.0,0.0,0.0,0.0,1.0,0.0,0.0,0.0,1.0
1463930404670826577,500,1463930403969880251,,49.8924598694,-12.1130666733,5.59795999527,0.00149199995212,1.0,0.0,0.0,0.0,1.0,0.0,0.0,0.0,1.0,-1.64634156227,3.41463422775,1.58536589146,1.0,0.0,0.0,0.0,1.0,0.0,0.0,0.0,1.0,-7.36935270996,-0.995987890625,7.05810649414,1.0,0.0,0.0,0.0,1.0,0.0,0.0,0.0,1.0
1463930404671147930,501,1463930403990527142,,49.9254837036,-12.0230531693,5.70648193359,0.0014380000066,1.0,0.0,0.0,0.0,1.0,0.0,0.0,0.0,1.0,-1.15853655338,2.43902444839,2.13414645195,1.0,0.0,0.0,0.0,1.0,0.0,0.0,0.0,1.0,-7.22570061035,-0.713472094727,7.01979926758,1.0,0.0,0.0,0.0,1.0,0.0,0.0,0.0,1.0
1463930404671406470,502,1463930404011701791,,49.910320282,-11.9047632217,5.84506559372,0.00156999996398,1.0,0.0,0.0,0.0,1.0,0.0,0.0,0.0,1.0,-1.40243899822,3.10975623131,1.40243899822,1.0,0.0,0.0,0.0,1.0,0.0,0.0,0.0,1.0,-6.72291826172,-0.775721337891,7.17302817383,1.0,0.0,0.0,0.0,1.0,0.0,0.0,0.0,1.0
1463930404673501461,503,1463930404033910185,,49.8912391663,-11.8406801224,5.91167783737,0.00158100004774,1.0,0.0,0.0,0.0,1.0,0.0,0.0,0.0,1.0,-1.09756100178,3.71951246262,-0.304878056049,1.0,0.0,0.0,0.0,1.0,0.0,0.0,0.0,1.0,-7.14908615723,-0.952892260742,7.44596716309,1.0,0.0,0.0,0.0,1.0,0.0,0.0,0.0,1.0
1463930404673918335,504,1463930404055725769,,49.8760185242,-11.8061828613,5.93286037445,0.0015419999836,1.0,0.0,0.0,0.0,1.0,0.0,0.0,0.0,1.0,1.2195122242,0.426829278469,0.18292683363,1.0,0.0,0.0,0.0,1.0,0.0,0.0,0.0,1.0,-7.18739338379,-1.09654436035,7.05810649414,1.0,0.0,0.0,0.0,1.0,0.0,0.0,0.0,1.0
1463930404674219740,505,1463930404077324583,,49.8180389404,-11.7518119812,5.94283103943,0.00160499999765,1.0,0.0,0.0,0.0,1.0,0.0,0.0,0.0,1.0,1.2804877758,2.92682933807,-2.13414645195,1.0,0.0,0.0,0.0,1.0,0.0,0.0,0.0,1.0,-6.99106884766,-1.56580788574,7.07726010742,1.0,0.0,0.0,0.0,1.0,0.0,0.0,0.0,1.0
1463930404674519842,506,1463930404097955276,,49.8447914124,-11.7437610626,5.91646051407,0.00204499997199,1.0,0.0,0.0,0.0,1.0,0.0,0.0,0.0,1.0,0.853658556938,0.548780500889,-1.8292683363,1.0,0.0,0.0,0.0,1.0,0.0,0.0,0.0,1.0,-7.6614453125,-1.09654436035,6.38294162598,1.0,0.0,0.0,0.0,1.0,0.0,0.0,0.0,1.0
1463930404674836456,507,1463930404118638625,,49.8028259277,-11.7429227829,5.87838220596,0.00145700003486,1.0,0.0,0.0,0.0,1.0,0.0,0.0,0.0,1.0,0.670731723309,1.09756100178,-1.58536589146,1.0,0.0,0.0,0.0,1.0,0.0,0.0,0.0,1.0,-7.19218178711,-1.1540052002,7.06289489746,1.0,0.0,0.0,0.0,1.0,0.0,0.0,0.0,1.0
1463930404675141090,508,1463930404139879264,,49.7941703796,-11.7156848907,5.90675544739,0.00169099995401,1.0,0.0,0.0,0.0,1.0,0.0,0.0,0.0,1.0,-1.58536589146,3.10975623131,0.975609779358,1.0,0.0,0.0,0.0,1.0,0.0,0.0,0.0,1.0,-7.19218178711,-1.44130939941,6.79474431152,1.0,0.0,0.0,0.0,1.0,0.0,0.0,0.0,1.0
1463930404675419526,509,1463930404161390942,,49.7595558167,-11.7234125137,5.92509031296,0.00175900000613,1.0,0.0,0.0,0.0,1.0,0.0,0.0,0.0,1.0,-0.304878056049,1.95121955872,0.365853667259,1.0,0.0,0.0,0.0,1.0,0.0,0.0,0.0,1.0,-6.90008918457,-1.26413847656,7.55610043945,1.0,0.0,0.0,0.0,1.0,0.0,0.0,0.0,1.0
1463930404675785722,510,1463930404183268818,,49.7444343567,-11.6809692383,5.99315357208,0.00140499998815,1.0,0.0,0.0,0.0,1.0,0.0,0.0,0.0,1.0,-2.31707310677,4.20731735229,1.58536589146,1.0,0.0,0.0,0.0,1.0,0.0,0.0,0.0,1.0,-7.18260498047,-1.09175595703,6.65588061523,1.0,0.0,0.0,0.0,1.0,0.0,0.0,0.0,1.0
1463930404676119940,511,1463930404203904407,,49.786441803,-11.6246118546,6.04613256454,0.00190699996892,1.0,0.0,0.0,0.0,1.0,0.0,0.0,0.0,1.0,-0.914634168148,3.7804877758,0.914634168148,1.0,0.0,0.0,0.0,1.0,0.0,0.0,0.0,1.0,-7.56088884277,-0.92416184082,7.11077893066,1.0,0.0,0.0,0.0,1.0,0.0,0.0,0.0,1.0
1463930404676454834,512,1463930404224590151,,49.8161811829,-11.5532646179,6.12867307663,0.00130000000354,1.0,0.0,0.0,0.0,1.0,0.0,0.0,0.0,1.0,-0.731707334518,0.731707334518,0.792682945728,1.0,0.0,0.0,0.0,1.0,0.0,0.0,0.0,1.0,-7.22091220703,-0.986411083984,6.77080229492,1.0,0.0,0.0,0.0,1.0,0.0,0.0,0.0,1.0
1463930404676749468,513,1463930404245366417,,49.748916626,-11.510761261,6.14444684982,0.00198900001124,1.0,0.0,0.0,0.0,1.0,0.0,0.0,0.0,1.0,0.12195122242,1.2804877758,-1.34146344662,1.0,0.0,0.0,0.0,1.0,0.0,0.0,0.0,1.0,-6.62715019531,-1.09175595703,7.29752666016,1.0,0.0,0.0,0.0,1.0,0.0,0.0,0.0,1.0
1463930404677059207,514,1463930404267229240,,49.7424850464,-11.5193910599,6.1229634285,0.0015040000435,1.0,0.0,0.0,0.0,1.0,0.0,0.0,0.0,1.0,0.426829278469,2.5,0.304878056049,1.0,0.0,0.0,0.0,1.0,0.0,0.0,0.0,1.0,-7.34062229004,-1.20667770978,7.04374128418,1.0,0.0,0.0,0.0,1.0,0.0,0.0,0.0,1.0
1463930404677239414,515,1463930404289430135,,49.7106704712,-11.4886274338,6.15339660645,0.00205900007859,1.0,0.0,0.0,0.0,1.0,0.0,0.0,0.0,1.0,-0.609756112099,1.34146344662,0.304878056049,1.0,0.0,0.0,0.0,1.0,0.0,0.0,0.0,1.0,-6.7899559082,-1.19710090314,7.24006582031,1.0,0.0,0.0,0.0,1.0,0.0,0.0,0.0,1.0
1463930404678720502,516,1463930404309644632,,49.6847953796,-11.4514961243,6.18714141846,0.00158899999224,1.0,0.0,0.0,0.0,1.0,0.0,0.0,0.0,1.0,-0.853658556938,3.90243911743,0.243902444839,1.0,0.0,0.0,0.0,1.0,0.0,0.0,0.0,1.0,-6.96712683105,-0.847547387695,6.88572397461,1.0,0.0,0.0,0.0,1.0,0.0,0.0,0.0,1.0
1463930404680347734,517,1463930404330173919,,49.7284927368,-11.4410324097,6.18964481354,0.00187200005166,1.0,0.0,0.0,0.0,1.0,0.0,0.0,0.0,1.0,0.12195122242,2.98780488968,-0.609756112099,1.0,0.0,0.0,0.0,1.0,0.0,0.0,0.0,1.0,-7.47469758301,-1.18273554705,7.01979926758,1.0,0.0,0.0,0.0,1.0,0.0,0.0,0.0,1.0
1463930404680732107,518,1463930404352666896,,49.7203559875,-11.3767528534,6.24683952332,0.00148700003047,1.0,0.0,0.0,0.0,1.0,0.0,0.0,0.0,1.0,-0.914634168148,1.58536589146,1.34146344662,1.0,0.0,0.0,0.0,1.0,0.0,0.0,0.0,1.0,-6.54095893555,-1.06302561017,7.18739338379,1.0,0.0,0.0,0.0,1.0,0.0,0.0,0.0,1.0
1463930404681016481,519,1463930404372977069,,49.7634887695,-11.3873720169,6.22164869308,0.00166599999648,1.0,0.0,0.0,0.0,1.0,0.0,0.0,0.0,1.0,0.426829278469,3.71951246262,-1.09756100178,1.0,0.0,0.0,0.0,1.0,0.0,0.0,0.0,1.0,-7.49385119629,-1.2976572998,6.83305153809,1.0,0.0,0.0,0.0,1.0,0.0,0.0,0.0,1.0
1463930404681284241,520,1463930404393816147,,49.7593765259,-11.3910655975,6.21713018417,0.00155899999663,1.0,0.0,0.0,0.0,1.0,0.0,0.0,0.0,1.0,-0.853658556938,3.59756112099,0.487804889679,1.0,0.0,0.0,0.0,1.0,0.0,0.0,0.0,1.0,-7.20654699707,-1.31681091309,7.0485296875,1.0,0.0,0.0,0.0,1.0,0.0,0.0,0.0,1.0
1463930404681570958,521,1463930404413892311,,49.7773971558,-11.378704071,6.22279834747,0.00146199995652,1.0,0.0,0.0,0.0,1.0,0.0,0.0,0.0,1.0,0.243902444839,2.25609779358,0.12195122242,1.0,0.0,0.0,0.0,1.0,0.0,0.0,0.0,1.0,-7.20654699707,-1.19231249982,6.97191523437,1.0,0.0,0.0,0.0,1.0,0.0,0.0,0.0,1.0
1463930404681878926,522,1463930404434559879,,49.7638130188,-11.352432251,6.24386072159,0.0013269999763,1.0,0.0,0.0,0.0,1.0,0.0,0.0,0.0,1.0,-0.243902444839,1.76829278469,0.731707334518,1.0,0.0,0.0,0.0,1.0,0.0,0.0,0.0,1.0,-7.16345136719,-1.25935007324,6.87135876465,1.0,0.0,0.0,0.0,1.0,0.0,0.0,0.0,1.0
1463930404682188195,523,1463930404458111757,,49.7579345703,-11.3084888458,6.27790212631,0.00392899988219,1.0,0.0,0.0,0.0,1.0,0.0,0.0,0.0,1.0,-0.670731723309,1.40243899822,-0.609756112099,1.0,0.0,0.0,0.0,1.0,0.0,0.0,0.0,1.0,-7.18739338379,-0.981622680664,6.99106884766,1.0,0.0,0.0,0.0,1.0,0.0,0.0,0.0,1.0
1463930404682544131,524,1463930404477415893,,49.7617263794,-11.2806587219,6.30401706696,0.00165099999867,1.0,0.0,0.0,0.0,1.0,0.0,0.0,0.0,1.0,-0.18292683363,2.80487799644,0.731707334518,1.0,0.0,0.0,0.0,1.0,0.0,0.0,0.0,1.0,-7.39329472656,-0.890643017578,7.01979926758,1.0,0.0,0.0,0.0,1.0,0.0,0.0,0.0,1.0
1463930404682590433,525,1463930404499189342,,49.7600135803,-11.2149124146,6.37769269943,0.00182699994184,1.0,0.0,0.0,0.0,1.0,0.0,0.0,0.0,1.0,-0.853658556938,0.914634168148,0.914634168148,1.0,0.0,0.0,0.0,1.0,0.0,0.0,0.0,1.0,-6.94797321777,-0.909796630859,7.03895288086,1.0,0.0,0.0,0.0,1.0,0.0,0.0,0.0,1.0
1463930404682881577,526,1463930404520636854,,49.7072944641,-11.177485466,6.41484069824,0.00192800001241,1.0,0.0,0.0,0.0,1.0,0.0,0.0,0.0,1.0,-0.914634168148,3.53658556938,0.18292683363,1.0,0.0,0.0,0.0,1.0,0.0,0.0,0.0,1.0,-6.96233842773,-0.981622680664,7.26400783691,1.0,0.0,0.0,0.0,1.0,0.0,0.0,0.0,1.0
1463930404683148608,527,1463930404542008065,,49.7214050293,-11.157787323,6.43170118332,0.00184200005606,1.0,0.0,0.0,0.0,1.0,0.0,0.0,0.0,1.0,0.304878056049,1.95121955872,-0.426829278469,1.0,0.0,0.0,0.0,1.0,0.0,0.0,0.0,1.0,-7.26400783691,-0.943315454102,7.08683691406,1.0,0.0,0.0,0.0,1.0,0.0,0.0,0.0,1.0
1463930404683410117,528,1463930404563406307,,49.7099189758,-11.1090049744,6.46126937866,0.00129199994262,1.0,0.0,0.0,0.0,1.0,0.0,0.0,0.0,1.0,-0.426829278469,2.43902444839,0.12195122242,1.0,0.0,0.0,0.0,1.0,0.0,0.0,0.0,1.0,-7.18260498047,-1.11569797363,6.89530078125,1.0,0.0,0.0,0.0,1.0,0.0,0.0,0.0,1.0
1463930404683685428,529,1463930404584733508,,49.7160835266,-11.1052455902,6.45634508133,0.00140499998815,1.0,0.0,0.0,0.0,1.0,0.0,0.0,0.0,1.0,-0.243902444839,2.07317066193,-0.975609779358,1.0,0.0,0.0,0.0,1.0,0.0,0.0,0.0,1.0,-7.28794985352,-1.07260241682,6.73249506836,1.0,0.0,0.0,0.0,1.0,0.0,0.0,0.0,1.0
1463930404684024906,530,1463930404605138577,,49.7055282593,-11.1049804688,6.44562387466,0.00159200001508,1.0,0.0,0.0,0.0,1.0,0.0,0.0,0.0,1.0,-0.670731723309,1.2195122242,-0.304878056049,1.0,0.0,0.0,0.0,1.0,0.0,0.0,0.0,1.0,-7.14429775391,-1.23540805664,6.92881960449,1.0,0.0,0.0,0.0,1.0,0.0,0.0,0.0,1.0
1463930404686660884,531,1463930404626206143,,49.6869049072,-11.0929279327,6.45084667206,0.00133100000676,1.0,0.0,0.0,0.0,1.0,0.0,0.0,0.0,1.0,-0.487804889679,2.07317066193,0.365853667259,1.0,0.0,0.0,0.0,1.0,0.0,0.0,0.0,1.0,-7.05810649414,-1.18273554705,7.17781657715,1.0,0.0,0.0,0.0,1.0,0.0,0.0,0.0,1.0
1463930404687053487,532,1463930404647080168,,49.6609420776,-11.0807733536,6.4733581543,0.00142900005449,1.0,0.0,0.0,0.0,1.0,0.0,0.0,0.0,1.0,-0.670731723309,2.5,0.426829278469,1.0,0.0,0.0,0.0,1.0,0.0,0.0,0.0,1.0,-6.95276162109,-1.16358193377,7.23527741699,1.0,0.0,0.0,0.0,1.0,0.0,0.0,0.0,1.0
1463930404884644517,533,1463930404668002943,,49.6635627747,-11.0382328033,6.51916837692,0.00163399998564,1.0,0.0,0.0,0.0,1.0,0.0,0.0,0.0,1.0,-1.58536589146,2.98780488968,0.426829278469,1.0,0.0,0.0,0.0,1.0,0.0,0.0,0.0,1.0,-7.11077893066,-0.732625708008,7.0245876709,1.0,0.0,0.0,0.0,1.0,0.0,0.0,0.0,1.0
1463930404884910818,534,1463930404689000562,,49.6869125366,-10.9899606705,6.5699634552,0.0012379999971,1.0,0.0,0.0,0.0,1.0,0.0,0.0,0.0,1.0,-0.548780500889,3.35365867615,0.426829278469,1.0,0.0,0.0,0.0,1.0,0.0,0.0,0.0,1.0,-7.15866296387,-0.679953271484,7.02937607422,1.0,0.0,0.0,0.0,1.0,0.0,0.0,0.0,1.0
1463930404885199931,535,1463930404718441686,,49.7140884399,-10.956158638,6.58998394012,0.0118359997869,1.0,0.0,0.0,0.0,1.0,0.0,0.0,0.0,1.0,0.18292683363,1.8902438879,-1.09756100178,1.0,0.0,0.0,0.0,1.0,0.0,0.0,0.0,1.0,-7.4268135498,-1.09175595703,6.94797321777,1.0,0.0,0.0,0.0,1.0,0.0,0.0,0.0,1.0
1463930404885475295,536,1463930404739785032,,49.6784973145,-10.9566287994,6.57332372665,0.00132799998391,1.0,0.0,0.0,0.0,1.0,0.0,0.0,0.0,1.0,-0.304878056049,0.670731723309,-1.15853655338,1.0,0.0,0.0,0.0,1.0,0.0,0.0,0.0,1.0,-6.72770666504,-1.14921679688,6.89530078125,1.0,0.0,0.0,0.0,1.0,0.0,0.0,0.0,1.0
1463930404885938053,537,1463930404761301555,,49.6325836182,-11.011551857,6.50030612946,0.00135100004263,1.0,0.0,0.0,0.0,1.0,0.0,0.0,0.0,1.0,-0.487804889679,1.8902438879,-1.2804877758,1.0,0.0,0.0,0.0,1.0,0.0,0.0,0.0,1.0,-7.01501086426,-1.34554133301,7.40765993652,1.0,0.0,0.0,0.0,1.0,0.0,0.0,0.0,1.0
1463930404885985709,538,1463930404781972664,,49.6061134338,-11.0726337433,6.4288816452,0.00127200002316,1.0,0.0,0.0,0.0,1.0,0.0,0.0,0.0,1.0,0.731707334518,0.792682945728,-0.853658556938,1.0,0.0,0.0,0.0,1.0,0.0,0.0,0.0,1.0,-7.19218178711,-1.49877023926,7.19697019043,1.0,0.0,0.0,0.0,1.0,0.0,0.0,0.0,1.0
1463930404886256281,539,1463930404803246323,,49.5910568237,-11.0892314911,6.39103746414,0.00128399999812,1.0,0.0,0.0,0.0,1.0,0.0,0.0,0.0,1.0,1.46341466904,1.64634156227,0.426829278469,1.0,0.0,0.0,0.0,1.0,0.0,0.0,0.0,1.0,-7.09162531738,-1.32638771973,6.65588061523,1.0,0.0,0.0,0.0,1.0,0.0,0.0,0.0,1.0
1463930404886837789,540,1463930404824663888,,49.6025466919,-11.0679244995,6.41985940933,0.00120599998627,1.0,0.0,0.0,0.0,1.0,0.0,0.0,0.0,1.0,-0.304878056049,3.41463422775,2.62195134163,1.0,0.0,0.0,0.0,1.0,0.0,0.0,0.0,1.0,-7.29273825684,-0.900219824219,6.95276162109,1.0,0.0,0.0,0.0,1.0,0.0,0.0,0.0,1.0
1463930404887161017,541,1463930404855285997,,49.6822090149,-10.9957675934,6.53638935089,0.0119110001251,1.0,0.0,0.0,0.0,1.0,0.0,0.0,0.0,1.0,-1.8902438879,4.63414621353,2.74390244484,1.0,0.0,0.0,0.0,1.0,0.0,0.0,0.0,1.0,-7.48427438965,-0.790086547852,6.68461103516,1.0,0.0,0.0,0.0,1.0,0.0,0.0,0.0,1.0
1463930404887462838,542,1463930404880284536,,49.858921051,-10.8719263077,6.72351789474,0.0245600007474,1.0,0.0,0.0,0.0,1.0,0.0,0.0,0.0,1.0,-2.86585378647,5.60975599289,3.53658556938,1.0,0.0,0.0,0.0,1.0,0.0,0.0,0.0,1.0,-7.94874951172,-0.651222851562,6.96712683105,1.0,0.0,0.0,0.0,1.0,0.0,0.0,0.0,1.0
1463930404927266366,543,1463930404898380760,,50.0062789917,-10.7654790878,6.86689662933,0.0205780006945,1.0,0.0,0.0,0.0,1.0,0.0,0.0,0.0,1.0,-2.25609779358,3.10975623131,2.56097555161,1.0,0.0,0.0,0.0,1.0,0.0,0.0,0.0,1.0,-8.28872556294,-0.555454785156,6.58405456543,1.0,0.0,0.0,0.0,1.0,0.0,0.0,0.0,1.0
1463930404927306001,544,1463930404919733325,,50.0372848511,-10.7496194839,6.89801168442,0.00121999997646,1.0,0.0,0.0,0.0,1.0,0.0,0.0,0.0,1.0,-1.70731711388,2.37804889679,-0.975609779358,1.0,0.0,0.0,0.0,1.0,0.0,0.0,0.0,1.0,-7.05810649414,-0.895431420898,7.18739338379,1.0,0.0,0.0,0.0,1.0,0.0,0.0,0.0,1.0
1463930404975056474,545,1463930404941015161,,50.0362701416,-10.7227649689,6.88446474075,0.00180900003761,1.0,0.0,0.0,0.0,1.0,0.0,0.0,0.0,1.0,1.34146344662,1.58536589146,-1.2804877758,1.0,0.0,0.0,0.0,1.0,0.0,0.0,0.0,1.0,-7.24485422363,-0.909796630859,6.87135876465,1.0,0.0,0.0,0.0,1.0,0.0,0.0,0.0,1.0
1463930404975103870,546,1463930404962090175,,49.9296455383,-10.7130613327,6.84598112106,0.00216399994679,1.0,0.0,0.0,0.0,1.0,0.0,0.0,0.0,1.0,1.2195122242,-0.304878056049,-2.62195134163,1.0,0.0,0.0,0.0,1.0,0.0,0.0,0.0,1.0,-6.87614716797,-1.10612116699,7.15387456055,1.0,0.0,0.0,0.0,1.0,0.0,0.0,0.0,1.0
1463930405020471801,547,1463930404983844562,,49.859085083,-10.7424564362,6.74984788895,0.00139400002081,1.0,0.0,0.0,0.0,1.0,0.0,0.0,0.0,1.0,1.40243899822,1.58536589146,-2.5,1.0,0.0,0.0,0.0,1.0,0.0,0.0,0.0,1.0,-7.44596716309,-1.36948334961,6.8138979248,1.0,0.0,0.0,0.0,1.0,0.0,0.0,0.0,1.0
1463930405022620490,548,1463930405006882119,,49.7983512878,-10.8173742294,6.64997386932,0.00137299997732,1.0,0.0,0.0,0.0,1.0,0.0,0.0,0.0,1.0,1.70731711388,1.58536589146,-1.09756100178,1.0,0.0,0.0,0.0,1.0,0.0,0.0,0.0,1.0,-7.18260498047,-1.47961662598,6.83305153809,1.0,0.0,0.0,0.0,1.0,0.0,0.0,0.0,1.0
1463930405048705691,549,1463930405034471637,,49.8392868042,-10.8415088654,6.67020988464,0.011045999825,1.0,0.0,0.0,0.0,1.0,0.0,0.0,0.0,1.0,-1.09756100178,3.10975623131,1.34146344662,1.0,0.0,0.0,0.0,1.0,0.0,0.0,0.0,1.0,-6.90487758789,-1.37906015625,6.62236179199,1.0,0.0,0.0,0.0,1.0,0.0,0.0,0.0,1.0
1463930405068998468,550,1463930405053689159,,49.850982666,-10.8209733963,6.71883392334,0.00174500001594,1.0,0.0,0.0,0.0,1.0,0.0,0.0,0.0,1.0,-1.8292683363,3.29268312454,1.76829278469,1.0,0.0,0.0,0.0,1.0,0.0,0.0,0.0,1.0,-7.15387456055,-1.07260241682,6.78516750488,1.0,0.0,0.0,0.0,1.0,0.0,0.0,0.0,1.0
1463930405094272996,551,1463930405075992657,,49.886390686,-10.7699165344,6.8093457222,0.00181100005284,1.0,0.0,0.0,0.0,1.0,0.0,0.0,0.0,1.0,-1.70731711388,3.10975623131,2.13414645195,1.0,0.0,0.0,0.0,1.0,0.0,0.0,0.0,1.0,-7.13472094727,-0.952892260742,7.05810649414,1.0,0.0,0.0,0.0,1.0,0.0,0.0,0.0,1.0
1463930405126852700,552,1463930405097856105,,49.9117355347,-10.7020702362,6.91052007675,0.00165700004436,1.0,0.0,0.0,0.0,1.0,0.0,0.0,0.0,1.0,-1.40243899822,2.5,1.2195122242,1.0,0.0,0.0,0.0,1.0,0.0,0.0,0.0,1.0,-7.30231506348,-0.905008227539,7.29752666016,1.0,0.0,0.0,0.0,1.0,0.0,0.0,0.0,1.0
1463930405126905981,553,1463930405118290914,,49.8826141357,-10.6772737503,6.94451236725,0.00146800000221,1.0,0.0,0.0,0.0,1.0,0.0,0.0,0.0,1.0,0.0609756112099,1.95121955872,0.18292683363,1.0,0.0,0.0,0.0,1.0,0.0,0.0,0.0,1.0,-7.00543405762,-0.900219824219,7.13472094727,1.0,0.0,0.0,0.0,1.0,0.0,0.0,0.0,1.0
1463930405140861338,554,1463930405139108794,,49.8412246704,-10.6415834427,6.96030092239,0.00120199995581,1.0,0.0,0.0,0.0,1.0,0.0,0.0,0.0,1.0,0.548780500889,2.25609779358,-1.09756100178,1.0,0.0,0.0,0.0,1.0,0.0,0.0,0.0,1.0,-7.05810649414,-1.10133276367,6.92881960449,1.0,0.0,0.0,0.0,1.0,0.0,0.0,0.0,1.0
1463930405196654225,555,1463930405177052538,,49.8264465332,-10.6419172287,6.91709709167,0.0192499998957,1.0,0.0,0.0,0.0,1.0,0.0,0.0,0.0,1.0,0.426829278469,0.12195122242,-0.975609779358,1.0,0.0,0.0,0.0,1.0,0.0,0.0,0.0,1.0,-7.24964262695,-1.01992990723,6.73249506836,1.0,0.0,0.0,0.0,1.0,0.0,0.0,0.0,1.0
1463930405203756590,556,1463930405197602033,,49.7918167114,-10.6423873901,6.89856529236,0.0017419999931,1.0,0.0,0.0,0.0,1.0,0.0,0.0,0.0,1.0,-0.304878056049,2.5,-0.243902444839,1.0,0.0,0.0,0.0,1.0,0.0,0.0,0.0,1.0,-7.0964137207,-1.03429511719,6.95755002441,1.0,0.0,0.0,0.0,1.0,0.0,0.0,0.0,1.0
1463930405236339263,557,1463930405218207726,,49.8215866089,-10.6558952332,6.90398979187,0.00207799999043,1.0,0.0,0.0,0.0,1.0,0.0,0.0,0.0,1.0,-0.548780500889,2.98780488968,0.731707334518,1.0,0.0,0.0,0.0,1.0,0.0,0.0,0.0,1.0,-7.37414111328,-1.05823706072,6.89530078125,1.0,0.0,0.0,0.0,1.0,0.0,0.0,0.0,1.0
1463930405242930537,558,1463930405239506594,,49.8079528809,-10.6407413483,6.9366440773,0.00184399995487,1.0,0.0,0.0,0.0,1.0,0.0,0.0,0.0,1.0,-1.2804877758,1.64634156227,0.914634168148,1.0,0.0,0.0,0.0,1.0,0.0,0.0,0.0,1.0,-7.01022246094,-1.22583125,6.90966599121,1.0,0.0,0.0,0.0,1.0,0.0,0.0,0.0,1.0
1463930405268062565,559,1463930405263336075,,49.8022918701,-10.6264257431,6.96473884583,0.00159600004554,1.0,0.0,0.0,0.0,1.0,0.0,0.0,0.0,1.0,-0.548780500889,3.23170733452,-0.18292683363,1.0,0.0,0.0,0.0,1.0,0.0,0.0,0.0,1.0,-7.11556733398,-0.972045874023,7.01022246094,1.0,0.0,0.0,0.0,1.0,0.0,0.0,0.0,1.0
1463930405300568207,560,1463930405286588944,,49.8096885681,-10.6368093491,6.94818687439,0.0113300001249,1.0,0.0,0.0,0.0,1.0,0.0,0.0,0.0,1.0,-0.12195122242,1.8292683363,-0.609756112099,1.0,0.0,0.0,0.0,1.0,0.0,0.0,0.0,1.0,-7.33583388672,-1.11090957031,6.85220515137,1.0,0.0,0.0,0.0,1.0,0.0,0.0,0.0,1.0
1463930405311258058,561,1463930405308513434,,49.812587738,-10.6331691742,6.93923568726,0.00126799999271,1.0,0.0,0.0,0.0,1.0,0.0,0.0,0.0,1.0,0.12195122242,1.40243899822,-0.243902444839,1.0,0.0,0.0,0.0,1.0,0.0,0.0,0.0,1.0,-7.26400783691,-1.10133276367,6.95276162109,1.0,0.0,0.0,0.0,1.0,0.0,0.0,0.0,1.0
1463930405331138285,562,1463930405328055538,,49.8012428284,-10.6405591965,6.92863512039,0.00131800002418,1.0,0.0,0.0,0.0,1.0,0.0,0.0,0.0,1.0,0.18292683363,1.58536589146,0.0,1.0,0.0,0.0,0.0,1.0,0.0,0.0,0.0,1.0,-7.10120212402,-1.19231249982,7.01022246094,1.0,0.0,0.0,0.0,1.0,0.0,0.0,0.0,1.0
1463930405491261767,563,1463930405352767932,,49.7638587952,-10.6626749039,6.90927505493,0.00637600012124,1.0,0.0,0.0,0.0,1.0,0.0,0.0,0.0,1.0,-0.243902444839,2.25609779358,0.0609756112099,1.0,0.0,0.0,0.0,1.0,0.0,0.0,0.0,1.0,-6.90966599121,-1.35990654297,7.13472094727,1.0,0.0,0.0,0.0,1.0,0.0,0.0,0.0,1.0
1463930405491303434,564,1463930405374606485,,49.7708358765,-10.6449337006,6.93347406387,0.00200200011022,1.0,0.0,0.0,0.0,1.0,0.0,0.0,0.0,1.0,-0.731707334518,3.10975623131,1.40243899822,1.0,0.0,0.0,0.0,1.0,0.0,0.0,0.0,1.0,-7.44117875977,-0.9193734375,6.9767036377,1.0,0.0,0.0,0.0,1.0,0.0,0.0,0.0,1.0
1463930405491342340,565,1463930405396794775,,49.7813796997,-10.5940027237,7.0009765625,0.00202200002968,1.0,0.0,0.0,0.0,1.0,0.0,0.0,0.0,1.0,-0.487804889679,1.58536589146,0.792682945728,1.0,0.0,0.0,0.0,1.0,0.0,0.0,0.0,1.0,-6.92881960449,-1.04866025408,6.90008918457,1.0,0.0,0.0,0.0,1.0,0.0,0.0,0.0,1.0
1463930405491380517,566,1463930405419965874,,49.7820549011,-10.537194252,7.06312799454,0.00252200011164,1.0,0.0,0.0,0.0,1.0,0.0,0.0,0.0,1.0,-1.34146344662,3.35365867615,0.365853667259,1.0,0.0,0.0,0.0,1.0,0.0,0.0,0.0,1.0,-7.02937607422,-0.684741674805,7.32625708008,1.0,0.0,0.0,0.0,1.0,0.0,0.0,0.0,1.0
1463930405491420933,567,1463930405439908028,,49.8220748901,-10.509519577,7.08829164505,0.00293600000441,1.0,0.0,0.0,0.0,1.0,0.0,0.0,0.0,1.0,-0.365853667259,1.70731711388,0.609756112099,1.0,0.0,0.0,0.0,1.0,0.0,0.0,0.0,1.0,-7.60877287598,-0.809240161133,6.90487758789,1.0,0.0,0.0,0.0,1.0,0.0,0.0,0.0,1.0
1463930405491461141,568,1463930405463575740,,49.7766723633,-10.5015945435,7.09291505814,0.00645300000906,1.0,0.0,0.0,0.0,1.0,0.0,0.0,0.0,1.0,-0.12195122242,1.46341466904,-0.792682945728,1.0,0.0,0.0,0.0,1.0,0.0,0.0,0.0,1.0,-6.60799658203,-1.15879360352,7.01501086426,1.0,0.0,0.0,0.0,1.0,0.0,0.0,0.0,1.0
1463930405681825796,569,1463930405483280916,,49.7636909485,-10.5319852829,7.04389381409,0.00199600006454,1.0,0.0,0.0,0.0,1.0,0.0,0.0,0.0,1.0,-0.365853667259,2.68292689323,-0.975609779358,1.0,0.0,0.0,0.0,1.0,0.0,0.0,0.0,1.0,-7.3071034668,-1.19231249982,6.72770666504,1.0,0.0,0.0,0.0,1.0,0.0,0.0,0.0,1.0
1463930405682100118,570,1463930405505234155,,49.7716064453,-10.5753622055,6.97711277008,0.00161200005095,1.0,0.0,0.0,0.0,1.0,0.0,0.0,0.0,1.0,0.670731723309,0.243902444839,-1.09756100178,1.0,0.0,0.0,0.0,1.0,0.0,0.0,0.0,1.0,-7.34541069336,-1.19710090314,6.92881960449,1.0,0.0,0.0,0.0,1.0,0.0,0.0,0.0,1.0
1463930405683308290,571,1463930405529074574,,49.7320518494,-10.5829639435,6.95689725876,0.00184399995487,1.0,0.0,0.0,0.0,1.0,0.0,0.0,0.0,1.0,0.18292683363,2.19512200356,0.0,1.0,0.0,0.0,0.0,1.0,0.0,0.0,0.0,1.0,-7.0245876709,-1.35032973633,6.82347473145,1.0,0.0,0.0,0.0,1.0,0.0,0.0,0.0,1.0
1463930405683714121,572,1463930405553749208,,49.7522888184,-10.612701416,6.94051361084,0.00661400007084,1.0,0.0,0.0,0.0,1.0,0.0,0.0,0.0,1.0,-1.03658533096,2.92682933807,0.731707334518,1.0,0.0,0.0,0.0,1.0,0.0,0.0,0.0,1.0,-7.50342800293,-1.2976572998,6.66545742187,1.0,0.0,0.0,0.0,1.0,0.0,0.0,0.0,1.0
1463930405684779117,573,1463930405574428391,,49.7607002258,-10.574256897,6.99702882767,0.00191899994388,1.0,0.0,0.0,0.0,1.0,0.0,0.0,0.0,1.0,-1.03658533096,1.58536589146,1.58536589146,1.0,0.0,0.0,0.0,1.0,0.0,0.0,0.0,1.0,-7.01022246094,-0.871489404297,7.0245876709,1.0,0.0,0.0,0.0,1.0,0.0,0.0,0.0,1.0
1463930405685131095,574,1463930405596580848,,49.7618179321,-10.5269832611,7.06928682327,0.00225199991837,1.0,0.0,0.0,0.0,1.0,0.0,0.0,0.0,1.0,-1.2804877758,3.23170733452,1.46341466904,1.0,0.0,0.0,0.0,1.0,0.0,0.0,0.0,1.0,-7.03895288086,-0.828393774414,6.94797321777,1.0,0.0,0.0,0.0,1.0,0.0,0.0,0.0,1.0
1463930405685444531,575,1463930405618154245,,49.7835655212,-10.4773693085,7.12756061554,0.0022839999292,1.0,0.0,0.0,0.0,1.0,0.0,0.0,0.0,1.0,-0.914634168148,2.37804889679,0.426829278469,1.0,0.0,0.0,0.0,1.0,0.0,0.0,0.0,1.0,-7.32146867676,-0.809240161133,7.18260498047,1.0,0.0,0.0,0.0,1.0,0.0,0.0,0.0,1.0
1463930405685869321,576,1463930405640167693,,49.7499732971,-10.4483747482,7.16027593613,0.00425900006667,1.0,0.0,0.0,0.0,1.0,0.0,0.0,0.0,1.0,-0.609756112099,1.8902438879,-0.18292683363,1.0,0.0,0.0,0.0,1.0,0.0,0.0,0.0,1.0,-6.87614716797,-0.957680664062,7.43639035645,1.0,0.0,0.0,0.0,1.0,0.0,0.0,0.0,1.0
1463930405686193121,577,1463930405662299161,,49.7363510132,-10.4256629944,7.16665267944,0.00216699996963,1.0,0.0,0.0,0.0,1.0,0.0,0.0,0.0,1.0,0.0609756112099,1.34146344662,-0.792682945728,1.0,0.0,0.0,0.0,1.0,0.0,0.0,0.0,1.0,-7.07726010742,-1.0534486574,7.11556733398,1.0,0.0,0.0,0.0,1.0,0.0,0.0,0.0,1.0
1463930405722484945,578,1463930405684241984,,49.7340660095,-10.4227685928,7.15185165405,0.00190000003204,1.0,0.0,0.0,0.0,1.0,0.0,0.0,0.0,1.0,0.0,0.487804889679,-0.670731723309,1.0,0.0,0.0,0.0,1.0,0.0,0.0,0.0,1.0,-6.9767036377,-1.00556469727,6.90008918457,1.0,0.0,0.0,0.0,1.0,0.0,0.0,0.0,1.0
1463930405722523643,579,1463930405705404758,,49.7095336914,-10.4569406509,7.11219263077,0.00188200001139,1.0,0.0,0.0,0.0,1.0,0.0,0.0,0.0,1.0,-0.426829278469,2.43902444839,-1.2195122242,1.0,0.0,0.0,0.0,1.0,0.0,0.0,0.0,1.0,-6.90487758789,-1.2497732666,7.10599052734,1.0,0.0,0.0,0.0,1.0,0.0,0.0,0.0,1.0
1463930405734763747,580,1463930405725238319,,49.7291908264,-10.4946584702,7.06900787354,0.00145700003486,1.0,0.0,0.0,0.0,1.0,0.0,0.0,0.0,1.0,0.0609756112099,2.13414645195,-0.243902444839,1.0,0.0,0.0,0.0,1.0,0.0,0.0,0.0,1.0,-7.62792648926,-1.20188930646,6.69897624512,1.0,0.0,0.0,0.0,1.0,0.0,0.0,0.0,1.0
1463930405759627807,581,1463930405748072700,,49.7391967773,-10.5091285706,7.0583615303,0.00185799994506,1.0,0.0,0.0,0.0,1.0,0.0,0.0,0.0,1.0,-0.426829278469,1.2195122242,0.12195122242,1.0,0.0,0.0,0.0,1.0,0.0,0.0,0.0,1.0,-7.05810649414,-1.23540805664,6.90008918457,1.0,0.0,0.0,0.0,1.0,0.0,0.0,0.0,1.0
1463930405800151540,582,1463930405769971096,,49.7085647583,-10.5289354324,7.0487537384,0.00291800010018,1.0,0.0,0.0,0.0,1.0,0.0,0.0,0.0,1.0,-0.426829278469,3.04878044128,0.0,1.0,0.0,0.0,0.0,1.0,0.0,0.0,0.0,1.0,-6.84262834473,-1.33117612305,7.0724717041,1.0,0.0,0.0,0.0,1.0,0.0,0.0,0.0,1.0
1463930405800213363,583,1463930405792199960,,49.7265853882,-10.5233335495,7.05646944046,0.00313899992034,1.0,0.0,0.0,0.0,1.0,0.0,0.0,0.0,1.0,-0.304878056049,2.19512200356,0.609756112099,1.0,0.0,0.0,0.0,1.0,0.0,0.0,0.0,1.0,-7.40765993652,-0.972045874023,7.0485296875,1.0,0.0,0.0,0.0,1.0,0.0,0.0,0.0,1.0
1463930405818457139,584,1463930405812665237,,49.7180213928,-10.4893074036,7.09693908691,0.00137700000778,1.0,0.0,0.0,0.0,1.0,0.0,0.0,0.0,1.0,-0.548780500889,1.2804877758,0.914634168148,1.0,0.0,0.0,0.0,1.0,0.0,0.0,0.0,1.0,-6.61757338867,-1.17794714373,7.22091220703,1.0,0.0,0.0,0.0,1.0,0.0,0.0,0.0,1.0
1463930405858427229,585,1463930405833914625,,49.705532074,-10.4493703842,7.13717556,0.00151700002607,1.0,0.0,0.0,0.0,1.0,0.0,0.0,0.0,1.0,-0.18292683363,1.52439022064,-0.304878056049,1.0,0.0,0.0,0.0,1.0,0.0,0.0,0.0,1.0,-6.99106884766,-0.679953271484,7.26879624023,1.0,0.0,0.0,0.0,1.0,0.0,0.0,0.0,1.0
1463930405858495249,586,1463930405854311725,,49.7425727844,-10.4032907486,7.17106819153,0.00206300010905,1.0,0.0,0.0,0.0,1.0,0.0,0.0,0.0,1.0,-0.487804889679,0.426829278469,0.12195122242,1.0,0.0,0.0,0.0,1.0,0.0,0.0,0.0,1.0,-7.67581052246,-0.660799658203,6.66545742187,1.0,0.0,0.0,0.0,1.0,0.0,0.0,0.0,1.0
1463930405893640672,587,1463930405875237209,,49.7171020508,-10.4063997269,7.16768169403,0.00151600001846,1.0,0.0,0.0,0.0,1.0,0.0,0.0,0.0,1.0,0.12195122242,0.548780500889,0.18292683363,1.0,0.0,0.0,0.0,1.0,0.0,0.0,0.0,1.0,-6.84262834473,-0.981622680664,7.23048901367,1.0,0.0,0.0,0.0,1.0,0.0,0.0,0.0,1.0
1463930405902531050,588,1463930405897937945,,49.6848144531,-10.4296741486,7.1523141861,0.00137099996209,1.0,0.0,0.0,0.0,1.0,0.0,0.0,0.0,1.0,-0.548780500889,2.19512200356,-0.0609756112099,1.0,0.0,0.0,0.0,1.0,0.0,0.0,0.0,1.0,-7.17302817383,-1.28808049316,7.20175859375,1.0,0.0,0.0,0.0,1.0,0.0,0.0,0.0,1.0
1463930405922923151,589,1463930405918553794,,49.6853218079,-10.4225215912,7.15854358673,0.0022539999336,1.0,0.0,0.0,0.0,1.0,0.0,0.0,0.0,1.0,-0.243902444839,2.43902444839,0.243902444839,1.0,0.0,0.0,0.0,1.0,0.0,0.0,0.0,1.0,-7.0724717041,-0.991199487305,7.00543405762,1.0,0.0,0.0,0.0,1.0,0.0,0.0,0.0,1.0
1463930405947892419,590,1463930405939320737,,49.6861457825,-10.4135217667,7.17168188095,0.00265599996783,1.0,0.0,0.0,0.0,1.0,0.0,0.0,0.0,1.0,-0.0609756112099,2.74390244484,0.548780500889,1.0,0.0,0.0,0.0,1.0,0.0,0.0,0.0,1.0,-7.20654699707,-1.08696755371,6.84262834473,1.0,0.0,0.0,0.0,1.0,0.0,0.0,0.0,1.0
1463930405968007958,591,1463930405960850072,,49.7293281555,-10.3948373795,7.19539451599,0.00318200001493,1.0,0.0,0.0,0.0,1.0,0.0,0.0,0.0,1.0,-0.792682945728,1.95121955872,0.304878056049,1.0,0.0,0.0,0.0,1.0,0.0,0.0,0.0,1.0,-7.3071034668,-1.00077629395,6.7660138916,1.0,0.0,0.0,0.0,1.0,0.0,0.0,0.0,1.0
1463930406051200779,592,1463930405981543681,,49.7117462158,-10.3624296188,7.23041439056,0.00139099999797,1.0,0.0,0.0,0.0,1.0,0.0,0.0,0.0,1.0,-0.731707334518,1.95121955872,0.243902444839,1.0,0.0,0.0,0.0,1.0,0.0,0.0,0.0,1.0,-6.94318481445,-0.900219824219,7.18739338379,1.0,0.0,0.0,0.0,1.0,0.0,0.0,0.0,1.0
1463930406051693798,593,1463930406003587702,,49.6962013245,-10.3511304855,7.24787712097,0.00198499998078,1.0,0.0,0.0,0.0,1.0,0.0,0.0,0.0,1.0,-0.731707334518,2.56097555161,-0.609756112099,1.0,0.0,0.0,0.0,1.0,0.0,0.0,0.0,1.0,-7.0964137207,-1.20667770978,7.15866296387,1.0,0.0,0.0,0.0,1.0,0.0,0.0,0.0,1.0
1463930406051953537,594,1463930406024752247,,49.6823959351,-10.3583488464,7.23122358322,0.00156799994875,1.0,0.0,0.0,0.0,1.0,0.0,0.0,0.0,1.0,-0.0609756112099,1.95121955872,-0.304878056049,1.0,0.0,0.0,0.0,1.0,0.0,0.0,0.0,1.0,-7.30231506348,-1.03429511719,7.06289489746,1.0,0.0,0.0,0.0,1.0,0.0,0.0,0.0,1.0
1463930406052221244,595,1463930406045848667,,49.6749038696,-10.3593063354,7.22804689407,0.00151099998038,1.0,0.0,0.0,0.0,1.0,0.0,0.0,0.0,1.0,-0.18292683363,1.8292683363,-0.365853667259,1.0,0.0,0.0,0.0,1.0,0.0,0.0,0.0,1.0,-7.11556733398,-1.11090957031,7.00543405762,1.0,0.0,0.0,0.0,1.0,0.0,0.0,0.0,1.0
1463930406133259179,596,1463930406069305077,,49.6711616516,-10.3670053482,7.21567392349,0.00217300001532,1.0,0.0,0.0,0.0,1.0,0.0,0.0,0.0,1.0,-0.426829278469,2.68292689323,-0.304878056049,1.0,0.0,0.0,0.0,1.0,0.0,0.0,0.0,1.0,-7.15387456055,-1.13963999023,6.96712683105,1.0,0.0,0.0,0.0,1.0,0.0,0.0,0.0,1.0
1463930406133602979,597,1463930406090008530,,49.7023048401,-10.362865448,7.22007274628,0.00247499998659,1.0,0.0,0.0,0.0,1.0,0.0,0.0,0.0,1.0,-0.12195122242,2.13414645195,0.243902444839,1.0,0.0,0.0,0.0,1.0,0.0,0.0,0.0,1.0,-7.3789295166,-1.08217922346,6.83783994141,1.0,0.0,0.0,0.0,1.0,0.0,0.0,0.0,1.0
1463930406135278337,598,1463930406110387037,,49.6830482483,-10.3510065079,7.23907470703,0.002787000034,1.0,0.0,0.0,0.0,1.0,0.0,0.0,0.0,1.0,-0.731707334518,1.95121955872,-0.0609756112099,1.0,0.0,0.0,0.0,1.0,0.0,0.0,0.0,1.0,-6.82826313477,-1.2497732666,7.05810649414,1.0,0.0,0.0,0.0,1.0,0.0,0.0,0.0,1.0
1463930406222994889,599,1463930406131024917,,49.6843185425,-10.3643054962,7.22738552094,0.00190399994608,1.0,0.0,0.0,0.0,1.0,0.0,0.0,0.0,1.0,-0.670731723309,2.98780488968,-0.365853667259,1.0,0.0,0.0,0.0,1.0,0.0,0.0,0.0,1.0,-7.24006582031,-1.06302561017,6.83305153809,1.0,0.0,0.0,0.0,1.0,0.0,0.0,0.0,1.0
1463930406223033378,600,1463930406152867949,,49.697933197,-10.3762969971,7.22059679031,0.00180199998431,1.0,0.0,0.0,0.0,1.0,0.0,0.0,0.0,1.0,-0.18292683363,1.95121955872,0.0,1.0,0.0,0.0,0.0,1.0,0.0,0.0,0.0,1.0,-7.31189187012,-1.24019645996,7.0245876709,1.0,0.0,0.0,0.0,1.0,0.0,0.0,0.0,1.0
1463930406223071711,601,1463930406174937282,,49.69556427,-10.3604850769,7.24082708359,0.00189399998635,1.0,0.0,0.0,0.0,1.0,0.0,0.0,0.0,1.0,-0.0609756112099,1.64634156227,0.731707334518,1.0,0.0,0.0,0.0,1.0,0.0,0.0,0.0,1.0,-7.20175859375,-1.00077629395,6.9767036377,1.0,0.0,0.0,0.0,1.0,0.0,0.0,0.0,1.0
1463930406223111711,602,1463930406201004566,,49.6688079834,-10.3420057297,7.25732564926,0.00894599966705,1.0,0.0,0.0,0.0,1.0,0.0,0.0,0.0,1.0,-0.487804889679,2.5,-0.0609756112099,1.0,0.0,0.0,0.0,1.0,0.0,0.0,0.0,1.0,-7.0724717041,-0.928950244141,7.20654699707,1.0,0.0,0.0,0.0,1.0,0.0,0.0,0.0,1.0
1463930406247360410,603,1463930406220967554,,49.6638069153,-10.345375061,7.26170539856,0.0028389999643,1.0,0.0,0.0,0.0,1.0,0.0,0.0,0.0,1.0,-0.792682945728,2.01219511032,0.18292683363,1.0,0.0,0.0,0.0,1.0,0.0,0.0,0.0,1.0,-7.13472094727,-1.07260241682,7.01979926758,1.0,0.0,0.0,0.0,1.0,0.0,0.0,0.0,1.0
1463930406247419576,604,1463930406243002355,,49.6692504883,-10.3233785629,7.28551483154,0.00178799999412,1.0,0.0,0.0,0.0,1.0,0.0,0.0,0.0,1.0,-0.670731723309,2.31707310677,0.243902444839,1.0,0.0,0.0,0.0,1.0,0.0,0.0,0.0,1.0,-7.14908615723,-1.03908344744,6.88093557129,1.0,0.0,0.0,0.0,1.0,0.0,0.0,0.0,1.0
1463930406323793312,605,1463930406264311587,,49.6771240234,-10.3091831207,7.30072021484,0.00136999995448,1.0,0.0,0.0,0.0,1.0,0.0,0.0,0.0,1.0,-0.365853667259,1.95121955872,-0.243902444839,1.0,0.0,0.0,0.0,1.0,0.0,0.0,0.0,1.0,-7.17302817383,-0.967257470703,7.00543405762,1.0,0.0,0.0,0.0,1.0,0.0,0.0,0.0,1.0
1463930406332581347,606,1463930406286039463,,49.6674690247,-10.3314971924,7.27969121933,0.00158000004012,1.0,0.0,0.0,0.0,1.0,0.0,0.0,0.0,1.0,-0.487804889679,1.34146344662,-0.487804889679,1.0,0.0,0.0,0.0,1.0,0.0,0.0,0.0,1.0,-7.17302817383,-1.25935007324,7.0006456543,1.0,0.0,0.0,0.0,1.0,0.0,0.0,0.0,1.0
1463930406332651764,607,1463930406306644531,,49.6483192444,-10.3364944458,7.27112150192,0.00174700003117,1.0,0.0,0.0,0.0,1.0,0.0,0.0,0.0,1.0,0.0,1.58536589146,-0.12195122242,1.0,0.0,0.0,0.0,1.0,0.0,0.0,0.0,1.0,-7.0964137207,-1.25935007324,7.0724717041,1.0,0.0,0.0,0.0,1.0,0.0,0.0,0.0,1.0
1463930406380940724,608,1463930406328640218,,49.631401062,-10.3598814011,7.25442409515,0.00174099998549,1.0,0.0,0.0,0.0,1.0,0.0,0.0,0.0,1.0,-0.0609756112099,2.31707310677,0.365853667259,1.0,0.0,0.0,0.0,1.0,0.0,0.0,0.0,1.0,-7.05810649414,-1.19710090314,6.91924279785,1.0,0.0,0.0,0.0,1.0,0.0,0.0,0.0,1.0
1463930406381216191,609,1463930406349557785,,49.6415786743,-10.3571023941,7.25965309143,0.00283299991861,1.0,0.0,0.0,0.0,1.0,0.0,0.0,0.0,1.0,-0.426829278469,2.5,0.426829278469,1.0,0.0,0.0,0.0,1.0,0.0,0.0,0.0,1.0,-7.27837304687,-0.986411083984,6.94797321777,1.0,0.0,0.0,0.0,1.0,0.0,0.0,0.0,1.0
1463930406416263750,610,1463930406370223895,,49.6418952942,-10.326965332,7.2935256958,0.00351700000465,1.0,0.0,0.0,0.0,1.0,0.0,0.0,0.0,1.0,-0.487804889679,1.70731711388,1.34146344662,1.0,0.0,0.0,0.0,1.0,0.0,0.0,0.0,1.0,-6.03817658691,-0.857124194336,7.15387456055,1.0,0.0,0.0,0.0,1.0,0.0,0.0,0.0,1.0
1463930406416714113,611,1463930406392071874,,49.6317176819,-10.2879085541,7.34030199051,0.00340800010599,1.0,0.0,0.0,0.0,1.0,0.0,0.0,0.0,1.0,-0.792682945728,5.12195110321,-0.18292683363,1.0,0.0,0.0,0.0,1.0,0.0,0.0,0.0,1.0,-6.43082565918,-0.794874951172,7.10599052734,1.0,0.0,0.0,0.0,1.0,0.0,0.0,0.0,1.0
1463930406469840656,612,1463930406413655167,,49.7223701477,-10.2848873138,7.34833478928,0.00158999999985,1.0,0.0,0.0,0.0,1.0,0.0,0.0,0.0,1.0,-0.975609779358,5.06097555161,0.426829278469,1.0,0.0,0.0,0.0,1.0,0.0,0.0,0.0,1.0,-7.35977590332,-1.01514150391,7.16823977051,1.0,0.0,0.0,0.0,1.0,0.0,0.0,0.0,1.0
1463930406469880500,613,1463930406435812521,,49.8277893066,-10.2814054489,7.3387761116,0.00174400000833,1.0,0.0,0.0,0.0,1.0,0.0,0.0,0.0,1.0,-0.243902444839,5.24390268326,-0.18292683363,1.0,0.0,0.0,0.0,1.0,0.0,0.0,0.0,1.0,-7.55131203613,-0.77093293457,6.94318481445,1.0,0.0,0.0,0.0,1.0,0.0,0.0,0.0,1.0
1463930406469960083,614,1463930406458984557,,49.8736953735,-10.293545723,7.31035089493,0.0026610000059,1.0,0.0,0.0,0.0,1.0,0.0,0.0,0.0,1.0,0.0609756112099,3.35365867615,-0.914634168148,1.0,0.0,0.0,0.0,1.0,0.0,0.0,0.0,1.0,-7.31668027344,-1.04866025408,6.93360800781,1.0,0.0,0.0,0.0,1.0,0.0,0.0,0.0,1.0
1463930406528693686,615,1463930406480310195,,49.901424408,-10.3229408264,7.266040802,0.00210199994035,1.0,0.0,0.0,0.0,1.0,0.0,0.0,0.0,1.0,0.365853667259,1.2195122242,-0.975609779358,1.0,0.0,0.0,0.0,1.0,0.0,0.0,0.0,1.0,-7.41723674316,-1.26892687988,6.78516750488,1.0,0.0,0.0,0.0,1.0,0.0,0.0,0.0,1.0
1463930406529021914,616,1463930406501908748,,49.8695678711,-10.3641443253,7.2174539566,0.00125600001775,1.0,0.0,0.0,0.0,1.0,0.0,0.0,0.0,1.0,0.0,1.09756100178,-0.18292683363,1.0,0.0,0.0,0.0,1.0,0.0,0.0,0.0,1.0,-6.98149204102,-1.27850368652,6.80432111816,1.0,0.0,0.0,0.0,1.0,0.0,0.0,0.0,1.0
1463930407173946656,617,1463930406523360844,,49.855091095,-10.3830137253,7.20239543915,0.00174099998549,1.0,0.0,0.0,0.0,1.0,0.0,0.0,0.0,1.0,-0.0609756112099,2.01219511032,0.0,1.0,0.0,0.0,0.0,1.0,0.0,0.0,0.0,1.0,-7.07726010742,-1.20667770978,6.89051237793,1.0,0.0,0.0,0.0,1.0,0.0,0.0,0.0,1.0
1463930407174232280,618,1463930406545209188,,49.8513641357,-10.3992099762,7.19872283936,0.00219899998046,1.0,0.0,0.0,0.0,1.0,0.0,0.0,0.0,1.0,-0.914634168148,2.5,0.914634168148,1.0,0.0,0.0,0.0,1.0,0.0,0.0,0.0,1.0,-7.06768330078,-1.1875240965,6.92881960449,1.0,0.0,0.0,0.0,1.0,0.0,0.0,0.0,1.0
1463930407174539623,619,1463930406567282427,,49.874835968,-10.3769512177,7.24238204956,0.00168800004758,1.0,0.0,0.0,0.0,1.0,0.0,0.0,0.0,1.0,-1.15853655338,2.25609779358,1.09756100178,1.0,0.0,0.0,0.0,1.0,0.0,0.0,0.0,1.0,-7.20175859375,-0.995987890625,6.80432111816,1.0,0.0,0.0,0.0,1.0,0.0,0.0,0.0,1.0
1463930407174820090,620,1463930406590273318,,49.8760948181,-10.3117570877,7.32099294662,0.00224200007506,1.0,0.0,0.0,0.0,1.0,0.0,0.0,0.0,1.0,-0.914634168148,3.10975623131,1.03658533096,1.0,0.0,0.0,0.0,1.0,0.0,0.0,0.0,1.0,-7.0245876709,-0.957680664062,6.87614716797,1.0,0.0,0.0,0.0,1.0,0.0,0.0,0.0,1.0
1463930407175070974,621,1463930406610481097,,49.8884735107,-10.2930288315,7.3480463028,0.002979000099,1.0,0.0,0.0,0.0,1.0,0.0,0.0,0.0,1.0,-0.365853667259,2.86585378647,-0.243902444839,1.0,0.0,0.0,0.0,1.0,0.0,0.0,0.0,1.0,-7.20654699707,-1.13006318359,7.08683691406,1.0,0.0,0.0,0.0,1.0,0.0,0.0,0.0,1.0
1463930407175359463,622,1463930406631991369,,49.8799133301,-10.2803077698,7.34862661362,0.00270100007765,1.0,0.0,0.0,0.0,1.0,0.0,0.0,0.0,1.0,-0.12195122242,1.15853655338,-0.548780500889,1.0,0.0,0.0,0.0,1.0,0.0,0.0,0.0,1.0,-7.24006582031,-1.00077629395,6.93360800781,1.0,0.0,0.0,0.0,1.0,0.0,0.0,0.0,1.0
1463930407175727847,623,1463930406653085654,,49.8508834839,-10.2809562683,7.3421330452,0.00165700004436,1.0,0.0,0.0,0.0,1.0,0.0,0.0,0.0,1.0,-0.18292683363,2.5,-0.18292683363,1.0,0.0,0.0,0.0,1.0,0.0,0.0,0.0,1.0,-7.08204851074,-1.13963999023,7.05810649414,1.0,0.0,0.0,0.0,1.0,0.0,0.0,0.0,1.0
1463930407176038783,624,1463930406674744207,,49.8489456177,-10.2960186005,7.32775497437,0.001615999965,1.0,0.0,0.0,0.0,1.0,0.0,0.0,0.0,1.0,-0.304878056049,2.13414645195,0.0609756112099,1.0,0.0,0.0,0.0,1.0,0.0,0.0,0.0,1.0,-7.26400783691,-1.00077629395,6.94318481445,1.0,0.0,0.0,0.0,1.0,0.0,0.0,0.0,1.0
1463930407176316698,625,1463930406698367544,,49.8541145325,-10.3160982132,7.30966615677,0.00177600001916,1.0,0.0,0.0,0.0,1.0,0.0,0.0,0.0,1.0,-0.609756112099,2.13414645195,0.304878056049,1.0,0.0,0.0,0.0,1.0,0.0,0.0,0.0,1.0,-7.25921943359,-0.995987890625,6.64151540527,1.0,0.0,0.0,0.0,1.0,0.0,0.0,0.0,1.0
