%time,field.header.seq,field.header.stamp,field.header.frame_id,field.orientation.x,field.orientation.y,field.orientation.z,field.orientation.w,field.orientation_covariance0,field.orientation_covariance1,field.orientation_covariance2,field.orientation_covariance3,field.orientation_covariance4,field.orientation_covariance5,field.orientation_covariance6,field.orientation_covariance7,field.orientation_covariance8,field.angular_velocity.x,field.angular_velocity.y,field.angular_velocity.z,field.angular_velocity_covariance0,field.angular_velocity_covariance1,field.angular_velocity_covariance2,field.angular_velocity_covariance3,field.angular_velocity_covariance4,field.angular_velocity_covariance5,field.angular_velocity_covariance6,field.angular_velocity_covariance7,field.angular_velocity_covariance8,field.linear_acceleration.x,field.linear_acceleration.y,field.linear_acceleration.z,field.linear_acceleration_covariance0,field.linear_acceleration_covariance1,field.linear_acceleration_covariance2,field.linear_acceleration_covariance3,field.linear_acceleration_covariance4,field.linear_acceleration_covariance5,field.linear_acceleration_covariance6,field.linear_acceleration_covariance7,field.linear_acceleration_covariance8
1463845546782392972,242,1463845546779994128,,6.10860586166,-19.5217514038,-90.6923294067,0.0204009991139,1.0,0.0,0.0,0.0,1.0,0.0,0.0,0.0,1.0,13.9634151459,83.2317123413,-44.3292694092,1.0,0.0,0.0,0.0,1.0,0.0,0.0,0.0,1.0,-1.58974990234,-1.08217922346,9.65821008159,1.0,0.0,0.0,0.0,1.0,0.0,0.0,0.0,1.0
1463845546802224369,243,1463845546800410393,,7.03989028931,-19.1103649139,-91.84740448,0.0204099994153,1.0,0.0,0.0,0.0,1.0,0.0,0.0,0.0,1.0,13.7804880142,56.5853691101,-41.0975646973,1.0,0.0,0.0,0.0,1.0,0.0,0.0,0.0,1.0,-1.92014973145,-0.962469067383,9.49061596538,1.0,0.0,0.0,0.0,1.0,0.0,0.0,0.0,1.0
1463845546822937234,244,1463845546821148674,,7.43881130219,-18.7071094513,-92.7540206909,0.0204210001975,1.0,0.0,0.0,0.0,1.0,0.0,0.0,0.0,1.0,11.4634151459,30.6707305908,-37.8048782349,1.0,0.0,0.0,0.0,1.0,0.0,0.0,0.0,1.0,-1.4844050293,-0.703895288086,9.20809958496,1.0,0.0,0.0,0.0,1.0,0.0,0.0,0.0,1.0
1463845546843428548,245,1463845546841627956,,7.55890226364,-18.3106174469,-93.3839645386,0.0204620007426,1.0,0.0,0.0,0.0,1.0,0.0,0.0,0.0,1.0,7.74390268326,15.4878053665,-29.1463413239,1.0,0.0,0.0,0.0,1.0,0.0,0.0,0.0,1.0,-1.10612116699,-0.335188232422,8.9112185791,1.0,0.0,0.0,0.0,1.0,0.0,0.0,0.0,1.0
1463845546864086259,246,1463845546861941362,,7.52820968628,-17.9994735718,-93.7822723389,0.0203389991075,1.0,0.0,0.0,0.0,1.0,0.0,0.0,0.0,1.0,3.59756112099,4.51219558716,-20.975610733,1.0,0.0,0.0,0.0,1.0,0.0,0.0,0.0,1.0,-1.21146604004,-0.512359155273,9.15542714844,1.0,0.0,0.0,0.0,1.0,0.0,0.0,0.0,1.0
1463845546903032994,247,1463845546896839592,,7.26604270935,-17.7578907013,-93.9463119507,0.0204019993544,1.0,0.0,0.0,0.0,1.0,0.0,0.0,0.0,1.0,1.8902438879,-5.06097555161,-11.5853662491,1.0,0.0,0.0,0.0,1.0,0.0,0.0,0.0,1.0,-0.397437475586,-1.11090957031,9.8305920166,1.0,0.0,0.0,0.0,1.0,0.0,0.0,0.0,1.0
1463845546907291124,248,1463845546904429698,,7.01930856705,-17.4781322479,-94.0488204956,0.0213629994541,1.0,0.0,0.0,0.0,1.0,0.0,0.0,0.0,1.0,2.25609779358,-7.07317113876,-8.84146404266,1.0,0.0,0.0,0.0,1.0,0.0,0.0,0.0,1.0,-0.76614453125,-0.991199487305,9.89762966309,1.0,0.0,0.0,0.0,1.0,0.0,0.0,0.0,1.0
1463845546930230758,249,1463845546926237563,,6.76588964462,-17.210609436,-94.0547943115,0.0196700002998,1.0,0.0,0.0,0.0,1.0,0.0,0.0,0.0,1.0,1.40243899822,-8.90243911743,-4.75609779358,1.0,0.0,0.0,0.0,1.0,0.0,0.0,0.0,1.0,-0.569819995117,-0.799663354492,9.88805285645,1.0,0.0,0.0,0.0,1.0,0.0,0.0,0.0,1.0
1463845546945962559,250,1463845546943775007,,6.51284742355,-16.9717350006,-94.0128097534,0.0204009991139,1.0,0.0,0.0,0.0,1.0,0.0,0.0,0.0,1.0,0.609756112099,-8.04878044128,-1.76829278469,1.0,0.0,0.0,0.0,1.0,0.0,0.0,0.0,1.0,-0.330399829102,-1.04387185076,10.2423947021,1.0,0.0,0.0,0.0,1.0,0.0,0.0,0.0,1.0
1463845546966351325,251,1463845546964155232,,6.35230588913,-16.7264213562,-93.9536056519,0.0202300008386,1.0,0.0,0.0,0.0,1.0,0.0,0.0,0.0,1.0,1.40243899822,-6.82926845551,-0.365853667259,1.0,0.0,0.0,0.0,1.0,0.0,0.0,0.0,1.0,-0.833182177734,-1.10612116699,10.4530844482,1.0,0.0,0.0,0.0,1.0,0.0,0.0,0.0,1.0
1463845546995529828,252,1463845546984800549,,6.20371246338,-16.4534912109,-93.873085022,0.0204019993544,1.0,0.0,0.0,0.0,1.0,0.0,0.0,0.0,1.0,1.34146344662,-6.21951246262,0.792682945728,1.0,0.0,0.0,0.0,1.0,0.0,0.0,0.0,1.0,-0.746990917969,-0.828393774414,10.419565625,1.0,0.0,0.0,0.0,1.0,0.0,0.0,0.0,1.0
1463845547014387469,253,1463845547005045624,,6.07559585571,-16.2285671234,-93.7334518433,0.0203990004957,1.0,0.0,0.0,0.0,1.0,0.0,0.0,0.0,1.0,0.243902444839,-7.43902492523,3.65853667259,1.0,0.0,0.0,0.0,1.0,0.0,0.0,0.0,1.0,-0.967257470703,-1.0534486574,10.2471831055,1.0,0.0,0.0,0.0,1.0,0.0,0.0,0.0,1.0
1463845547030109270,254,1463845547025549592,,5.92465925217,-15.9890947342,-93.5493240356,0.0204559992999,1.0,0.0,0.0,0.0,1.0,0.0,0.0,0.0,1.0,1.40243899822,-9.45121955872,5.42682933807,1.0,0.0,0.0,0.0,1.0,0.0,0.0,0.0,1.0,-1.03429511719,-1.16358193377,10.4482960449,1.0,0.0,0.0,0.0,1.0,0.0,0.0,0.0,1.0
1463845547224811218,255,1463845547046042936,,5.75681257248,-15.705283165,-93.3446884155,0.0203600004315,1.0,0.0,0.0,0.0,1.0,0.0,0.0,0.0,1.0,2.98780488968,-9.63414573669,6.46341466904,1.0,0.0,0.0,0.0,1.0,0.0,0.0,0.0,1.0,-0.852335791016,-1.04387185076,10.7499654541,1.0,0.0,0.0,0.0,1.0,0.0,0.0,0.0,1.0
1463845547227186469,256,1463845547066134424,,5.62572860718,-15.4103755951,-93.1212005615,0.0204249992967,1.0,0.0,0.0,0.0,1.0,0.0,0.0,0.0,1.0,2.86585378647,-9.45121955872,7.43902492523,1.0,0.0,0.0,0.0,1.0,0.0,0.0,0.0,1.0,-1.09175595703,-0.876277807617,10.7451770508,1.0,0.0,0.0,0.0,1.0,0.0,0.0,0.0,1.0
1463845547227796544,257,1463845547086392050,,5.49247741699,-15.1100053787,-92.8862304688,0.0203930009156,1.0,0.0,0.0,0.0,1.0,0.0,0.0,0.0,1.0,3.84146332741,-7.92682981491,8.59756088257,1.0,0.0,0.0,0.0,1.0,0.0,0.0,0.0,1.0,-0.718260498047,-0.967257470703,10.7499654541,1.0,0.0,0.0,0.0,1.0,0.0,0.0,0.0,1.0
1463845547228130278,258,1463845547107071531,,5.44482421875,-14.7866821289,-92.6072463989,0.0204440001398,1.0,0.0,0.0,0.0,1.0,0.0,0.0,0.0,1.0,3.7804877758,-4.75609779358,11.5853662491,1.0,0.0,0.0,0.0,1.0,0.0,0.0,0.0,1.0,-0.76135612793,-0.713472094727,10.6254669678,1.0,0.0,0.0,0.0,1.0,0.0,0.0,0.0,1.0
1463845547228432035,259,1463845547127448995,,5.45718240738,-14.4405879974,-92.3101119995,0.0203959997743,1.0,0.0,0.0,0.0,1.0,0.0,0.0,0.0,1.0,5.30487823486,-1.15853655338,13.5365858078,1.0,0.0,0.0,0.0,1.0,0.0,0.0,0.0,1.0,-0.550666381836,-0.713472094727,10.2136642822,1.0,0.0,0.0,0.0,1.0,0.0,0.0,0.0,1.0
1463845547228733739,260,1463845547147785992,,5.56610202789,-14.0693302155,-92.0140838623,0.0204910002649,1.0,0.0,0.0,0.0,1.0,0.0,0.0,0.0,1.0,5.97560977936,3.90243911743,14.6341466904,1.0,0.0,0.0,0.0,1.0,0.0,0.0,0.0,1.0,-0.46447512207,-0.541089611728,9.84495722656,1.0,0.0,0.0,0.0,1.0,0.0,0.0,0.0,1.0
1463845547229045547,261,1463845547168427245,,5.67203998566,-13.7163553238,-91.8143463135,0.0204119998962,1.0,0.0,0.0,0.0,1.0,0.0,0.0,0.0,1.0,6.28048801422,6.64634132385,10.548781395,1.0,0.0,0.0,0.0,1.0,0.0,0.0,0.0,1.0,-0.186747729492,-0.60812722168,9.91678327637,1.0,0.0,0.0,0.0,1.0,0.0,0.0,0.0,1.0
1463845547229341939,262,1463845547188607687,,5.82932472229,-13.3538532257,-91.7056427002,0.0202980004251,1.0,0.0,0.0,0.0,1.0,0.0,0.0,0.0,1.0,6.95121955872,9.45121955872,6.58536624908,1.0,0.0,0.0,0.0,1.0,0.0,0.0,0.0,1.0,-0.354341845703,-0.497993945312,10.0939541992,1.0,0.0,0.0,0.0,1.0,0.0,0.0,0.0,1.0
1463845547229632498,263,1463845547209039315,,6.00118923187,-13.0047264099,-91.6521606445,0.0205479990691,1.0,0.0,0.0,0.0,1.0,0.0,0.0,0.0,1.0,5.54878091812,11.0365858078,3.96341490746,1.0,0.0,0.0,0.0,1.0,0.0,0.0,0.0,1.0,-0.320823022461,-0.282515795898,9.97903251953,1.0,0.0,0.0,0.0,1.0,0.0,0.0,0.0,1.0
1463845547366819850,264,1463845547229313034,,6.09039974213,-12.7357206345,-91.6201171875,0.020270999521,1.0,0.0,0.0,0.0,1.0,0.0,0.0,0.0,1.0,2.13414645195,8.47560977936,2.25609779358,1.0,0.0,0.0,0.0,1.0,0.0,0.0,0.0,1.0,-0.162805712891,-0.263362164351,10.1274730225,1.0,0.0,0.0,0.0,1.0,0.0,0.0,0.0,1.0
1463845547367173219,265,1463845547249715289,,6.16149282455,-12.5625734329,-91.6196136475,0.0204249992967,1.0,0.0,0.0,0.0,1.0,0.0,0.0,0.0,1.0,-1.8292683363,7.31707334518,0.426829278469,1.0,0.0,0.0,0.0,1.0,0.0,0.0,0.0,1.0,-0.296881024126,-0.344765039063,10.3333743652,1.0,0.0,0.0,0.0,1.0,0.0,0.0,0.0,1.0
1463845547367501068,266,1463845547270298368,,6.11546611786,-12.4564399719,-91.6508560181,0.0204240009189,1.0,0.0,0.0,0.0,1.0,0.0,0.0,0.0,1.0,-4.63414621353,3.17073178291,-2.07317066193,1.0,0.0,0.0,0.0,1.0,0.0,0.0,0.0,1.0,-0.100556469727,-0.373495458984,10.3764699951,1.0,0.0,0.0,0.0,1.0,0.0,0.0,0.0,1.0
1463845547367792148,267,1463845547290783900,,6.05119132996,-12.4297533035,-91.7206192017,0.020386999473,1.0,0.0,0.0,0.0,1.0,0.0,0.0,0.0,1.0,-7.92682981491,0.914634168148,-4.45121955872,1.0,0.0,0.0,0.0,1.0,0.0,0.0,0.0,1.0,-0.416591088867,-0.416591088867,10.1322614258,1.0,0.0,0.0,0.0,1.0,0.0,0.0,0.0,1.0
1463845547368102706,268,1463845547311426403,,5.86431789398,-12.455573082,-91.785949707,0.020408000797,1.0,0.0,0.0,0.0,1.0,0.0,0.0,0.0,1.0,-10.1219511032,-3.65853667259,-5.18292713165,1.0,0.0,0.0,0.0,1.0,0.0,0.0,0.0,1.0,-0.15801730957,-0.488417138672,10.1322614258,1.0,0.0,0.0,0.0,1.0,0.0,0.0,0.0,1.0
1463845547368374099,269,1463845547331943131,,5.65055465698,-12.507771492,-91.8268661499,0.0204029995948,1.0,0.0,0.0,0.0,1.0,0.0,0.0,0.0,1.0,-11.5243911743,-3.23170733452,-3.84146332741,1.0,0.0,0.0,0.0,1.0,0.0,0.0,0.0,1.0,0.239420166016,-0.497993945312,10.1418382324,1.0,0.0,0.0,0.0,1.0,0.0,0.0,0.0,1.0
1463845547368665022,270,1463845547352477358,,5.51346302032,-12.5801496506,-91.8874053955,0.0204160008579,1.0,0.0,0.0,0.0,1.0,0.0,0.0,0.0,1.0,-12.8658542633,-0.975609779358,-4.32926845551,1.0,0.0,0.0,0.0,1.0,0.0,0.0,0.0,1.0,-0.0239420166016,-0.440533105469,10.4243540283,1.0,0.0,0.0,0.0,1.0,0.0,0.0,0.0,1.0
1463845547621323316,271,1463845547372940027,,5.40480852127,-12.6718845367,-91.9665756226,0.0203879997134,1.0,0.0,0.0,0.0,1.0,0.0,0.0,0.0,1.0,-12.5,0.365853667259,-4.81707286835,1.0,0.0,0.0,0.0,1.0,0.0,0.0,0.0,1.0,-0.0383072265625,-0.689530078125,10.4626612549,1.0,0.0,0.0,0.0,1.0,0.0,0.0,0.0,1.0
1463845547621360346,272,1463845547393068284,,5.32727718353,-12.7387447357,-92.0423736572,0.0204360000789,1.0,0.0,0.0,0.0,1.0,0.0,0.0,0.0,1.0,-10.7317075729,2.5,-4.08536577225,1.0,0.0,0.0,0.0,1.0,0.0,0.0,0.0,1.0,0.110133276367,-0.814028564453,10.4818148682,1.0,0.0,0.0,0.0,1.0,0.0,0.0,0.0,1.0
1463845547621394250,273,1463845547413739900,,5.33622932434,-12.7828779221,-92.1052093506,0.0205210000277,1.0,0.0,0.0,0.0,1.0,0.0,0.0,0.0,1.0,-8.04878044128,6.09756088257,-2.43902444839,1.0,0.0,0.0,0.0,1.0,0.0,0.0,0.0,1.0,0.0526724365234,-1.13006318359,10.4530844482,1.0,0.0,0.0,0.0,1.0,0.0,0.0,0.0,1.0
1463845547621463361,274,1463845547433542600,,5.41654872894,-12.7331571579,-92.1661453247,0.0203409995884,1.0,0.0,0.0,0.0,1.0,0.0,0.0,0.0,1.0,-4.32926845551,8.04878044128,-2.01219511032,1.0,0.0,0.0,0.0,1.0,0.0,0.0,0.0,1.0,-0.229843359375,-0.976834277344,10.4913916748,1.0,0.0,0.0,0.0,1.0,0.0,0.0,0.0,1.0
1463845547621502526,275,1463845547454211977,,5.48907327652,-12.615644455,-92.210723877,0.0204070005566,1.0,0.0,0.0,0.0,1.0,0.0,0.0,0.0,1.0,-0.975609779358,7.13414621353,-1.40243899822,1.0,0.0,0.0,0.0,1.0,0.0,0.0,0.0,1.0,-0.3064578125,-0.972045874023,10.3237975586,1.0,0.0,0.0,0.0,1.0,0.0,0.0,0.0,1.0
1463845547621537681,276,1463845547474977860,,5.57132387161,-12.40711689,-92.2150726318,0.0203419998288,1.0,0.0,0.0,0.0,1.0,0.0,0.0,0.0,1.0,2.01219511032,6.52439069748,0.304878056049,1.0,0.0,0.0,0.0,1.0,0.0,0.0,0.0,1.0,-0.435744702148,-0.689530078125,10.1178962158,1.0,0.0,0.0,0.0,1.0,0.0,0.0,0.0,1.0
1463845547621584710,277,1463845547494735614,,5.65037488937,-12.1554632187,-92.1837005615,0.0204429998994,1.0,0.0,0.0,0.0,1.0,0.0,0.0,0.0,1.0,4.93902444839,4.2682929039,1.64634156227,1.0,0.0,0.0,0.0,1.0,0.0,0.0,0.0,1.0,-0.718260498047,-0.785298144531,9.4954043687,1.0,0.0,0.0,0.0,1.0,0.0,0.0,0.0,1.0
1463845547621625593,278,1463845547515075996,,5.6426448822,-11.8345870972,-92.1260757446,0.0203750003129,1.0,0.0,0.0,0.0,1.0,0.0,0.0,0.0,1.0,8.23170757294,0.0,2.01219511032,1.0,0.0,0.0,0.0,1.0,0.0,0.0,0.0,1.0,-0.679953271484,-0.713472094727,9.13627353516,1.0,0.0,0.0,0.0,1.0,0.0,0.0,0.0,1.0
1463845547621660487,279,1463845547535815474,,5.59985017776,-11.5291919708,-92.0611343384,0.0204029995948,1.0,0.0,0.0,0.0,1.0,0.0,0.0,0.0,1.0,10.4268293381,-0.853658556938,2.5,1.0,0.0,0.0,0.0,1.0,0.0,0.0,0.0,1.0,-0.550666381836,-1.20667770978,9.52413478862,1.0,0.0,0.0,0.0,1.0,0.0,0.0,0.0,1.0
1463845547621697413,280,1463845547556054976,,5.52363538742,-11.1282253265,-91.9872283936,0.0204199999571,1.0,0.0,0.0,0.0,1.0,0.0,0.0,0.0,1.0,14.2073173523,-3.53658556938,2.31707310677,1.0,0.0,0.0,0.0,1.0,0.0,0.0,0.0,1.0,-0.727837304687,-1.01992990723,9.64384487163,1.0,0.0,0.0,0.0,1.0,0.0,0.0,0.0,1.0
1463845547621731838,281,1463845547576489052,,5.38069343567,-10.6791191101,-91.9248657227,0.0204489994794,1.0,0.0,0.0,0.0,1.0,0.0,0.0,0.0,1.0,14.3902444839,-7.74390268326,0.731707334518,1.0,0.0,0.0,0.0,1.0,0.0,0.0,0.0,1.0,-0.9193734375,-0.569819995117,9.71088193359,1.0,0.0,0.0,0.0,1.0,0.0,0.0,0.0,1.0
1463845547621767774,282,1463845547596787040,,5.16132307053,-10.288643837,-91.8461074829,0.0203770007938,1.0,0.0,0.0,0.0,1.0,0.0,0.0,0.0,1.0,12.1341466904,-9.32926845551,1.40243899822,1.0,0.0,0.0,0.0,1.0,0.0,0.0,0.0,1.0,-0.517147558594,-0.632069238281,10.1370498291,1.0,0.0,0.0,0.0,1.0,0.0,0.0,0.0,1.0
1463845547672962203,283,1463845547617334392,,5.01298999786,-9.84220981598,-91.8544616699,0.0204039998353,1.0,0.0,0.0,0.0,1.0,0.0,0.0,0.0,1.0,0.670731723309,-3.10975623131,-3.04878044128,1.0,0.0,0.0,0.0,1.0,0.0,0.0,0.0,1.0,-0.105344873047,2.55221896973,11.8321446045,1.0,0.0,0.0,0.0,1.0,0.0,0.0,0.0,1.0
1463845547673314582,284,1463845547637792842,,4.95193481445,-9.70539093018,-91.8500747681,0.0204060003161,1.0,0.0,0.0,0.0,1.0,0.0,0.0,0.0,1.0,-4.02439022064,-3.35365867615,-1.46341466904,1.0,0.0,0.0,0.0,1.0,0.0,0.0,0.0,1.0,-0.952892260742,0.277727392578,11.0420580566,1.0,0.0,0.0,0.0,1.0,0.0,0.0,0.0,1.0
1463845547673678263,285,1463845547658254989,,4.91318655014,-9.79071331024,-91.9440155029,0.0203930009156,1.0,0.0,0.0,0.0,1.0,0.0,0.0,0.0,1.0,-10.4268293381,-0.670731723309,-5.48780488968,1.0,0.0,0.0,0.0,1.0,0.0,0.0,0.0,1.0,-0.804451757813,-0.521935925381,11.3485158691,1.0,0.0,0.0,0.0,1.0,0.0,0.0,0.0,1.0
1463845547762781454,286,1463845547678680836,,4.85562610626,-9.83635807037,-91.965461731,0.0205339994282,1.0,0.0,0.0,0.0,1.0,0.0,0.0,0.0,1.0,-8.90243911743,-3.04878044128,-2.31707310677,1.0,0.0,0.0,0.0,1.0,0.0,0.0,0.0,1.0,-0.991199487305,-0.517147558594,11.4969563721,1.0,0.0,0.0,0.0,1.0,0.0,0.0,0.0,1.0
1463845547763067325,287,1463845547698772741,,4.76053571701,-9.86850357056,-91.9592895508,0.0202840007842,1.0,0.0,0.0,0.0,1.0,0.0,0.0,0.0,1.0,-10.4268293381,-4.2682929039,-1.34146344662,1.0,0.0,0.0,0.0,1.0,0.0,0.0,0.0,1.0,-0.794874951172,-0.105344873047,11.4251303223,1.0,0.0,0.0,0.0,1.0,0.0,0.0,0.0,1.0
1463845547763344135,288,1463845547719408838,,4.68792200089,-9.90811729431,-91.8746643066,0.020483000204,1.0,0.0,0.0,0.0,1.0,0.0,0.0,0.0,1.0,-12.6219520569,-3.71951246262,2.5,1.0,0.0,0.0,0.0,1.0,0.0,0.0,0.0,1.0,-0.723048901367,0.191536132812,10.8744639404,1.0,0.0,0.0,0.0,1.0,0.0,0.0,0.0,1.0
1463845547763633913,289,1463845547739743231,,4.72676181793,-9.94761180878,-91.6987915039,0.0203879997134,1.0,0.0,0.0,0.0,1.0,0.0,0.0,0.0,1.0,-16.2195110321,0.0609756112099,7.43902492523,1.0,0.0,0.0,0.0,1.0,0.0,0.0,0.0,1.0,-0.857124194336,0.814028564453,10.7308118408,1.0,0.0,0.0,0.0,1.0,0.0,0.0,0.0,1.0
1463845547764119410,290,1463845547760302822,,4.79882335663,-10.0801544189,-91.4637145996,0.0203530006111,1.0,0.0,0.0,0.0,1.0,0.0,0.0,0.0,1.0,-20.1829280853,1.2804877758,10.6707315445,1.0,0.0,0.0,0.0,1.0,0.0,0.0,0.0,1.0,-0.847547387695,0.641646044922,10.8265799072,1.0,0.0,0.0,0.0,1.0,0.0,0.0,0.0,1.0
1463845547800545014,291,1463845547780731481,,4.91814136505,-10.2136287689,-91.1346435547,0.0204310007393,1.0,0.0,0.0,0.0,1.0,0.0,0.0,0.0,1.0,-19.5731716156,1.70731711388,15.4268302917,1.0,0.0,0.0,0.0,1.0,0.0,0.0,0.0,1.0,-1.04866025408,0.411802685547,10.7164466309,1.0,0.0,0.0,0.0,1.0,0.0,0.0,0.0,1.0
1463845547813226283,292,1463845547801625587,,5.02557611465,-10.2676105499,-90.7371444702,0.0204130001366,1.0,0.0,0.0,0.0,1.0,0.0,0.0,0.0,1.0,-15.975610733,1.8902438879,18.841463089,1.0,0.0,0.0,0.0,1.0,0.0,0.0,0.0,1.0,-0.799663354492,0.373495458984,10.6302553711,1.0,0.0,0.0,0.0,1.0,0.0,0.0,0.0,1.0
1463845547835661513,293,1463845547821552031,,5.14554929733,-10.2041406631,-90.2708206177,0.0205290000886,1.0,0.0,0.0,0.0,1.0,0.0,0.0,0.0,1.0,-10.2439022064,1.64634156227,22.0731716156,1.0,0.0,0.0,0.0,1.0,0.0,0.0,0.0,1.0,-0.847547387695,0.296881024126,10.3908352051,1.0,0.0,0.0,0.0,1.0,0.0,0.0,0.0,1.0
1463845547844156472,294,1463845547842287447,,5.21106386185,-10.0128040314,-89.7732772827,0.0203189998865,1.0,0.0,0.0,0.0,1.0,0.0,0.0,0.0,1.0,-2.86585378647,-0.243902444839,23.5975627899,1.0,0.0,0.0,0.0,1.0,0.0,0.0,0.0,1.0,-0.684741674805,0.0718260498047,10.2759135254,1.0,0.0,0.0,0.0,1.0,0.0,0.0,0.0,1.0
1463845547868726340,295,1463845547862495856,,5.26086997986,-9.66662597656,-89.2575683594,0.0203489996493,1.0,0.0,0.0,0.0,1.0,0.0,0.0,0.0,1.0,4.51219558716,-1.09756100178,24.2682933807,1.0,0.0,0.0,0.0,1.0,0.0,0.0,0.0,1.0,-0.708683691406,0.129286889648,10.299855542,1.0,0.0,0.0,0.0,1.0,0.0,0.0,0.0,1.0
1463845547884466421,296,1463845547882543076,,5.27649688721,-9.20657730103,-88.7169265747,0.0203920006752,1.0,0.0,0.0,0.0,1.0,0.0,0.0,0.0,1.0,9.69512176514,-1.2804877758,25.3658542633,1.0,0.0,0.0,0.0,1.0,0.0,0.0,0.0,1.0,-0.450109912109,0.239420166016,10.4961800781,1.0,0.0,0.0,0.0,1.0,0.0,0.0,0.0,1.0
1463845547904785763,297,1463845547903047929,,5.30058336258,-8.68508148193,-88.1711578369,0.0204559992999,1.0,0.0,0.0,0.0,1.0,0.0,0.0,0.0,1.0,13.9634151459,-2.13414645195,25.4878044128,1.0,0.0,0.0,0.0,1.0,0.0,0.0,0.0,1.0,-0.742202514648,0.0718260498047,10.7164466309,1.0,0.0,0.0,0.0,1.0,0.0,0.0,0.0,1.0
1463845547941196888,298,1463845547923471797,,5.26163625717,-8.0929851532,-87.6751708984,0.0203859992325,1.0,0.0,0.0,0.0,1.0,0.0,0.0,0.0,1.0,17.1951217651,-3.84146332741,22.8048782349,1.0,0.0,0.0,0.0,1.0,0.0,0.0,0.0,1.0,-0.579396801758,0.263362164351,10.3237975586,1.0,0.0,0.0,0.0,1.0,0.0,0.0,0.0,1.0
1463845547947581479,299,1463845547944058782,,5.1956448555,-7.45297431946,-87.2765274048,0.0204440001398,1.0,0.0,0.0,0.0,1.0,0.0,0.0,0.0,1.0,18.841463089,-4.75609779358,17.7439022064,1.0,0.0,0.0,0.0,1.0,0.0,0.0,0.0,1.0,-0.636857641602,0.550666381836,9.8784760498,1.0,0.0,0.0,0.0,1.0,0.0,0.0,0.0,1.0
1463845547970966716,300,1463845547964880600,,5.10149097443,-6.82161998749,-86.9617614746,0.0208379998803,1.0,0.0,0.0,0.0,1.0,0.0,0.0,0.0,1.0,17.317073822,-4.32926845551,13.3536586761,1.0,0.0,0.0,0.0,1.0,0.0,0.0,0.0,1.0,-0.440533105469,0.804451757813,9.57680722515,1.0,0.0,0.0,0.0,1.0,0.0,0.0,0.0,1.0
1463845547999497853,301,1463845547985020055,,5.05026006699,-6.32589483261,-86.6941986084,0.0200110003352,1.0,0.0,0.0,0.0,1.0,0.0,0.0,0.0,1.0,13.3536586761,0.18292683363,12.3170728683,1.0,0.0,0.0,0.0,1.0,0.0,0.0,0.0,1.0,-0.0430956298828,0.660799658203,9.50019277202,1.0,0.0,0.0,0.0,1.0,0.0,0.0,0.0,1.0
1463845548006881979,302,1463845548004988476,,5.15478420258,-6.01189136505,-86.4691314697,0.0203540008515,1.0,0.0,0.0,0.0,1.0,0.0,0.0,0.0,1.0,9.5731716156,4.93902444839,10.9756097794,1.0,0.0,0.0,0.0,1.0,0.0,0.0,0.0,1.0,-0.593762048251,-0.172382519531,9.64863327495,1.0,0.0,0.0,0.0,1.0,0.0,0.0,0.0,1.0
1463845548027491358,303,1463845548025559159,,5.3166680336,-5.79583740234,-86.3090209961,0.0204249992967,1.0,0.0,0.0,0.0,1.0,0.0,0.0,0.0,1.0,12.4390249252,8.04878044128,8.71951198578,1.0,0.0,0.0,0.0,1.0,0.0,0.0,0.0,1.0,-0.641646044922,-1.4604630127,10.0221281494,1.0,0.0,0.0,0.0,1.0,0.0,0.0,0.0,1.0
1463845548047775701,304,1463845548045778973,,5.48246479034,-5.55196332932,-86.2897720337,0.0204969998449,1.0,0.0,0.0,0.0,1.0,0.0,0.0,0.0,1.0,20.0609760284,7.31707334518,2.25609779358,1.0,0.0,0.0,0.0,1.0,0.0,0.0,0.0,1.0,-0.962469067383,-2.48039291992,10.0364933594,1.0,0.0,0.0,0.0,1.0,0.0,0.0,0.0,1.0
1463845548069220561,305,1463845548066490639,,5.61755180359,-5.16416215897,-86.4868164062,0.0202740002424,1.0,0.0,0.0,0.0,1.0,0.0,0.0,0.0,1.0,32.5,4.81707286835,-8.23170757294,1.0,0.0,0.0,0.0,1.0,0.0,0.0,0.0,1.0,-1.2497732666,-2.94486804199,9.04529387207,1.0,0.0,0.0,0.0,1.0,0.0,0.0,0.0,1.0
1463845548089632866,306,1463845548086988096,,5.63079595566,-4.58696937561,-86.8917999268,0.020447999239,1.0,0.0,0.0,0.0,1.0,0.0,0.0,0.0,1.0,41.6463432312,-0.487804889679,-18.841463089,1.0,0.0,0.0,0.0,1.0,0.0,0.0,0.0,1.0,-1.27850368652,-2.69587106934,9.01656345215,1.0,0.0,0.0,0.0,1.0,0.0,0.0,0.0,1.0
1463845548112000182,307,1463845548107338321,,5.58734083176,-3.86532449722,-87.3824539185,0.0205090008676,1.0,0.0,0.0,0.0,1.0,0.0,0.0,0.0,1.0,50.3048820496,-1.58536589146,-22.8658542633,1.0,0.0,0.0,0.0,1.0,0.0,0.0,0.0,1.0,-1.07739082014,-3.00232888184,9.60074924175,1.0,0.0,0.0,0.0,1.0,0.0,0.0,0.0,1.0
1463845548157053392,308,1463845548127429236,,5.55271577835,-3.03388094902,-87.7831039429,0.0202859994024,1.0,0.0,0.0,0.0,1.0,0.0,0.0,0.0,1.0,56.0975608826,0.975609779358,-18.475610733,1.0,0.0,0.0,0.0,1.0,0.0,0.0,0.0,1.0,-0.584185168546,-2.94965644531,9.63905646831,1.0,0.0,0.0,0.0,1.0,0.0,0.0,0.0,1.0
1463845548157605345,309,1463845548147702589,,5.55100297928,-2.03684997559,-88.015953064,0.0203970000148,1.0,0.0,0.0,0.0,1.0,0.0,0.0,0.0,1.0,60.7926826477,9.45121955872,-10.0,1.0,0.0,0.0,0.0,1.0,0.0,0.0,0.0,1.0,0.77093293457,-2.4277204834,9.95987890625,1.0,0.0,0.0,0.0,1.0,0.0,0.0,0.0,1.0
1463845548184029550,310,1463845548168349363,,5.85604810715,-1.06882154942,-88.0013961792,0.0204600002617,1.0,0.0,0.0,0.0,1.0,0.0,0.0,0.0,1.0,53.5365867615,12.1951217651,1.40243899822,1.0,0.0,0.0,0.0,1.0,0.0,0.0,0.0,1.0,-1.29286889648,-1.34554133301,9.45230756977,1.0,0.0,0.0,0.0,1.0,0.0,0.0,0.0,1.0
1463845548192587474,311,1463845548188884474,,5.97819566727,-0.326928198338,-87.8461074829,0.0203709993511,1.0,0.0,0.0,0.0,1.0,0.0,0.0,0.0,1.0,41.4024391174,5.54878091812,7.98780536652,1.0,0.0,0.0,0.0,1.0,0.0,0.0,0.0,1.0,-1.06302561017,-1.22583125,10.6494089844,1.0,0.0,0.0,0.0,1.0,0.0,0.0,0.0,1.0
1463845548212981760,312,1463845548209272718,,5.99028348923,0.212717190385,-87.5578994751,0.0204029995948,1.0,0.0,0.0,0.0,1.0,0.0,0.0,0.0,1.0,29.5121974945,3.7804877758,14.2682924271,1.0,0.0,0.0,0.0,1.0,0.0,0.0,0.0,1.0,-0.416591088867,-0.857124194336,10.7739074707,1.0,0.0,0.0,0.0,1.0,0.0,0.0,0.0,1.0
1463845548245246207,313,1463845548229466492,,5.97906827927,0.457658708096,-87.1927337646,0.0204150006175,1.0,0.0,0.0,0.0,1.0,0.0,0.0,0.0,1.0,17.6829280853,1.46341466904,18.2926826477,1.0,0.0,0.0,0.0,1.0,0.0,0.0,0.0,1.0,-0.651222851562,-1.31681091309,10.5680061279,1.0,0.0,0.0,0.0,1.0,0.0,0.0,0.0,1.0
1463845548262924632,314,1463845548249822602,,5.98561000824,0.50575697422,-86.7814712524,0.0204119998962,1.0,0.0,0.0,0.0,1.0,0.0,0.0,0.0,1.0,4.69512224197,3.23170733452,20.1829280853,1.0,0.0,0.0,0.0,1.0,0.0,0.0,0.0,1.0,-0.502782348633,-0.689530078125,10.7212350342,1.0,0.0,0.0,0.0,1.0,0.0,0.0,0.0,1.0
1463845548273893222,315,1463845548270222148,,6.07001018524,0.290329992771,-86.3801345825,0.0203840006143,1.0,0.0,0.0,0.0,1.0,0.0,0.0,0.0,1.0,-10.0,6.52439069748,19.5121955872,1.0,0.0,0.0,0.0,1.0,0.0,0.0,0.0,1.0,-0.627280834961,-0.354341845703,11.2240173828,1.0,0.0,0.0,0.0,1.0,0.0,0.0,0.0,1.0
1463845548333318662,316,1463845548291113180,,6.26002645493,-0.241329163313,-86.0546569824,0.0204300004989,1.0,0.0,0.0,0.0,1.0,0.0,0.0,0.0,1.0,-22.5,11.4024391174,16.0975608826,1.0,0.0,0.0,0.0,1.0,0.0,0.0,0.0,1.0,-0.679953271484,-0.928950244141,11.3293622559,1.0,0.0,0.0,0.0,1.0,0.0,0.0,0.0,1.0
1463845548333787963,317,1463845548311677614,,6.41738891602,-0.933490872383,-85.8421936035,0.0204230006784,1.0,0.0,0.0,0.0,1.0,0.0,0.0,0.0,1.0,-30.975610733,10.2439022064,10.6097564697,1.0,0.0,0.0,0.0,1.0,0.0,0.0,0.0,1.0,-0.593762048251,-0.780509741211,11.0707884766,1.0,0.0,0.0,0.0,1.0,0.0,0.0,0.0,1.0
1463845548333840044,318,1463845548332138875,,6.58795022964,-1.78672409058,-85.7479553223,0.0203980002552,1.0,0.0,0.0,0.0,1.0,0.0,0.0,0.0,1.0,-41.7682952881,9.93902492523,4.63414621353,1.0,0.0,0.0,0.0,1.0,0.0,0.0,0.0,1.0,-0.794874951172,-0.225054956055,10.8122146973,1.0,0.0,0.0,0.0,1.0,0.0,0.0,0.0,1.0
1463845548534568623,319,1463845548353391869,,6.72693824768,-2.87237930298,-85.8325576782,0.0204029995948,1.0,0.0,0.0,0.0,1.0,0.0,0.0,0.0,1.0,-50.365852356,8.90243911743,-3.71951246262,1.0,0.0,0.0,0.0,1.0,0.0,0.0,0.0,1.0,-0.77093293457,-0.723048901367,10.6781394043,1.0,0.0,0.0,0.0,1.0,0.0,0.0,0.0,1.0
1463845548534618360,320,1463845548372731153,,6.77251815796,-4.05811309814,-86.0642318726,0.0205220002681,1.0,0.0,0.0,0.0,1.0,0.0,0.0,0.0,1.0,-54.0243911743,3.71951246262,-10.9146347046,1.0,0.0,0.0,0.0,1.0,0.0,0.0,0.0,1.0,-0.962469067383,-0.900219824219,10.2088758789,1.0,0.0,0.0,0.0,1.0,0.0,0.0,0.0,1.0
1463845548534927460,321,1463845548392903313,,6.74266195297,-5.21023416519,-86.4457931519,0.0202929992229,1.0,0.0,0.0,0.0,1.0,0.0,0.0,0.0,1.0,-55.0609779358,-2.74390244484,-19.1463432312,1.0,0.0,0.0,0.0,1.0,0.0,0.0,0.0,1.0,-1.49398183594,-0.526724328702,9.32302068013,1.0,0.0,0.0,0.0,1.0,0.0,0.0,0.0,1.0
1463845548535214530,322,1463845548413774815,,6.43210363388,-6.41767120361,-86.8918228149,0.0204099994153,1.0,0.0,0.0,0.0,1.0,0.0,0.0,0.0,1.0,-56.1585388184,-10.4268293381,-22.9878044128,1.0,0.0,0.0,0.0,1.0,0.0,0.0,0.0,1.0,-0.636857641602,-0.938527050781,9.89762966309,1.0,0.0,0.0,0.0,1.0,0.0,0.0,0.0,1.0
1463845548535502797,323,1463845548433807243,,6.17830276489,-7.58915948868,-87.3069992065,0.0204460006207,1.0,0.0,0.0,0.0,1.0,0.0,0.0,0.0,1.0,-49.7560997009,-3.65853667259,-20.3658542633,1.0,0.0,0.0,0.0,1.0,0.0,0.0,0.0,1.0,0.0957680664062,-2.18830031738,10.7260234375,1.0,0.0,0.0,0.0,1.0,0.0,0.0,0.0,1.0
1463845548535808407,324,1463845548454356729,,6.03125524521,-8.52805900574,-87.6735687256,0.020428000018,1.0,0.0,0.0,0.0,1.0,0.0,0.0,0.0,1.0,-41.7073173523,0.853658556938,-17.8048782349,1.0,0.0,0.0,0.0,1.0,0.0,0.0,0.0,1.0,-0.00478840332031,-1.89620771484,11.1138841064,1.0,0.0,0.0,0.0,1.0,0.0,0.0,0.0,1.0
1463845548537905807,325,1463845548474243382,,6.00252771378,-9.33303070068,-87.9284057617,0.0203859992325,1.0,0.0,0.0,0.0,1.0,0.0,0.0,0.0,1.0,-38.5975608826,5.30487823486,-11.9512195587,1.0,0.0,0.0,0.0,1.0,0.0,0.0,0.0,1.0,-0.129286889648,-1.57059628906,11.4490723389,1.0,0.0,0.0,0.0,1.0,0.0,0.0,0.0,1.0
1463845548538322454,326,1463845548494786723,,6.24101495743,-10.1501579285,-87.9900588989,0.0203840006143,1.0,0.0,0.0,0.0,1.0,0.0,0.0,0.0,1.0,-36.0975646973,10.1829271317,-1.03658533096,1.0,0.0,0.0,0.0,1.0,0.0,0.0,0.0,1.0,-1.1875240965,-2.04943662109,9.01656345215,1.0,0.0,0.0,0.0,1.0,0.0,0.0,0.0,1.0
1463845548616608086,327,1463845548515485942,,6.26316308975,-10.7972698212,-88.0715026855,0.0204099994153,1.0,0.0,0.0,0.0,1.0,0.0,0.0,0.0,1.0,-33.5365867615,3.84146332741,-3.71951246262,1.0,0.0,0.0,0.0,1.0,0.0,0.0,0.0,1.0,-0.646434448242,-1.33117612305,10.0317049561,1.0,0.0,0.0,0.0,1.0,0.0,0.0,0.0,1.0
1463845548616685686,328,1463845548535600032,,6.21000242233,-11.3073959351,-88.1419219971,0.0204009991139,1.0,0.0,0.0,0.0,1.0,0.0,0.0,0.0,1.0,-27.1341457367,3.23170733452,-3.29268312454,1.0,0.0,0.0,0.0,1.0,0.0,0.0,0.0,1.0,-0.0861912597656,-1.37427175293,9.82101520996,1.0,0.0,0.0,0.0,1.0,0.0,0.0,0.0,1.0
1463845548618246601,329,1463845548556303053,,6.22378396988,-11.6824970245,-88.1868057251,0.0204099994153,1.0,0.0,0.0,0.0,1.0,0.0,0.0,0.0,1.0,-20.8536586761,9.26829242706,-0.792682945728,1.0,0.0,0.0,0.0,1.0,0.0,0.0,0.0,1.0,0.46447512207,-1.40300217285,9.66778688823,1.0,0.0,0.0,0.0,1.0,0.0,0.0,0.0,1.0
1463845548618554764,330,1463845548576732180,,6.39811849594,-11.9470834732,-88.2507095337,0.0204169992357,1.0,0.0,0.0,0.0,1.0,0.0,0.0,0.0,1.0,-16.4634151459,13.4756097794,-0.914634168148,1.0,0.0,0.0,0.0,1.0,0.0,0.0,0.0,1.0,-0.191536132812,-1.24498486328,9.48582756206,1.0,0.0,0.0,0.0,1.0,0.0,0.0,0.0,1.0
1463845548618848239,331,1463845548597075582,,6.52367925644,-12.1762104034,-88.348274231,0.0203910004348,1.0,0.0,0.0,0.0,1.0,0.0,0.0,0.0,1.0,-11.9512195587,13.4146347046,-2.25609779358,1.0,0.0,0.0,0.0,1.0,0.0,0.0,0.0,1.0,0.124498486328,-1.78607443848,9.74440075684,1.0,0.0,0.0,0.0,1.0,0.0,0.0,0.0,1.0
1463845548674214029,332,1463845548617207016,,6.6736497879,-12.2817220688,-88.4574432373,0.0203920006752,1.0,0.0,0.0,0.0,1.0,0.0,0.0,0.0,1.0,-6.89024400711,12.8048782349,-3.04878044128,1.0,0.0,0.0,0.0,1.0,0.0,0.0,0.0,1.0,-0.239420166016,-1.60890351563,9.60074924175,1.0,0.0,0.0,0.0,1.0,0.0,0.0,0.0,1.0
1463845548674738952,333,1463845548637513961,,6.76481676102,-12.2917013168,-88.5269165039,0.0204039998353,1.0,0.0,0.0,0.0,1.0,0.0,0.0,0.0,1.0,-7.31707334518,11.7073173523,-1.8902438879,1.0,0.0,0.0,0.0,1.0,0.0,0.0,0.0,1.0,0.100556469727,-0.790086547852,9.79707319336,1.0,0.0,0.0,0.0,1.0,0.0,0.0,0.0,1.0
1463845548675113101,334,1463845548657982253,,6.87107849121,-12.3682479858,-88.513458252,0.0204089991748,1.0,0.0,0.0,0.0,1.0,0.0,0.0,0.0,1.0,-13.9634151459,10.9756097794,1.70731711388,1.0,0.0,0.0,0.0,1.0,0.0,0.0,0.0,1.0,-0.0239420166016,-0.268150604204,9.48103915874,1.0,0.0,0.0,0.0,1.0,0.0,0.0,0.0,1.0
1463845548747484120,335,1463845548678596007,,6.96003770828,-12.5900650024,-88.4192276001,0.0204930007458,1.0,0.0,0.0,0.0,1.0,0.0,0.0,0.0,1.0,-25.182926178,8.47560977936,4.69512224197,1.0,0.0,0.0,0.0,1.0,0.0,0.0,0.0,1.0,-0.172382519531,0.330399829102,8.96867941895,1.0,0.0,0.0,0.0,1.0,0.0,0.0,0.0,1.0
1463845548747999876,336,1463845548698903005,,6.9415512085,-13.0639743805,-88.3301010132,0.0203150007874,1.0,0.0,0.0,0.0,1.0,0.0,0.0,0.0,1.0,-35.9756088257,2.19512200356,3.29268312454,1.0,0.0,0.0,0.0,1.0,0.0,0.0,0.0,1.0,-0.378283862305,0.0191536132812,8.97346782227,1.0,0.0,0.0,0.0,1.0,0.0,0.0,0.0,1.0
1463845548748299966,337,1463845548719571444,,6.76037502289,-13.7445936203,-88.2441711426,0.0205129999667,1.0,0.0,0.0,0.0,1.0,0.0,0.0,0.0,1.0,-42.7439041138,-3.7804877758,2.07317066193,1.0,0.0,0.0,0.0,1.0,0.0,0.0,0.0,1.0,-0.0957680664062,-0.588973571866,9.57201882183,1.0,0.0,0.0,0.0,1.0,0.0,0.0,0.0,1.0
1463845548748735466,338,1463845548739887816,,6.54853630066,-14.4968290329,-88.1164169312,0.0203210003674,1.0,0.0,0.0,0.0,1.0,0.0,0.0,0.0,1.0,-45.1219520569,-3.10975623131,4.57317066193,1.0,0.0,0.0,0.0,1.0,0.0,0.0,0.0,1.0,0.450109912109,-1.06302561017,10.1897222656,1.0,0.0,0.0,0.0,1.0,0.0,0.0,0.0,1.0
1463845548831232720,339,1463845548759844675,,6.40827226639,-15.2757472992,-87.9630203247,0.0204000007361,1.0,0.0,0.0,0.0,1.0,0.0,0.0,0.0,1.0,-47.8048782349,-3.23170733452,5.67073154449,1.0,0.0,0.0,0.0,1.0,0.0,0.0,0.0,1.0,-0.114921679688,-0.967257470703,10.4482960449,1.0,0.0,0.0,0.0,1.0,0.0,0.0,0.0,1.0
1463845548831714259,340,1463845548780699198,,6.25290298462,-16.0793056488,-87.8175506592,0.0204050000757,1.0,0.0,0.0,0.0,1.0,0.0,0.0,0.0,1.0,-46.8292694092,-3.35365867615,5.48780488968,1.0,0.0,0.0,0.0,1.0,0.0,0.0,0.0,1.0,0.0287304199219,-1.59453830566,11.0085392334,1.0,0.0,0.0,0.0,1.0,0.0,0.0,0.0,1.0
1463845548834475169,341,1463845548801251289,,6.14504241943,-16.8184680939,-87.6831665039,0.0205789990723,1.0,0.0,0.0,0.0,1.0,0.0,0.0,0.0,1.0,-43.7195129395,-1.34146344662,5.42682933807,1.0,0.0,0.0,0.0,1.0,0.0,0.0,0.0,1.0,-0.0143652099609,-1.58974990234,10.5009684814,1.0,0.0,0.0,0.0,1.0,0.0,0.0,0.0,1.0
1463845548835837083,342,1463845548821172836,,6.06125593185,-17.517616272,-87.5824737549,0.0202339999378,1.0,0.0,0.0,0.0,1.0,0.0,0.0,0.0,1.0,-40.2439041138,0.914634168148,4.75609779358,1.0,0.0,0.0,0.0,1.0,0.0,0.0,0.0,1.0,0.167594116211,-1.98718737793,9.92157167969,1.0,0.0,0.0,0.0,1.0,0.0,0.0,0.0,1.0
1463845548945284193,343,1463845548841851691,,5.97112560272,-18.0801563263,-87.519493103,0.0204850006849,1.0,0.0,0.0,0.0,1.0,0.0,0.0,0.0,1.0,-30.975610733,-1.76829278469,2.19512200356,1.0,0.0,0.0,0.0,1.0,0.0,0.0,0.0,1.0,-0.359130249023,-2.41814367676,9.67736311035,1.0,0.0,0.0,0.0,1.0,0.0,0.0,0.0,1.0
1463845548945783128,344,1463845548863194264,,5.80275583267,-18.4125137329,-87.4805297852,0.0203489996493,1.0,0.0,0.0,0.0,1.0,0.0,0.0,0.0,1.0,-20.9146347046,-5.30487823486,-0.304878056049,1.0,0.0,0.0,0.0,1.0,0.0,0.0,0.0,1.0,-0.392649072266,-2.35110588414,9.88805285645,1.0,0.0,0.0,0.0,1.0,0.0,0.0,0.0,1.0
1463845548946109883,345,1463845548882716352,,5.54020261765,-18.5683403015,-87.4410095215,0.0204000007361,1.0,0.0,0.0,0.0,1.0,0.0,0.0,0.0,1.0,-14.4512205124,-8.10975551605,-1.46341466904,1.0,0.0,0.0,0.0,1.0,0.0,0.0,0.0,1.0,-0.076614453125,-2.05422502441,10.1609918457,1.0,0.0,0.0,0.0,1.0,0.0,0.0,0.0,1.0
1463845548947892194,346,1463845548902996268,,5.37198543549,-18.6249408722,-87.3600463867,0.0204099994153,1.0,0.0,0.0,0.0,1.0,0.0,0.0,0.0,1.0,-9.08536529541,-4.75609779358,1.8902438879,1.0,0.0,0.0,0.0,1.0,0.0,0.0,0.0,1.0,-0.100556469727,-2.21224233398,10.1562034424,1.0,0.0,0.0,0.0,1.0,0.0,0.0,0.0,1.0
1463845548948911051,347,1463845548923718923,,5.24417209625,-18.593132019,-87.2160568237,0.0205669999123,1.0,0.0,0.0,0.0,1.0,0.0,0.0,0.0,1.0,-9.20731735229,-4.87804889679,4.63414621353,1.0,0.0,0.0,0.0,1.0,0.0,0.0,0.0,1.0,-0.282515795898,-1.41257897949,9.97903251953,1.0,0.0,0.0,0.0,1.0,0.0,0.0,0.0,1.0
1463845548949678619,348,1463845548943804108,,5.08432102203,-18.6253242493,-87.0274353027,0.020270999521,1.0,0.0,0.0,0.0,1.0,0.0,0.0,0.0,1.0,-10.548781395,-7.62195110321,6.34146356583,1.0,0.0,0.0,0.0,1.0,0.0,0.0,0.0,1.0,-0.339976635742,-1.79565124512,10.1083194092,1.0,0.0,0.0,0.0,1.0,0.0,0.0,0.0,1.0
1463845549029140704,349,1463845548965076633,,4.89231729507,-18.657913208,-86.8254699707,0.0204070005566,1.0,0.0,0.0,0.0,1.0,0.0,0.0,0.0,1.0,-11.7682924271,-8.84146404266,6.46341466904,1.0,0.0,0.0,0.0,1.0,0.0,0.0,0.0,1.0,-0.225054956055,-1.5322890625,9.80665,1.0,0.0,0.0,0.0,1.0,0.0,0.0,0.0,1.0
1463845549029372776,350,1463845548985140465,,4.71392917633,-18.7812309265,-86.6067123413,0.0204499997199,1.0,0.0,0.0,0.0,1.0,0.0,0.0,0.0,1.0,-15.548781395,-7.98780536652,7.68292665482,1.0,0.0,0.0,0.0,1.0,0.0,0.0,0.0,1.0,-0.100556469727,-1.65199914551,9.73961235352,1.0,0.0,0.0,0.0,1.0,0.0,0.0,0.0,1.0
1463845549029662242,351,1463845549005021493,,4.55139017105,-18.9977550507,-86.3517227173,0.0203559994698,1.0,0.0,0.0,0.0,1.0,0.0,0.0,0.0,1.0,-16.8902435303,-7.92682981491,9.93902492523,1.0,0.0,0.0,0.0,1.0,0.0,0.0,0.0,1.0,-0.0622492431641,-2.26012636719,9.62469125835,1.0,0.0,0.0,0.0,1.0,0.0,0.0,0.0,1.0
1463845549078490218,352,1463845549025198080,,4.41355037689,-19.2309398651,-86.035987854,0.0203910004348,1.0,0.0,0.0,0.0,1.0,0.0,0.0,0.0,1.0,-15.7926826477,-8.10975551605,13.1707324982,1.0,0.0,0.0,0.0,1.0,0.0,0.0,0.0,1.0,-0.0861912597656,-2.62883342285,9.43794235981,1.0,0.0,0.0,0.0,1.0,0.0,0.0,0.0,1.0
1463845549079768490,353,1463845549045562418,,4.27152013779,-19.4310417175,-85.6800079346,0.0204029995948,1.0,0.0,0.0,0.0,1.0,0.0,0.0,0.0,1.0,-14.5731706619,-10.1219511032,14.5121955872,1.0,0.0,0.0,0.0,1.0,0.0,0.0,0.0,1.0,-0.272938989258,-2.65277543945,9.56723041851,1.0,0.0,0.0,0.0,1.0,0.0,0.0,0.0,1.0
1463845549117769536,354,1463845549066404859,,4.04781913757,-19.5782623291,-85.2794952393,0.0205520000309,1.0,0.0,0.0,0.0,1.0,0.0,0.0,0.0,1.0,-14.1463422775,-13.658536911,15.2439022064,1.0,0.0,0.0,0.0,1.0,0.0,0.0,0.0,1.0,-0.0909796630859,-2.35589428746,9.7827079834,1.0,0.0,0.0,0.0,1.0,0.0,0.0,0.0,1.0
1463845549118119571,355,1463845549086688523,,3.79847598076,-19.7686958313,-84.8822250366,0.0202760007232,1.0,0.0,0.0,0.0,1.0,0.0,0.0,0.0,1.0,-15.6097564697,-13.9634151459,15.3048791885,1.0,0.0,0.0,0.0,1.0,0.0,0.0,0.0,1.0,0.162805712891,-2.5234885498,9.8305920166,1.0,0.0,0.0,0.0,1.0,0.0,0.0,0.0,1.0
1463845549149242926,356,1463845549106949741,,3.61108565331,-19.9268074036,-84.4995040894,0.0204230006784,1.0,0.0,0.0,0.0,1.0,0.0,0.0,0.0,1.0,-15.3048791885,-12.3780488968,14.8780498505,1.0,0.0,0.0,0.0,1.0,0.0,0.0,0.0,1.0,-0.0957680664062,-2.22181914063,9.56244201519,1.0,0.0,0.0,0.0,1.0,0.0,0.0,0.0,1.0
1463845549149464686,357,1463845549127195439,,3.35879826546,-20.1545810699,-84.1410064697,0.0203799996525,1.0,0.0,0.0,0.0,1.0,0.0,0.0,0.0,1.0,-15.6707315445,-14.9390249252,12.9268293381,1.0,0.0,0.0,0.0,1.0,0.0,0.0,0.0,1.0,-0.0335188255255,-2.74854350586,9.44751916645,1.0,0.0,0.0,0.0,1.0,0.0,0.0,0.0,1.0
1463845549182522271,358,1463845549147685605,,3.01292300224,-20.3730545044,-83.8057632446,0.0204130001366,1.0,0.0,0.0,0.0,1.0,0.0,0.0,0.0,1.0,-15.0609760284,-17.8048782349,10.6097564697,1.0,0.0,0.0,0.0,1.0,0.0,0.0,0.0,1.0,0.215478149414,-2.88261879883,9.77313117676,1.0,0.0,0.0,0.0,1.0,0.0,0.0,0.0,1.0
1463845549184995694,359,1463845549168094420,,2.70920753479,-20.5520133972,-83.5161361694,0.0204130001366,1.0,0.0,0.0,0.0,1.0,0.0,0.0,0.0,1.0,-14.9390249252,-15.6707315445,8.90243911743,1.0,0.0,0.0,0.0,1.0,0.0,0.0,0.0,1.0,0.177170922852,-2.70065947266,10.3621047852,1.0,0.0,0.0,0.0,1.0,0.0,0.0,0.0,1.0
1463845549231855327,360,1463845549188501256,,2.40571022034,-20.7274684906,-83.2928085327,0.0204060003161,1.0,0.0,0.0,0.0,1.0,0.0,0.0,0.0,1.0,-12.3170728683,-14.5731706619,5.97560977936,1.0,0.0,0.0,0.0,1.0,0.0,0.0,0.0,1.0,0.244208569336,-3.22259543457,10.5057568848,1.0,0.0,0.0,0.0,1.0,0.0,0.0,0.0,1.0
1463845549231904179,361,1463845549208923664,,2.1212079525,-20.8316574097,-83.1505279541,0.0204249992967,1.0,0.0,0.0,0.0,1.0,0.0,0.0,0.0,1.0,-7.19512224197,-12.0731716156,2.74390244484,1.0,0.0,0.0,0.0,1.0,0.0,0.0,0.0,1.0,0.339976635742,-3.37582434082,9.99818613281,1.0,0.0,0.0,0.0,1.0,0.0,0.0,0.0,1.0
1463845549275666981,362,1463845549229258108,,1.87056529522,-20.8637542725,-83.0853729248,0.0204099994153,1.0,0.0,0.0,0.0,1.0,0.0,0.0,0.0,1.0,-2.19512200356,-10.6097564697,-0.670731723309,1.0,0.0,0.0,0.0,1.0,0.0,0.0,0.0,1.0,0.110133276367,-3.49074602051,9.54807680523,1.0,0.0,0.0,0.0,1.0,0.0,0.0,0.0,1.0
1463845549275710833,363,1463845549249769262,,1.60325288773,-20.7942657471,-83.0441131592,0.0203930009156,1.0,0.0,0.0,0.0,1.0,0.0,0.0,0.0,1.0,3.71951246262,-11.2804880142,-2.13414645195,1.0,0.0,0.0,0.0,1.0,0.0,0.0,0.0,1.0,0.0957680664062,-3.58172568359,9.32780908345,1.0,0.0,0.0,0.0,1.0,0.0,0.0,0.0,1.0
1463845549310482242,364,1463845549269973816,,1.32590246201,-20.6144886017,-83.0248794556,0.0204140003771,1.0,0.0,0.0,0.0,1.0,0.0,0.0,0.0,1.0,9.87804889679,-12.3780488968,-3.65853667259,1.0,0.0,0.0,0.0,1.0,0.0,0.0,0.0,1.0,-0.0478840332031,-3.55299526367,8.94473740234,1.0,0.0,0.0,0.0,1.0,0.0,0.0,0.0,1.0
1463845549310899305,365,1463845549290531999,,0.981214880943,-20.3176059723,-82.9763565063,0.0203980002552,1.0,0.0,0.0,0.0,1.0,0.0,0.0,0.0,1.0,13.2926826477,-16.7682933807,-3.7804877758,1.0,0.0,0.0,0.0,1.0,0.0,0.0,0.0,1.0,-0.148440512063,-3.24653745117,9.35175110005,1.0,0.0,0.0,0.0,1.0,0.0,0.0,0.0,1.0
1463845549355037402,366,1463845549310980031,,0.659876585007,-19.9578266144,-82.9212722778,0.0204240009189,1.0,0.0,0.0,0.0,1.0,0.0,0.0,0.0,1.0,15.9146347046,-15.4878053665,-2.86585378647,1.0,0.0,0.0,0.0,1.0,0.0,0.0,0.0,1.0,-0.0287304199219,-3.06936652832,9.23204160156,1.0,0.0,0.0,0.0,1.0,0.0,0.0,0.0,1.0
1463845549355080212,367,1463845549331462436,,0.411489993334,-19.5569267273,-82.8741455078,0.0204009991139,1.0,0.0,0.0,0.0,1.0,0.0,0.0,0.0,1.0,14.8780498505,-12.8658542633,-2.25609779358,1.0,0.0,0.0,0.0,1.0,0.0,0.0,0.0,1.0,-0.124498486328,-2.41814367676,9.08838950195,1.0,0.0,0.0,0.0,1.0,0.0,0.0,0.0,1.0
1463845549389253733,368,1463845549351863439,,0.18703225255,-19.2178497314,-82.8403701782,0.0204390008003,1.0,0.0,0.0,0.0,1.0,0.0,0.0,0.0,1.0,10.3048782349,-12.1951217651,-2.62195134163,1.0,0.0,0.0,0.0,1.0,0.0,0.0,0.0,1.0,-0.196324536133,-2.07816689489,9.03571706543,1.0,0.0,0.0,0.0,1.0,0.0,0.0,0.0,1.0
1463845549389603612,369,1463845549372077159,,0.014064213261,-18.9757900238,-82.8005981445,0.0203639995307,1.0,0.0,0.0,0.0,1.0,0.0,0.0,0.0,1.0,3.23170733452,-9.14634132385,-1.15853655338,1.0,0.0,0.0,0.0,1.0,0.0,0.0,0.0,1.0,-0.0191536132812,-1.66636435547,9.27513723145,1.0,0.0,0.0,0.0,1.0,0.0,0.0,0.0,1.0
1463845549433512605,370,1463845549392551075,,-0.0722454935312,-18.8718681335,-82.7407989502,0.0204109996557,1.0,0.0,0.0,0.0,1.0,0.0,0.0,0.0,1.0,-5.24390268326,-4.51219558716,1.52439022064,1.0,0.0,0.0,0.0,1.0,0.0,0.0,0.0,1.0,0.177170922852,-1.38384855957,9.59117243511,1.0,0.0,0.0,0.0,1.0,0.0,0.0,0.0,1.0
1463845549434186010,371,1463845549412974056,,-0.0820638984442,-18.9686756134,-82.678314209,0.0204089991748,1.0,0.0,0.0,0.0,1.0,0.0,0.0,0.0,1.0,-11.0975618362,-3.17073178291,2.13414645195,1.0,0.0,0.0,0.0,1.0,0.0,0.0,0.0,1.0,-0.201112939453,-2.06859023437,9.58159562847,1.0,0.0,0.0,0.0,1.0,0.0,0.0,0.0,1.0
1463845549475076710,372,1463845549433229389,,-0.0806671231985,-19.0747566223,-82.5713195801,0.0204150006175,1.0,0.0,0.0,0.0,1.0,0.0,0.0,0.0,1.0,-13.4756097794,-3.65853667259,4.2682929039,1.0,0.0,0.0,0.0,1.0,0.0,0.0,0.0,1.0,-0.244208569336,-1.69509477539,9.31823227681,1.0,0.0,0.0,0.0,1.0,0.0,0.0,0.0,1.0
1463845549475124468,373,1463845549453674817,,-0.0468192435801,-19.1843338013,-82.4040603638,0.0204039998353,1.0,0.0,0.0,0.0,1.0,0.0,0.0,0.0,1.0,-16.8902435303,-4.57317066193,7.07317113876,1.0,0.0,0.0,0.0,1.0,0.0,0.0,0.0,1.0,-0.474051928711,-1.11090957031,8.93037219238,1.0,0.0,0.0,0.0,1.0,0.0,0.0,0.0,1.0
1463845549501967298,374,1463845549474161233,,0.0114209298044,-19.335975647,-82.1787567139,0.0204130001366,1.0,0.0,0.0,0.0,1.0,0.0,0.0,0.0,1.0,-25.6097564697,-4.08536577225,10.2439022064,1.0,0.0,0.0,0.0,1.0,0.0,0.0,0.0,1.0,-0.440533105469,-0.0335188255255,9.28950185688,1.0,0.0,0.0,0.0,1.0,0.0,0.0,0.0,1.0
1463845549502022712,375,1463845549494645148,,-0.0660394057631,-19.5964584351,-81.9149398804,0.0204150006175,1.0,0.0,0.0,0.0,1.0,0.0,0.0,0.0,1.0,-30.9146327972,-14.1463422775,8.65853691101,1.0,0.0,0.0,0.0,1.0,0.0,0.0,0.0,1.0,-0.957680664062,-0.0478840332031,8.91600698242,1.0,0.0,0.0,0.0,1.0,0.0,0.0,0.0,1.0
1463845549542474735,376,1463845549515025006,,-0.259944230318,-19.9341430664,-81.6266021729,0.0204130001366,1.0,0.0,0.0,0.0,1.0,0.0,0.0,0.0,1.0,-32.6219520569,-18.1097564697,8.47560977936,1.0,0.0,0.0,0.0,1.0,0.0,0.0,0.0,1.0,-0.660799658203,-0.45489831543,9.32780908345,1.0,0.0,0.0,0.0,1.0,0.0,0.0,0.0,1.0
1463845549542534055,377,1463845549535341951,,-0.551675200462,-20.2548236847,-81.3373718262,0.0203939992934,1.0,0.0,0.0,0.0,1.0,0.0,0.0,0.0,1.0,-31.6463413239,-20.1829280853,7.74390268326,1.0,0.0,0.0,0.0,1.0,0.0,0.0,0.0,1.0,-0.186747729492,-0.536301208408,9.39005832661,1.0,0.0,0.0,0.0,1.0,0.0,0.0,0.0,1.0
1463845549587066611,378,1463845549555906644,,-0.721592724323,-20.3974723816,-81.0622177124,0.0204850006849,1.0,0.0,0.0,0.0,1.0,0.0,0.0,0.0,1.0,-23.658536911,-15.4878053665,8.71951198578,1.0,0.0,0.0,0.0,1.0,0.0,0.0,0.0,1.0,-0.359130249023,-0.46447512207,9.83538041992,1.0,0.0,0.0,0.0,1.0,0.0,0.0,0.0,1.0
1463845549587690748,379,1463845549576257962,,-0.826650619507,-20.3445091248,-80.8380737305,0.0203440003097,1.0,0.0,0.0,0.0,1.0,0.0,0.0,0.0,1.0,-17.5000019073,-11.2804880142,7.80487823486,1.0,0.0,0.0,0.0,1.0,0.0,0.0,0.0,1.0,-0.248996972656,0.138863696289,9.95030209961,1.0,0.0,0.0,0.0,1.0,0.0,0.0,0.0,1.0
1463845549631299130,380,1463845549596757189,,-0.801910042763,-20.1228294373,-80.6830291748,0.0203980002552,1.0,0.0,0.0,0.0,1.0,0.0,0.0,0.0,1.0,-9.02439117432,-3.41463422775,7.13414621353,1.0,0.0,0.0,0.0,1.0,0.0,0.0,0.0,1.0,-0.105344873047,0.100556469727,10.2711251221,1.0,0.0,0.0,0.0,1.0,0.0,0.0,0.0,1.0
1463845549631665311,381,1463845549617057051,,-0.64793920517,-19.7884712219,-80.5834655762,0.0204140003771,1.0,0.0,0.0,0.0,1.0,0.0,0.0,0.0,1.0,-8.47560977936,7.80487823486,8.41463470459,1.0,0.0,0.0,0.0,1.0,0.0,0.0,0.0,1.0,0.737414111328,1.14921679688,10.4530844482,1.0,0.0,0.0,0.0,1.0,0.0,0.0,0.0,1.0
1463845549683662354,382,1463845549638953764,,-0.533973157406,-18.8159866333,-80.5131225586,0.0209449995309,1.0,0.0,0.0,0.0,1.0,0.0,0.0,0.0,1.0,20.1829280853,6.09756088257,6.0365858078,1.0,0.0,0.0,0.0,1.0,0.0,0.0,0.0,1.0,0.718260498047,1.67115275879,11.5975128418,1.0,0.0,0.0,0.0,1.0,0.0,0.0,0.0,1.0
1463845549686425034,383,1463845549657878640,,-0.0218164790422,-17.6152744293,-80.4254226685,0.0198650006205,1.0,0.0,0.0,0.0,1.0,0.0,0.0,0.0,1.0,32.0121955872,12.5,8.90243911743,1.0,0.0,0.0,0.0,1.0,0.0,0.0,0.0,1.0,-1.73340200195,2.02549460449,9.35175110005,1.0,0.0,0.0,0.0,1.0,0.0,0.0,0.0,1.0
1463845549704272930,384,1463845549678331619,,0.363437652588,-16.3938465118,-80.2146759033,0.0204329993576,1.0,0.0,0.0,0.0,1.0,0.0,0.0,0.0,1.0,32.0121955872,14.0853662491,15.0609760284,1.0,0.0,0.0,0.0,1.0,0.0,0.0,0.0,1.0,-0.0718260498047,2.24097275391,10.5584293213,1.0,0.0,0.0,0.0,1.0,0.0,0.0,0.0,1.0
1463845549704325792,385,1463845549698711998,,0.917059063911,-15.3646497726,-79.8686599731,0.0204089991748,1.0,0.0,0.0,0.0,1.0,0.0,0.0,0.0,1.0,33.1097564697,13.9634151459,21.341463089,1.0,0.0,0.0,0.0,1.0,0.0,0.0,0.0,1.0,-1.41736738281,0.301669427446,10.4626612549,1.0,0.0,0.0,0.0,1.0,0.0,0.0,0.0,1.0
1463845549757072591,386,1463845549719057848,,1.03347945213,-14.248875618,-79.3914108276,0.0204009991139,1.0,0.0,0.0,0.0,1.0,0.0,0.0,0.0,1.0,29.3292694092,10.0609760284,26.4634151459,1.0,0.0,0.0,0.0,1.0,0.0,0.0,0.0,1.0,1.74776721191,1.85311208496,9.01177504883,1.0,0.0,0.0,0.0,1.0,0.0,0.0,0.0,1.0
1463845549757113266,387,1463845549743497876,,1.55960118771,-12.9308900833,-78.6470565796,0.024227000773,1.0,0.0,0.0,0.0,1.0,0.0,0.0,0.0,1.0,30.1829280853,11.2195119858,33.7195129395,1.0,0.0,0.0,0.0,1.0,0.0,0.0,0.0,1.0,-0.694318481445,2.25054956055,11.9422778809,1.0,0.0,0.0,0.0,1.0,0.0,0.0,0.0,1.0
1463845549776151314,388,1463845549759897195,,1.57622992992,-12.1036109924,-78.0612487793,0.0165839996189,1.0,0.0,0.0,0.0,1.0,0.0,0.0,0.0,1.0,25.8536586761,13.7195129395,38.5975608826,1.0,0.0,0.0,0.0,1.0,0.0,0.0,0.0,1.0,3.50032282715,2.12126281703,9.00219824219,1.0,0.0,0.0,0.0,1.0,0.0,0.0,0.0,1.0
1463845549793394655,389,1463845549780259138,,1.61000847816,-10.9315223694,-77.2816696167,0.0203850008547,1.0,0.0,0.0,0.0,1.0,0.0,0.0,0.0,1.0,25.3048782349,8.5365858078,39.8780479431,1.0,0.0,0.0,0.0,1.0,0.0,0.0,0.0,1.0,2.7581203125,4.19464101633,9.96466730957,1.0,0.0,0.0,0.0,1.0,0.0,0.0,0.0,1.0
1463845549809392900,390,1463845549800796020,,1.90639078617,-10.2831439972,-76.4991989136,0.0204140003771,1.0,0.0,0.0,0.0,1.0,0.0,0.0,0.0,1.0,11.4634151459,3.59756112099,38.9024391174,1.0,0.0,0.0,0.0,1.0,0.0,0.0,0.0,1.0,-1.06781401349,2.03985981445,12.5791355225,1.0,0.0,0.0,0.0,1.0,0.0,0.0,0.0,1.0
1463845549826909926,391,1463845549821273061,,2.06452512741,-9.89838600159,-75.6998443604,0.0204329993576,1.0,0.0,0.0,0.0,1.0,0.0,0.0,0.0,1.0,1.76829278469,-8.47560977936,37.4390220642,1.0,0.0,0.0,0.0,1.0,0.0,0.0,0.0,1.0,-1.94888015137,1.13485158691,10.0652237793,1.0,0.0,0.0,0.0,1.0,0.0,0.0,0.0,1.0
1463845549849725814,392,1463845549841750883,,1.98113894463,-9.12965583801,-74.9024200439,0.0203949995339,1.0,0.0,0.0,0.0,1.0,0.0,0.0,0.0,1.0,10.6097564697,-15.4268302917,35.8536605835,1.0,0.0,0.0,0.0,1.0,0.0,0.0,0.0,1.0,-1.86747729492,4.97036264648,15.6149832275,1.0,0.0,0.0,0.0,1.0,0.0,0.0,0.0,1.0
1463845549864523856,393,1463845549862097722,,1.73887145519,-8.23502540588,-74.3021240234,0.0204009991139,1.0,0.0,0.0,0.0,1.0,0.0,0.0,0.0,1.0,23.8414649963,-3.10975623131,28.5365848541,1.0,0.0,0.0,0.0,1.0,0.0,0.0,0.0,1.0,2.62404501953,2.40856701625,11.9710083008,1.0,0.0,0.0,0.0,1.0,0.0,0.0,0.0,1.0
1463845549885000063,394,1463845549882388365,,2.19405817986,-7.11918735504,-73.8449783325,0.0204230006784,1.0,0.0,0.0,0.0,1.0,0.0,0.0,0.0,1.0,43.2317085266,19.817073822,24.7560977936,1.0,0.0,0.0,0.0,1.0,0.0,0.0,0.0,1.0,-0.067037651051,0.411802685547,7.98705673828,1.0,0.0,0.0,0.0,1.0,0.0,0.0,0.0,1.0
1463845549911153447,395,1463845549902886655,,1.79459929466,-6.47326898575,-73.4184799194,0.0203939992934,1.0,0.0,0.0,0.0,1.0,0.0,0.0,0.0,1.0,82.6219482422,-0.670731723309,22.9268302917,1.0,0.0,0.0,0.0,1.0,0.0,0.0,0.0,1.0,11.2814782227,-26.9204034668,1.86747729492,1.0,0.0,0.0,0.0,1.0,0.0,0.0,0.0,1.0
1463845549928856767,396,1463845549923237817,,1.28082096577,-6.07046604156,-73.7195358276,0.0204039998353,1.0,0.0,0.0,0.0,1.0,0.0,0.0,0.0,1.0,-28.7804889679,-3.53658556938,-16.8292694092,1.0,0.0,0.0,0.0,1.0,0.0,0.0,0.0,1.0,4.24731403738,10.0364933594,5.39653054199,1.0,0.0,0.0,0.0,1.0,0.0,0.0,0.0,1.0
1463845549948828259,397,1463845549943486848,,1.15167450905,-3.33812522888,-74.4323272705,0.0204099994153,1.0,0.0,0.0,0.0,1.0,0.0,0.0,0.0,1.0,85.9756088257,-0.548780500889,-36.2195129395,1.0,0.0,0.0,0.0,1.0,0.0,0.0,0.0,1.0,1.17794714373,19.8910273926,14.3843635742,1.0,0.0,0.0,0.0,1.0,0.0,0.0,0.0,1.0
1463845549967423151,398,1463845549963981180,,0.912480115891,0.0774771422148,-74.0545578003,0.0204169992357,1.0,0.0,0.0,0.0,1.0,0.0,0.0,0.0,1.0,125.0,-16.8292694092,16.8292694092,1.0,0.0,0.0,0.0,1.0,0.0,0.0,0.0,1.0,-1.30244570312,10.8409451172,10.6637741943,1.0,0.0,0.0,0.0,1.0,0.0,0.0,0.0,1.0
1463845549988242207,399,1463845549984539780,,0.680368363857,2.53412270546,-73.83959198,0.0204850006849,1.0,0.0,0.0,0.0,1.0,0.0,0.0,0.0,1.0,65.1829299927,0.304878056049,9.63414573669,1.0,0.0,0.0,0.0,1.0,0.0,0.0,0.0,1.0,1.64721074219,7.52737001953,-0.785298144531,1.0,0.0,0.0,0.0,1.0,0.0,0.0,0.0,1.0
1463845550008688780,400,1463845550004728814,,0.646845459938,7.1036901474,-73.6685943604,0.0203290004283,1.0,0.0,0.0,0.0,1.0,0.0,0.0,0.0,1.0,170.60975647,-0.975609779358,7.62195110321,1.0,0.0,0.0,0.0,1.0,0.0,0.0,0.0,1.0,0.100556469727,15.083470459,3.33751711426,1.0,0.0,0.0,0.0,1.0,0.0,0.0,0.0,1.0
1463845550078342424,401,1463845550025271320,,1.93244075775,13.8297510147,-72.8647232056,0.0204310007393,1.0,0.0,0.0,0.0,1.0,0.0,0.0,0.0,1.0,298.719543457,64.2073135376,27.1951236725,1.0,0.0,0.0,0.0,1.0,0.0,0.0,0.0,1.0,-7.72848295898,56.3930259033,67.4925447998,1.0,0.0,0.0,0.0,1.0,0.0,0.0,0.0,1.0
1463845550078388047,402,1463845550045599357,,2.37540054321,18.760383606,-71.2265396118,0.0203750003129,1.0,0.0,0.0,0.0,1.0,0.0,0.0,0.0,1.0,212.926834106,48.3536567688,68.4146347046,1.0,0.0,0.0,0.0,1.0,0.0,0.0,0.0,1.0,5.32949289551,49.1769020996,54.4537225586,1.0,0.0,0.0,0.0,1.0,0.0,0.0,0.0,1.0
1463845550078456012,403,1463845550066057127,,2.57844519615,15.4302616119,-70.0658721924,0.0204150006175,1.0,0.0,0.0,0.0,1.0,0.0,0.0,0.0,1.0,-109.878051758,16.7682933807,56.5853691101,1.0,0.0,0.0,0.0,1.0,0.0,0.0,0.0,1.0,-6.80910952148,-33.1070205566,14.9302415527,1.0,0.0,0.0,0.0,1.0,0.0,0.0,0.0,1.0
1463845550090510956,404,1463845550086467608,,3.37741541862,18.4846439362,-68.6534729004,0.0204150006175,1.0,0.0,0.0,0.0,1.0,0.0,0.0,0.0,1.0,91.6463470459,69.5121994019,48.2926864624,1.0,0.0,0.0,0.0,1.0,0.0,0.0,0.0,1.0,8.3030907729,33.8013390381,-5.98071574707,1.0,0.0,0.0,0.0,1.0,0.0,0.0,0.0,1.0
1463845550115639128,405,1463845550106907410,,3.42821621895,19.3232421875,-68.1822280884,0.0204489994794,1.0,0.0,0.0,0.0,1.0,0.0,0.0,0.0,1.0,86.2804946899,39.2073173523,13.5365858078,1.0,0.0,0.0,0.0,1.0,0.0,0.0,0.0,1.0,10.0843773926,-15.1505081055,1.78607443848,1.0,0.0,0.0,0.0,1.0,0.0,0.0,0.0,1.0
1463845550133502803,406,1463845550127497466,,5.75384044647,19.6420841217,-66.7984390259,0.0203799996525,1.0,0.0,0.0,0.0,1.0,0.0,0.0,0.0,1.0,65.6097564697,118.10974884,32.865852356,1.0,0.0,0.0,0.0,1.0,0.0,0.0,0.0,1.0,-2.04464821777,-8.0157871582,2.59052619629,1.0,0.0,0.0,0.0,1.0,0.0,0.0,0.0,1.0
1463845550155489719,407,1463845550147821857,,8.53280067444,17.0321731567,-65.5981292725,0.0204140003771,1.0,0.0,0.0,0.0,1.0,0.0,0.0,0.0,1.0,-105.487808228,139.939025879,17.8048782349,1.0,0.0,0.0,0.0,1.0,0.0,0.0,0.0,1.0,-8.35576320942,-7.45554396973,33.2554633977,1.0,0.0,0.0,0.0,1.0,0.0,0.0,0.0,1.0
1463845550182853201,408,1463845550168248535,,10.0288105011,16.0334892273,-65.2757339478,0.020386999473,1.0,0.0,0.0,0.0,1.0,0.0,0.0,0.0,1.0,-2.01219511032,81.1585388184,-0.609756112099,1.0,0.0,0.0,0.0,1.0,0.0,0.0,0.0,1.0,0.383072265625,-17.5686517822,18.0570700899,1.0,0.0,0.0,0.0,1.0,0.0,0.0,0.0,1.0
1463845550201613136,409,1463845550188581155,,12.0187597275,13.6136140823,-65.2848129272,0.0204210001975,1.0,0.0,0.0,0.0,1.0,0.0,0.0,0.0,1.0,-70.4268264771,82.8658599854,-13.7804880142,1.0,0.0,0.0,0.0,1.0,0.0,0.0,0.0,1.0,-2.26970317383,-13.9438304687,-3.48116921387,1.0,0.0,0.0,0.0,1.0,0.0,0.0,0.0,1.0
1463845550216957505,410,1463845550208902005,,13.9386281967,12.3560562134,-65.4648361206,0.0204000007361,1.0,0.0,0.0,0.0,1.0,0.0,0.0,0.0,1.0,-68.2317047119,68.7195129395,-26.8292694092,1.0,0.0,0.0,0.0,1.0,0.0,0.0,0.0,1.0,-4.03662399902,-1.8148048584,-24.0856687012,1.0,0.0,0.0,0.0,1.0,0.0,0.0,0.0,1.0
1463845550235435266,411,1463845550229345870,,16.4440498352,16.4987068176,-65.1315383911,0.0204119998962,1.0,0.0,0.0,0.0,1.0,0.0,0.0,0.0,1.0,207.195129395,98.5975646973,-8.5365858078,1.0,0.0,0.0,0.0,1.0,0.0,0.0,0.0,1.0,-13.6086422363,0.493205541992,16.3523973389,1.0,0.0,0.0,0.0,1.0,0.0,0.0,0.0,1.0
1463845550288105869,412,1463845550249771767,,17.4092350006,15.2634820938,-66.065322876,0.0204009991139,1.0,0.0,0.0,0.0,1.0,0.0,0.0,0.0,1.0,-14.5731706619,35.1219520569,-45.9146347046,1.0,0.0,0.0,0.0,1.0,0.0,0.0,0.0,1.0,-3.9121255127,-5.70777675781,14.7865894531,1.0,0.0,0.0,0.0,1.0,0.0,0.0,0.0,1.0
1463845550288505433,413,1463845550270058764,,16.3535041809,18.0083656311,-68.4392776489,0.0203959997743,1.0,0.0,0.0,0.0,1.0,0.0,0.0,0.0,1.0,221.524398804,-88.3536605835,-72.9268341064,1.0,0.0,0.0,0.0,1.0,0.0,0.0,0.0,1.0,-3.21301862793,-13.1154366943,4.63038601074,1.0,0.0,0.0,0.0,1.0,0.0,0.0,0.0,1.0
1463845550314716678,414,1463845550290421435,,17.3478031158,12.1558799744,-69.3421020508,0.0204099994153,1.0,0.0,0.0,0.0,1.0,0.0,0.0,0.0,1.0,-239.878051758,43.4146347046,-45.8536605835,1.0,0.0,0.0,0.0,1.0,0.0,0.0,0.0,1.0,-4.5968671875,-12.124237207,31.5220590576,1.0,0.0,0.0,0.0,1.0,0.0,0.0,0.0,1.0
1463845550314866358,415,1463845550311003470,,17.1516609192,12.8483285904,-70.3636169434,0.0204770006239,1.0,0.0,0.0,0.0,1.0,0.0,0.0,0.0,1.0,4.57317066193,-32.2560958862,-56.2195129395,1.0,0.0,0.0,0.0,1.0,0.0,0.0,0.0,1.0,-8.85375773926,24.9858885254,7.97747993164,1.0,0.0,0.0,0.0,1.0,0.0,0.0,0.0,1.0
1463845550336263719,416,1463845550331792891,,15.6978530884,9.0206823349,-72.2782058716,0.020687000826,1.0,0.0,0.0,0.0,1.0,0.0,0.0,0.0,1.0,-108.10975647,-65.4878082275,-62.5,1.0,0.0,0.0,0.0,1.0,0.0,0.0,0.0,1.0,1.35990654297,-4.6208092041,2.51391174316,1.0,0.0,0.0,0.0,1.0,0.0,0.0,0.0,1.0
1463845550366073750,417,1463845550357099231,,13.1330909729,8.74769306183,-72.7945327759,0.025358999148,1.0,0.0,0.0,0.0,1.0,0.0,0.0,0.0,1.0,-20.3658542633,-72.3780517578,-13.1707324982,1.0,0.0,0.0,0.0,1.0,0.0,0.0,0.0,1.0,6.21534750977,7.62792648926,15.6054064209,1.0,0.0,0.0,0.0,1.0,0.0,0.0,0.0,1.0
1463845550376898075,418,1463845550372079764,,11.959487915,7.89690494537,-73.6523971558,0.0150950001553,1.0,0.0,0.0,0.0,1.0,0.0,0.0,0.0,1.0,-12.4390249252,-73.6585388184,-38.0487823486,1.0,0.0,0.0,0.0,1.0,0.0,0.0,0.0,1.0,0.0718260498047,-7.41723674316,15.4378123047,1.0,0.0,0.0,0.0,1.0,0.0,0.0,0.0,1.0
1463845550398474385,419,1463845550392625343,,10.5653676987,5.97340536118,-74.668296814,0.0204629991204,1.0,0.0,0.0,0.0,1.0,0.0,0.0,0.0,1.0,-57.9268302917,-70.792678833,-35.0000038147,1.0,0.0,0.0,0.0,1.0,0.0,0.0,0.0,1.0,-1.44609780273,-3.58172568359,9.64384487163,1.0,0.0,0.0,0.0,1.0,0.0,0.0,0.0,1.0
1463845550428051250,420,1463845550412983326,,9.38352394104,8.12522888184,-75.1405792236,0.0203579999506,1.0,0.0,0.0,0.0,1.0,0.0,0.0,0.0,1.0,60.0000038147,-73.2317123413,-23.8414649963,1.0,0.0,0.0,0.0,1.0,0.0,0.0,0.0,1.0,-6.87135876465,23.9899006348,6.34942280273,1.0,0.0,0.0,0.0,1.0,0.0,0.0,0.0,1.0
1463845550435544589,421,1463845550433506770,,9.00803661346,6.97645616531,-75.6156234741,0.0204109996557,1.0,0.0,0.0,0.0,1.0,0.0,0.0,0.0,1.0,-33.5365867615,-60.2439041138,-11.8292684555,1.0,0.0,0.0,0.0,1.0,0.0,0.0,0.0,1.0,-9.15063874512,-2.98796367187,6.49786330566,1.0,0.0,0.0,0.0,1.0,0.0,0.0,0.0,1.0
1463845550471475108,422,1463845550453836266,,8.33705234528,5.02204942703,-75.8847961426,0.0204160008579,1.0,0.0,0.0,0.0,1.0,0.0,0.0,0.0,1.0,-140.060974121,-58.7195129395,-14.2073173523,1.0,0.0,0.0,0.0,1.0,0.0,0.0,0.0,1.0,-2.60010300293,4.82192243582,1.11090957031,1.0,0.0,0.0,0.0,1.0,0.0,0.0,0.0,1.0
1463845550493526344,423,1463845550474393719,,7.22425031662,6.0324306488,-75.7551269531,0.020422000438,1.0,0.0,0.0,0.0,1.0,0.0,0.0,0.0,1.0,0.731707334518,-26.158536911,1.70731711388,1.0,0.0,0.0,0.0,1.0,0.0,0.0,0.0,1.0,3.07894333496,5.27203205566,-0.0718260498047,1.0,0.0,0.0,0.0,1.0,0.0,0.0,0.0,1.0
1463845550506125220,424,1463845550504612792,,6.12539434433,8.46562004089,-75.1837158203,0.0274870004505,1.0,0.0,0.0,0.0,1.0,0.0,0.0,0.0,1.0,36.3414611816,-21.2195129395,17.134147644,1.0,0.0,0.0,0.0,1.0,0.0,0.0,0.0,1.0,4.52025273438,16.2279000216,4.82192243582,1.0,0.0,0.0,0.0,1.0,0.0,0.0,0.0,1.0
1463845550517106621,425,1463845550514870947,,6.01243305206,6.16393899918,-74.9326171875,0.0133079998195,1.0,0.0,0.0,0.0,1.0,0.0,0.0,0.0,1.0,-139.45123291,-1.52439022064,22.5609760284,1.0,0.0,0.0,0.0,1.0,0.0,0.0,0.0,1.0,0.560243188477,-2.51391174316,-2.27449157715,1.0,0.0,0.0,0.0,1.0,0.0,0.0,0.0,1.0
1463845550558154916,426,1463845550540161038,,7.06424999237,5.42460441589,-74.1454696655,0.0251299999654,1.0,0.0,0.0,0.0,1.0,0.0,0.0,0.0,1.0,-69.8780517578,30.5487804413,23.9634151459,1.0,0.0,0.0,0.0,1.0,0.0,0.0,0.0,1.0,-2.20266552734,5.19541760254,4.33350529714,1.0,0.0,0.0,0.0,1.0,0.0,0.0,0.0,1.0
1463845550558216423,427,1463845550555785654,,7.14364528656,6.55956029892,-73.9277038574,0.0156989991665,1.0,0.0,0.0,0.0,1.0,0.0,0.0,0.0,1.0,23.7195129395,-5.0,8.04878044128,1.0,0.0,0.0,0.0,1.0,0.0,0.0,0.0,1.0,-0.61770402832,4.08929643555,-3.16513459473,1.0,0.0,0.0,0.0,1.0,0.0,0.0,0.0,1.0
1463845550582081270,428,1463845550577859337,,7.47357177734,10.5289268494,-73.3972549438,0.0204150006175,1.0,0.0,0.0,0.0,1.0,0.0,0.0,0.0,1.0,176.097564697,18.1097564697,20.975610733,1.0,0.0,0.0,0.0,1.0,0.0,0.0,0.0,1.0,-8.39885883931,23.6116167725,55.9524927979,1.0,0.0,0.0,0.0,1.0,0.0,0.0,0.0,1.0
1463845550601484664,429,1463845550596792805,,7.96753835678,8.10172748566,-73.0094070435,0.0204199999571,1.0,0.0,0.0,0.0,1.0,0.0,0.0,0.0,1.0,-72.5609817505,28.1097564697,20.6097564697,1.0,0.0,0.0,0.0,1.0,0.0,0.0,0.0,1.0,-0.402225878906,-5.40610734863,4.64475092844,1.0,0.0,0.0,0.0,1.0,0.0,0.0,0.0,1.0
1463845550620171582,430,1463845550617242555,,8.75535869598,9.65849876404,-72.7640991211,0.0204019993544,1.0,0.0,0.0,0.0,1.0,0.0,0.0,0.0,1.0,21.5243911743,38.9634132385,-2.01219511032,1.0,0.0,0.0,0.0,1.0,0.0,0.0,0.0,1.0,0.751779321289,12.8089788818,-6.18661708984,1.0,0.0,0.0,0.0,1.0,0.0,0.0,0.0,1.0
1463845550640294993,431,1463845550637506793,,9.6355266571,10.6025209427,-72.5398254395,0.0204070005566,1.0,0.0,0.0,0.0,1.0,0.0,0.0,0.0,1.0,10.4878053665,27.2560977936,0.243902444839,1.0,0.0,0.0,0.0,1.0,0.0,0.0,0.0,1.0,-3.30399829102,9.55286520855,-17.3914808594,1.0,0.0,0.0,0.0,1.0,0.0,0.0,0.0,1.0
1463845550662593769,432,1463845550657803113,,10.4730997086,12.0652704239,-72.6315460205,0.0204060003161,1.0,0.0,0.0,0.0,1.0,0.0,0.0,0.0,1.0,115.853660583,33.9634132385,-4.2682929039,1.0,0.0,0.0,0.0,1.0,0.0,0.0,0.0,1.0,-5.42047255859,-16.1225551485,18.3587383301,1.0,0.0,0.0,0.0,1.0,0.0,0.0,0.0,1.0
1463845550680278599,433,1463845550678323016,,11.0418777466,9.52793884277,-72.2753829956,0.0204140003771,1.0,0.0,0.0,0.0,1.0,0.0,0.0,0.0,1.0,-121.097564697,48.2926864624,8.59756088257,1.0,0.0,0.0,0.0,1.0,0.0,0.0,0.0,1.0,2.97359846191,1.98718737793,19.9006041992,1.0,0.0,0.0,0.0,1.0,0.0,0.0,0.0,1.0
1463845550705200895,434,1463845550698710946,,11.2207345963,7.74367237091,-72.2864990234,0.0204000007361,1.0,0.0,0.0,0.0,1.0,0.0,0.0,0.0,1.0,-80.8536605835,17.2560977936,-2.37804889679,1.0,0.0,0.0,0.0,1.0,0.0,0.0,0.0,1.0,-0.478840332031,0.861912597656,15.5096383545,1.0,0.0,0.0,0.0,1.0,0.0,0.0,0.0,1.0
1463845550736113009,435,1463845550719185642,,11.0716075897,9.53987503052,-72.4919662476,0.0205070003867,1.0,0.0,0.0,0.0,1.0,0.0,0.0,0.0,1.0,62.9878044128,3.41463422775,-15.975610733,1.0,0.0,0.0,0.0,1.0,0.0,0.0,0.0,1.0,10.1418382324,9.55765361187,-21.3083947754,1.0,0.0,0.0,0.0,1.0,0.0,0.0,0.0,1.0
1463845550778073916,436,1463845550739505034,,9.78374481201,9.9523267746,-74.3111572266,0.0202910006046,1.0,0.0,0.0,0.0,1.0,0.0,0.0,0.0,1.0,88.9024353027,-87.1951217651,-64.2073135376,1.0,0.0,0.0,0.0,1.0,0.0,0.0,0.0,1.0,-4.66869294504,-34.8978833984,-6.27759675293,1.0,0.0,0.0,0.0,1.0,0.0,0.0,0.0,1.0
1463845550778449419,437,1463845550759961294,,10.25826931,10.4294548035,-74.2223815918,0.0204179994762,1.0,0.0,0.0,0.0,1.0,0.0,0.0,0.0,1.0,9.93902492523,22.7439041138,-2.37804889679,1.0,0.0,0.0,0.0,1.0,0.0,0.0,0.0,1.0,-2.61925661621,6.28238515625,14.2838071045,1.0,0.0,0.0,0.0,1.0,0.0,0.0,0.0,1.0
1463845550787640385,438,1463845550780281519,,9.90983009338,8.92275905609,-74.9676437378,0.0204119998962,1.0,0.0,0.0,0.0,1.0,0.0,0.0,0.0,1.0,-17.1951217651,-38.3536567688,-20.6707324982,1.0,0.0,0.0,0.0,1.0,0.0,0.0,0.0,1.0,-5.37258852539,-12.6701151855,6.59363137207,1.0,0.0,0.0,0.0,1.0,0.0,0.0,0.0,1.0
1463845550865939656,439,1463845550800838815,,10.008348465,8.548371315,-75.2095947266,0.0204160008579,1.0,0.0,0.0,0.0,1.0,0.0,0.0,0.0,1.0,-69.3292694092,-1.8902438879,-21.2804889679,1.0,0.0,0.0,0.0,1.0,0.0,0.0,0.0,1.0,-0.0143652099609,14.3795751709,-6.9767036377,1.0,0.0,0.0,0.0,1.0,0.0,0.0,0.0,1.0
1463845550870209243,440,1463845550821066649,,10.8933534622,8.86584854126,-75.0413360596,0.0203990004957,1.0,0.0,0.0,0.0,1.0,0.0,0.0,0.0,1.0,36.1585350037,43.2926864624,5.12195110321,1.0,0.0,0.0,0.0,1.0,0.0,0.0,0.0,1.0,-4.97036264648,-7.00543405762,26.8102701904,1.0,0.0,0.0,0.0,1.0,0.0,0.0,0.0,1.0
1463845550870698543,441,1463845550841943878,,11.3439683914,6.85564041138,-74.8985519409,0.0204189997166,1.0,0.0,0.0,0.0,1.0,0.0,0.0,0.0,1.0,-88.1097640991,34.1463432312,3.90243911743,1.0,0.0,0.0,0.0,1.0,0.0,0.0,0.0,1.0,0.828393774414,-2.08774370153,41.5010915771,1.0,0.0,0.0,0.0,1.0,0.0,0.0,0.0,1.0
1463845550871065504,442,1463845550861993387,,12.2382564545,4.06885433197,-74.8906478882,0.0203889999539,1.0,0.0,0.0,0.0,1.0,0.0,0.0,0.0,1.0,-115.121955872,53.7195129395,-0.975609779358,1.0,0.0,0.0,0.0,1.0,0.0,0.0,0.0,1.0,-0.598550451572,-32.1397630859,114.04540188,1.0,0.0,0.0,0.0,1.0,0.0,0.0,0.0,1.0
1463845550916151991,443,1463845550882326944,,11.2299947739,5.22352457047,-74.8327484131,0.0204300004989,1.0,0.0,0.0,0.0,1.0,0.0,0.0,0.0,1.0,1.09756100178,-49.5731735229,-5.48780488968,1.0,0.0,0.0,0.0,1.0,0.0,0.0,0.0,1.0,1.41257897949,45.7819241455,-6.50265170898,1.0,0.0,0.0,0.0,1.0,0.0,0.0,0.0,1.0
1463845550916565461,444,1463845550902703469,,10.3641939163,2.93103742599,-75.7804718018,0.0203910004348,1.0,0.0,0.0,0.0,1.0,0.0,0.0,0.0,1.0,-58.1097564697,-47.8658561707,-33.3536605835,1.0,0.0,0.0,0.0,1.0,0.0,0.0,0.0,1.0,3.23217224121,-40.0166865479,-23.0465851807,1.0,0.0,0.0,0.0,1.0,0.0,0.0,0.0,1.0
1463845550959373151,445,1463845550923097492,,10.2899179459,4.71953868866,-76.0068435669,0.0203939992934,1.0,0.0,0.0,0.0,1.0,0.0,0.0,0.0,1.0,35.6097564697,-15.0000009537,-20.3658542633,1.0,0.0,0.0,0.0,1.0,0.0,0.0,0.0,1.0,-4.87459458008,32.9681591984,-6.98149204102,1.0,0.0,0.0,0.0,1.0,0.0,0.0,0.0,1.0
1463845550959836826,446,1463845550943541148,,8.95833492279,5.89325523376,-76.7012557983,0.0204150006175,1.0,0.0,0.0,0.0,1.0,0.0,0.0,0.0,1.0,109.024391174,-35.1829299927,-21.8902435303,1.0,0.0,0.0,0.0,1.0,0.0,0.0,0.0,1.0,13.1154366943,-18.5119672363,4.29519807058,1.0,0.0,0.0,0.0,1.0,0.0,0.0,0.0,1.0
1463845551028972630,447,1463845550963924287,,7.268014431,7.85181331635,-76.7708740234,0.0204130001366,1.0,0.0,0.0,0.0,1.0,0.0,0.0,0.0,1.0,61.6463394165,-61.2804870605,-1.46341466904,1.0,0.0,0.0,0.0,1.0,0.0,0.0,0.0,1.0,5.8945244873,14.231134668,13.2782424072,1.0,0.0,0.0,0.0,1.0,0.0,0.0,0.0,1.0
1463845551029552706,448,1463845550984358152,,7.39624786377,4.8351225853,-76.893081665,0.0204169992357,1.0,0.0,0.0,0.0,1.0,0.0,0.0,0.0,1.0,-99.2682952881,8.78048801422,-1.15853655338,1.0,0.0,0.0,0.0,1.0,0.0,0.0,0.0,1.0,-0.612915625,-27.6817595947,23.5350023193,1.0,0.0,0.0,0.0,1.0,0.0,0.0,0.0,1.0
1463845551029868212,449,1463845551004867378,,7.00444507599,4.68741512299,-76.5601119995,0.0203959997743,1.0,0.0,0.0,0.0,1.0,0.0,0.0,0.0,1.0,-59.4512176514,-17.1951217651,10.7926826477,1.0,0.0,0.0,0.0,1.0,0.0,0.0,0.0,1.0,2.00155258789,19.7234332764,-11.6070896484,1.0,0.0,0.0,0.0,1.0,0.0,0.0,0.0,1.0
1463845551030148407,450,1463845551025155729,,8.25545883179,13.1638917923,-76.791885376,0.0204099994153,1.0,0.0,0.0,0.0,1.0,0.0,0.0,0.0,1.0,382.073181152,69.207321167,-26.0365848541,1.0,0.0,0.0,0.0,1.0,0.0,0.0,0.0,1.0,1.67115275879,11.2383825928,11.2766898193,1.0,0.0,0.0,0.0,1.0,0.0,0.0,0.0,1.0
1463845551088353534,451,1463845551045631102,,8.38813877106,6.03462076187,-75.953453064,0.0204349998385,1.0,0.0,0.0,0.0,1.0,0.0,0.0,0.0,1.0,-352.439056396,23.1707324982,36.4634170532,1.0,0.0,0.0,0.0,1.0,0.0,0.0,0.0,1.0,2.16435844691,8.74841286621,47.0269090088,1.0,0.0,0.0,0.0,1.0,0.0,0.0,0.0,1.0
1463845551088412489,452,1463845551066029135,,8.72152233124,6.42051458359,-76.0696716309,0.0203990004957,1.0,0.0,0.0,0.0,1.0,0.0,0.0,0.0,1.0,69.9390258789,17.5609760284,-0.487804889679,1.0,0.0,0.0,0.0,1.0,0.0,0.0,0.0,1.0,0.823605371094,-7.88650026855,-3.00711728516,1.0,0.0,0.0,0.0,1.0,0.0,0.0,0.0,1.0
1463845551417878211,453,1463845551086411075,,8.83962440491,7.48251199722,-76.074005127,0.0204029995948,1.0,0.0,0.0,0.0,1.0,0.0,0.0,0.0,1.0,-1.34146344662,-8.59756088257,-7.92682981491,1.0,0.0,0.0,0.0,1.0,0.0,0.0,0.0,1.0,-1.71903679199,7.99663354492,-2.58094938965,1.0,0.0,0.0,0.0,1.0,0.0,0.0,0.0,1.0
1463845551418173196,454,1463845551106753798,,9.45753002167,9.90854358673,-75.4299621582,0.0203949995339,1.0,0.0,0.0,0.0,1.0,0.0,0.0,0.0,1.0,82.2560958862,14.3902444839,23.475610733,1.0,0.0,0.0,0.0,1.0,0.0,0.0,0.0,1.0,-4.2760444573,9.03092866211,-16.6157583524,1.0,0.0,0.0,0.0,1.0,0.0,0.0,0.0,1.0
1463845551418435580,455,1463845551127199328,,9.05264091492,8.84719753265,-75.6027755737,0.0204099994153,1.0,0.0,0.0,0.0,1.0,0.0,0.0,0.0,1.0,-8.65853691101,-11.2804880142,0.12195122242,1.0,0.0,0.0,0.0,1.0,0.0,0.0,0.0,1.0,1.4604630127,-17.401057666,22.0984813232,1.0,0.0,0.0,0.0,1.0,0.0,0.0,0.0,1.0
1463845551418865507,456,1463845551147647776,,8.92432022095,8.5479927063,-75.1372756958,0.0204029995948,1.0,0.0,0.0,0.0,1.0,0.0,0.0,0.0,1.0,-9.87804889679,-4.02439022064,24.3902435303,1.0,0.0,0.0,0.0,1.0,0.0,0.0,0.0,1.0,-4.49631071777,0.253785375977,25.75682146,1.0,0.0,0.0,0.0,1.0,0.0,0.0,0.0,1.0
1463845551419140181,457,1463845551168098046,,8.32303905487,8.40570545197,-75.2565994263,0.0204240009189,1.0,0.0,0.0,0.0,1.0,0.0,0.0,0.0,1.0,49.207321167,-40.2439041138,8.71951198578,1.0,0.0,0.0,0.0,1.0,0.0,0.0,0.0,1.0,-1.11090957031,-5.51145222168,0.737414111328,1.0,0.0,0.0,0.0,1.0,0.0,0.0,0.0,1.0
1463845551419409283,458,1463845551188452331,,7.92899084091,6.26081752777,-75.3396377563,0.0204199999571,1.0,0.0,0.0,0.0,1.0,0.0,0.0,0.0,1.0,-60.1219520569,-3.59756112099,2.37804889679,1.0,0.0,0.0,0.0,1.0,0.0,0.0,0.0,1.0,5.34385810547,-18.8423670654,19.029115964,1.0,0.0,0.0,0.0,1.0,0.0,0.0,0.0,1.0
1463845551419707446,459,1463845551208856301,,7.95431089401,9.29590606689,-75.2682952881,0.0204029995948,1.0,0.0,0.0,0.0,1.0,0.0,0.0,0.0,1.0,99.207321167,6.28048801422,-4.51219558716,1.0,0.0,0.0,0.0,1.0,0.0,0.0,0.0,1.0,6.70855305176,33.2650378662,-21.4041628418,1.0,0.0,0.0,0.0,1.0,0.0,0.0,0.0,1.0
1463845551419973423,460,1463845551229266729,,7.8617978096,11.9606456757,-74.9252624512,0.0204140003771,1.0,0.0,0.0,0.0,1.0,0.0,0.0,0.0,1.0,156.219528198,19.0243911743,17.4390239716,1.0,0.0,0.0,0.0,1.0,0.0,0.0,0.0,1.0,10.5967365479,-14.7770126465,38.4748183406,1.0,0.0,0.0,0.0,1.0,0.0,0.0,0.0,1.0
1463845551420304813,461,1463845551249667105,,7.63726043701,9.28627872467,-75.0340118408,0.0203910004348,1.0,0.0,0.0,0.0,1.0,0.0,0.0,0.0,1.0,-83.9024429321,5.36585378647,-0.548780500889,1.0,0.0,0.0,0.0,1.0,0.0,0.0,0.0,1.0,1.2737152832,-3.93127912598,3.84029946289,1.0,0.0,0.0,0.0,1.0,0.0,0.0,0.0,1.0
1463845551420950928,462,1463845551270086387,,8.35105133057,8.24580192566,-75.1360244751,0.0203970000148,1.0,0.0,0.0,0.0,1.0,0.0,0.0,0.0,1.0,-13.5975618362,23.7195129395,-3.90243911743,1.0,0.0,0.0,0.0,1.0,0.0,0.0,0.0,1.0,-10.314220752,-19.0913640381,29.3385471436,1.0,0.0,0.0,0.0,1.0,0.0,0.0,0.0,1.0
1463845551421293776,463,1463845551290523637,,8.72025775909,4.84802484512,-74.8170547485,0.0204360000789,1.0,0.0,0.0,0.0,1.0,0.0,0.0,0.0,1.0,-152.56098938,24.7560977936,14.5731706619,1.0,0.0,0.0,0.0,1.0,0.0,0.0,0.0,1.0,-0.804451757813,-2.39420180629,16.8264480985,1.0,0.0,0.0,0.0,1.0,0.0,0.0,0.0,1.0
1463845551421572669,464,1463845551311168949,,7.48632240295,7.26414585114,-74.5029830933,0.0203760005534,1.0,0.0,0.0,0.0,1.0,0.0,0.0,0.0,1.0,88.7195129395,-32.5609779358,14.7560987473,1.0,0.0,0.0,0.0,1.0,0.0,0.0,0.0,1.0,3.39976635742,5.31512768555,6.92881960449,1.0,0.0,0.0,0.0,1.0,0.0,0.0,0.0,1.0
1463845551421854583,465,1463845551331756296,,7.55291748047,6.59365844727,-74.2271575928,0.0204329993576,1.0,0.0,0.0,0.0,1.0,0.0,0.0,0.0,1.0,-60.9146347046,2.56097555161,9.32926845551,1.0,0.0,0.0,0.0,1.0,0.0,0.0,0.0,1.0,0.565031591797,2.1930887207,-5.66468112793,1.0,0.0,0.0,0.0,1.0,0.0,0.0,0.0,1.0
1463845551422163057,466,1463845551352024908,,6.71431255341,12.0541124344,-73.4451370239,0.0203930009156,1.0,0.0,0.0,0.0,1.0,0.0,0.0,0.0,1.0,241.463424683,-13.1707324982,38.4756126404,1.0,0.0,0.0,0.0,1.0,0.0,0.0,0.0,1.0,22.7305505615,40.0549937744,66.625848475,1.0,0.0,0.0,0.0,1.0,0.0,0.0,0.0,1.0
1463845551422448096,467,1463845551372407629,,6.39653730392,10.7364578247,-73.6080245972,0.0204499997199,1.0,0.0,0.0,0.0,1.0,0.0,0.0,0.0,1.0,-9.51219558716,-22.9268302917,2.86585378647,1.0,0.0,0.0,0.0,1.0,0.0,0.0,0.0,1.0,-1.99197578125,-21.7297742676,-1.81959326172,1.0,0.0,0.0,0.0,1.0,0.0,0.0,0.0,1.0
1463845551422725166,468,1463845551392507343,,5.73110342026,15.0170764923,-73.4037857056,0.0204169992357,1.0,0.0,0.0,0.0,1.0,0.0,0.0,0.0,1.0,179.146347046,-34.7560997009,14.2073173523,1.0,0.0,0.0,0.0,1.0,0.0,0.0,0.0,1.0,-12.5551935059,51.5663153564,54.1951487793,1.0,0.0,0.0,0.0,1.0,0.0,0.0,0.0,1.0
1463845551512507478,469,1463845551412903761,,6.63679122925,11.61348629,-73.579864502,0.0203479994088,1.0,0.0,0.0,0.0,1.0,0.0,0.0,0.0,1.0,-111.646347046,36.5243911743,-12.0121955872,1.0,0.0,0.0,0.0,1.0,0.0,0.0,0.0,1.0,-2.81558115234,-35.218708759,0.320823022461,1.0,0.0,0.0,0.0,1.0,0.0,0.0,0.0,1.0
1463845551512768559,470,1463845551433368093,,6.57506418228,10.7622041702,-72.7169036865,0.0204210001975,1.0,0.0,0.0,0.0,1.0,0.0,0.0,0.0,1.0,-93.2317123413,23.5975627899,31.9512214661,1.0,0.0,0.0,0.0,1.0,0.0,0.0,0.0,1.0,5.95198532715,10.8457335205,-7.77157858887,1.0,0.0,0.0,0.0,1.0,0.0,0.0,0.0,1.0
1463845551513067138,471,1463845551453703473,,7.05813741684,9.22732543945,-72.1122055054,0.0204199999571,1.0,0.0,0.0,0.0,1.0,0.0,0.0,0.0,1.0,-82.0121994019,39.634147644,21.8902435303,1.0,0.0,0.0,0.0,1.0,0.0,0.0,0.0,1.0,2.1691467041,5.50187541504,21.1886846924,1.0,0.0,0.0,0.0,1.0,0.0,0.0,0.0,1.0
1463845551513358062,472,1463845551474156764,,7.76493024826,8.97505283356,-71.34034729,0.0203799996525,1.0,0.0,0.0,0.0,1.0,0.0,0.0,0.0,1.0,-67.2560958862,62.3780517578,21.2195129395,1.0,0.0,0.0,0.0,1.0,0.0,0.0,0.0,1.0,7.27358464355,16.534356665,0.928950244141,1.0,0.0,0.0,0.0,1.0,0.0,0.0,0.0,1.0
1463845551573455859,473,1463845551494633074,,7.96813869476,11.460682869,-70.6447296143,0.0204380005598,1.0,0.0,0.0,0.0,1.0,0.0,0.0,0.0,1.0,162.439025879,15.7926826477,37.317073822,1.0,0.0,0.0,0.0,1.0,0.0,0.0,0.0,1.0,-1.8626888916,-14.6381489502,14.9206647461,1.0,0.0,0.0,0.0,1.0,0.0,0.0,0.0,1.0
1463845551573762146,474,1463845551515020378,,11.8163318634,7.3035326004,-69.6087112427,0.0204050000757,1.0,0.0,0.0,0.0,1.0,0.0,0.0,0.0,1.0,-171.768295288,182.195129395,26.3414649963,1.0,0.0,0.0,0.0,1.0,0.0,0.0,0.0,1.0,-13.9821376953,-25.3785375977,32.3696064453,1.0,0.0,0.0,0.0,1.0,0.0,0.0,0.0,1.0
1463845551574059945,475,1463845551535453618,,14.7101669312,5.48156070709,-68.2670211792,0.0204060003161,1.0,0.0,0.0,0.0,1.0,0.0,0.0,0.0,1.0,-107.56098175,157.926834106,45.3048782349,1.0,0.0,0.0,0.0,1.0,0.0,0.0,0.0,1.0,-0.46447512207,3.91691391602,20.2597344482,1.0,0.0,0.0,0.0,1.0,0.0,0.0,0.0,1.0
1463845551574346910,476,1463845551555848213,,16.5123176575,1.12658703327,-67.5961532593,0.0204140003771,1.0,0.0,0.0,0.0,1.0,0.0,0.0,0.0,1.0,-211.097564697,145.182922363,23.7195129395,1.0,0.0,0.0,0.0,1.0,0.0,0.0,0.0,1.0,16.5104146484,-3.05021291504,4.86022937012,1.0,0.0,0.0,0.0,1.0,0.0,0.0,0.0,1.0
1463845551642356463,477,1463845551576232549,,18.8421840668,0.733841359615,-67.9455108643,0.020408000797,1.0,0.0,0.0,0.0,1.0,0.0,0.0,0.0,1.0,19.6951236725,109.329269409,-8.41463470459,1.0,0.0,0.0,0.0,1.0,0.0,0.0,0.0,1.0,-7.24485422363,-14.5711113037,18.0618573242,1.0,0.0,0.0,0.0,1.0,0.0,0.0,0.0,1.0
1463845551642693322,478,1463845551596624957,,21.2058811188,-0.881003975868,-68.2446670532,0.0204039998353,1.0,0.0,0.0,0.0,1.0,0.0,0.0,0.0,1.0,-72.0121994019,111.829269409,-13.2926826477,1.0,0.0,0.0,0.0,1.0,0.0,0.0,0.0,1.0,-7.48427438965,-0.407014282227,17.9277820313,1.0,0.0,0.0,0.0,1.0,0.0,0.0,0.0,1.0
1463845551643026691,479,1463845551617006063,,22.9722194672,-2.90064406395,-69.2598342896,0.0204000007361,1.0,0.0,0.0,0.0,1.0,0.0,0.0,0.0,1.0,-28.1097564697,76.8292694092,-23.3536586761,1.0,0.0,0.0,0.0,1.0,0.0,0.0,0.0,1.0,-2.82515795898,-14.6429373535,-0.588973571866,1.0,0.0,0.0,0.0,1.0,0.0,0.0,0.0,1.0
1463845551643338187,480,1463845551637488780,,24.4658031464,-2.83988857269,-70.0432662964,0.0204160008579,1.0,0.0,0.0,0.0,1.0,0.0,0.0,0.0,1.0,-17.6829280853,51.9512214661,-48.4146347046,1.0,0.0,0.0,0.0,1.0,0.0,0.0,0.0,1.0,-3.09330854492,15.4713311279,-13.9534072754,1.0,0.0,0.0,0.0,1.0,0.0,0.0,0.0,1.0
1463845551758223931,481,1463845551657853637,,22.8196430206,0.260691910982,-70.6889953613,0.0204000007361,1.0,0.0,0.0,0.0,1.0,0.0,0.0,0.0,1.0,199.268295288,-47.8048782349,-13.5975618362,1.0,0.0,0.0,0.0,1.0,0.0,0.0,0.0,1.0,10.2184526855,-20.2453692383,18.4497179932,1.0,0.0,0.0,0.0,1.0,0.0,0.0,0.0,1.0
1463845551759508974,482,1463845551678224588,,22.886297226,-3.26783680916,-71.1605682373,0.0204140003771,1.0,0.0,0.0,0.0,1.0,0.0,0.0,0.0,1.0,-199.817077637,23.658536911,-36.7682952881,1.0,0.0,0.0,0.0,1.0,0.0,0.0,0.0,1.0,1.56101948242,12.4594254395,12.8281324951,1.0,0.0,0.0,0.0,1.0,0.0,0.0,0.0,1.0
1463845551762831523,483,1463845551698713137,,21.1101837158,1.74934506416,-71.8490600586,0.020422000438,1.0,0.0,0.0,0.0,1.0,0.0,0.0,0.0,1.0,222.073181152,-74.0853729248,-47.5,1.0,0.0,0.0,0.0,1.0,0.0,0.0,0.0,1.0,-7.75721337891,83.6055219727,92.7753143311,1.0,0.0,0.0,0.0,1.0,0.0,0.0,0.0,1.0
1463845551763146456,484,1463845551719096327,,19.8364486694,4.16282844543,-72.7932662964,0.0203920006752,1.0,0.0,0.0,0.0,1.0,0.0,0.0,0.0,1.0,120.792678833,-39.5121955872,-46.4634170532,1.0,0.0,0.0,0.0,1.0,0.0,0.0,0.0,1.0,7.45075556641,18.6604077393,59.0601665527,1.0,0.0,0.0,0.0,1.0,0.0,0.0,0.0,1.0
1463845551763747469,485,1463845551739443165,,19.5992469788,5.31814861298,-73.2443389893,0.0204130001366,1.0,0.0,0.0,0.0,1.0,0.0,0.0,0.0,1.0,12.6219520569,-15.0609760284,-38.7195129395,1.0,0.0,0.0,0.0,1.0,0.0,0.0,0.0,1.0,-1.77170922852,23.0465851807,3.42370837402,1.0,0.0,0.0,0.0,1.0,0.0,0.0,0.0,1.0
1463845551764192499,486,1463845551759902184,,18.6129360199,7.67030286789,-74.4020309448,0.0203980002552,1.0,0.0,0.0,0.0,1.0,0.0,0.0,0.0,1.0,181.402435303,-33.9024391174,-32.865852356,1.0,0.0,0.0,0.0,1.0,0.0,0.0,0.0,1.0,4.32871689382,-17.3340211886,10.5153336914,1.0,0.0,0.0,0.0,1.0,0.0,0.0,0.0,1.0
1463845551816863673,487,1463845551780307508,,19.4938488007,2.42244458199,-74.4266586304,0.0204310007393,1.0,0.0,0.0,0.0,1.0,0.0,0.0,0.0,1.0,-277.073181152,23.9024391174,-9.75609779358,1.0,0.0,0.0,0.0,1.0,0.0,0.0,0.0,1.0,-9.2176763916,7.65186850586,10.6494089844,1.0,0.0,0.0,0.0,1.0,0.0,0.0,0.0,1.0
1463845551817344535,488,1463845551800948915,,19.6261959076,6.32305669785,-74.1478500366,0.0203930009156,1.0,0.0,0.0,0.0,1.0,0.0,0.0,0.0,1.0,135.548782349,9.63414573669,-6.46341466904,1.0,0.0,0.0,0.0,1.0,0.0,0.0,0.0,1.0,3.48595761719,24.2053787842,-6.15788666992,1.0,0.0,0.0,0.0,1.0,0.0,0.0,0.0,1.0
1463845551866409372,489,1463845551821097324,,20.4491329193,3.05482363701,-74.9539794922,0.0204109996557,1.0,0.0,0.0,0.0,1.0,0.0,0.0,0.0,1.0,-110.975616455,44.817073822,-28.5975608826,1.0,0.0,0.0,0.0,1.0,0.0,0.0,0.0,1.0,-4.8171340325,-20.240580835,28.2707332031,1.0,0.0,0.0,0.0,1.0,0.0,0.0,0.0,1.0
1463845551866850444,490,1463845551841694723,,21.6944389343,3.44450068474,-74.8401641846,0.0204189997166,1.0,0.0,0.0,0.0,1.0,0.0,0.0,0.0,1.0,31.5853652954,81.5853652954,5.60975599289,1.0,0.0,0.0,0.0,1.0,0.0,0.0,0.0,1.0,0.478840332031,-3.90254870605,17.8894748047,1.0,0.0,0.0,0.0,1.0,0.0,0.0,0.0,1.0
1463845551867189230,491,1463845551862229103,,23.6605472565,1.26680660248,-74.9166259766,0.0203799996525,1.0,0.0,0.0,0.0,1.0,0.0,0.0,0.0,1.0,-82.4390258789,104.512199402,0.792682945728,1.0,0.0,0.0,0.0,1.0,0.0,0.0,0.0,1.0,-9.29907866352,-17.6309010254,42.4060998047,1.0,0.0,0.0,0.0,1.0,0.0,0.0,0.0,1.0
1463845551911127697,492,1463845551882246738,,24.9867210388,2.18167853355,-74.3925552368,0.0204160008579,1.0,0.0,0.0,0.0,1.0,0.0,0.0,0.0,1.0,-11.0365858078,82.5,0.487804889679,1.0,0.0,0.0,0.0,1.0,0.0,0.0,0.0,1.0,0.742202514648,4.63038601074,2.25054956055,1.0,0.0,0.0,0.0,1.0,0.0,0.0,0.0,1.0
1463845551911580436,493,1463845551902756536,,24.607006073,6.269718647,-74.6035232544,0.0204089991748,1.0,0.0,0.0,0.0,1.0,0.0,0.0,0.0,1.0,182.987808228,6.09756088257,-19.6341457367,1.0,0.0,0.0,0.0,1.0,0.0,0.0,0.0,1.0,5.70777675781,28.7974575684,53.92220979,1.0,0.0,0.0,0.0,1.0,0.0,0.0,0.0,1.0
1463845551959199977,494,1463845551923089312,,25.194355011,5.98172950745,-75.9119873047,0.0203959997743,1.0,0.0,0.0,0.0,1.0,0.0,0.0,0.0,1.0,61.5853691101,18.9024391174,-38.2926864624,1.0,0.0,0.0,0.0,1.0,0.0,0.0,0.0,1.0,-4.38138903809,-17.4249996826,7.00543405762,1.0,0.0,0.0,0.0,1.0,0.0,0.0,0.0,1.0
1463845551959650111,495,1463845551943547914,,25.3119487762,6.54825162888,-77.606552124,0.0204189997166,1.0,0.0,0.0,0.0,1.0,0.0,0.0,0.0,1.0,104.39025116,-25.3048782349,-53.4756126404,1.0,0.0,0.0,0.0,1.0,0.0,0.0,0.0,1.0,-4.64953933176,-19.1536144503,-10.8840407471,1.0,0.0,0.0,0.0,1.0,0.0,0.0,0.0,1.0
1463845551981056690,496,1463845551963937562,,26.3079471588,2.40826439857,-78.4024276733,0.0204119998962,1.0,0.0,0.0,0.0,1.0,0.0,0.0,0.0,1.0,-194.207321167,65.3048782349,-45.4268302917,1.0,0.0,0.0,0.0,1.0,0.0,0.0,0.0,1.0,-3.43807358398,13.8720044189,47.7355927002,1.0,0.0,0.0,0.0,1.0,0.0,0.0,0.0,1.0
1463845551991549937,497,1463845551984334449,,26.8708972931,3.92238688469,-78.960647583,0.0204009991139,1.0,0.0,0.0,0.0,1.0,0.0,0.0,0.0,1.0,56.5853691101,15.3048791885,-40.8536605835,1.0,0.0,0.0,0.0,1.0,0.0,0.0,0.0,1.0,1.32159931641,3.82114584961,-5.42526096191,1.0,0.0,0.0,0.0,1.0,0.0,0.0,0.0,1.0
1463845552007600886,498,1463845552004691495,,27.3702774048,3.29703712463,-79.8660964966,0.0204019993544,1.0,0.0,0.0,0.0,1.0,0.0,0.0,0.0,1.0,11.7073173523,21.8292694092,-30.0000019073,1.0,0.0,0.0,0.0,1.0,0.0,0.0,0.0,1.0,-10.7260234375,-9.64863327495,21.3562788086,1.0,0.0,0.0,0.0,1.0,0.0,0.0,0.0,1.0
1463845552028039698,499,1463845552026068699,,29.4760475159,3.06253385544,-80.3050460815,0.0210890006274,1.0,0.0,0.0,0.0,1.0,0.0,0.0,0.0,1.0,5.67073154449,47.134147644,-17.8658542633,1.0,0.0,0.0,0.0,1.0,0.0,0.0,0.0,1.0,-17.4249996826,-2.29843359375,-0.957680664062,1.0,0.0,0.0,0.0,1.0,0.0,0.0,0.0,1.0
1463845552053667844,500,1463845552047239558,,29.3545246124,-2.54249453545,-80.5997467041,0.0205760002136,1.0,0.0,0.0,0.0,1.0,0.0,0.0,0.0,1.0,-289.146362305,7.80487823486,-26.8902454376,1.0,0.0,0.0,0.0,1.0,0.0,0.0,0.0,1.0,17.3435979952,12.004527124,-16.6732191923,1.0,0.0,0.0,0.0,1.0,0.0,0.0,0.0,1.0
1463845552075940421,501,1463845552066048500,,30.6619548798,6.10216999054,-80.6903915405,0.0195739995688,1.0,0.0,0.0,0.0,1.0,0.0,0.0,0.0,1.0,448.231719971,97.9268341064,-3.17073178291,1.0,0.0,0.0,0.0,1.0,0.0,0.0,0.0,1.0,2.10210891149,-2.56658417969,25.9196271729,1.0,0.0,0.0,0.0,1.0,0.0,0.0,0.0,1.0
1463845552094807017,502,1463845552086505071,,30.7819766998,0.959290444851,-81.868812561,0.0204109996557,1.0,0.0,0.0,0.0,1.0,0.0,0.0,0.0,1.0,-196.768295288,26.8902454376,-37.6219520569,1.0,0.0,0.0,0.0,1.0,0.0,0.0,0.0,1.0,-2.07337849156,-23.4966950928,49.4163222656,1.0,0.0,0.0,0.0,1.0,0.0,0.0,0.0,1.0
1463845552118803991,503,1463845552107165695,,31.3354091644,3.58695793152,-82.304901123,0.0203990004957,1.0,0.0,0.0,0.0,1.0,0.0,0.0,0.0,1.0,112.560974121,-6.09756088257,-35.7926826477,1.0,0.0,0.0,0.0,1.0,0.0,0.0,0.0,1.0,-3.84029946289,12.6365963623,-18.3156438692,1.0,0.0,0.0,0.0,1.0,0.0,0.0,0.0,1.0
1463845552150831830,504,1463845552127337956,,32.9767570496,0.0653856098652,-84.701675415,0.0205279998481,1.0,0.0,0.0,0.0,1.0,0.0,0.0,0.0,1.0,-69.0243911743,46.4024391174,-74.8780441284,1.0,0.0,0.0,0.0,1.0,0.0,0.0,0.0,1.0,-20.3890213379,-33.9066839111,-7.53215842285,1.0,0.0,0.0,0.0,1.0,0.0,0.0,0.0,1.0
1463845552151012706,505,1463845552147694428,,31.6918621063,2.26586055756,-85.1639022827,0.0203300006688,1.0,0.0,0.0,0.0,1.0,0.0,0.0,0.0,1.0,92.2560958862,-51.8902435303,-36.6463432312,1.0,0.0,0.0,0.0,1.0,0.0,0.0,0.0,1.0,6.65109221191,6.62715019531,-5.77002600098,1.0,0.0,0.0,0.0,1.0,0.0,0.0,0.0,1.0
1463845552169956954,506,1463845552167987465,,30.3734645844,-0.906284630299,-87.4549026489,0.020361000672,1.0,0.0,0.0,0.0,1.0,0.0,0.0,0.0,1.0,-70.6707382202,-93.4756088257,-77.5,1.0,0.0,0.0,0.0,1.0,0.0,0.0,0.0,1.0,-3.53863005371,-35.7214887695,-48.3868155518,1.0,0.0,0.0,0.0,1.0,0.0,0.0,0.0,1.0
1463845552265804232,507,1463845552188688035,,30.7400989532,-1.48316967487,-87.9088363647,0.0204349998385,1.0,0.0,0.0,0.0,1.0,0.0,0.0,0.0,1.0,-54.9390258789,-4.87804889679,-41.9512214661,1.0,0.0,0.0,0.0,1.0,0.0,0.0,0.0,1.0,-3.18428820801,22.5964752686,-16.9557361572,1.0,0.0,0.0,0.0,1.0,0.0,0.0,0.0,1.0
1463845552270307506,508,1463845552209172417,,31.5238342285,2.27324199677,-88.3478393555,0.0204050000757,1.0,0.0,0.0,0.0,1.0,0.0,0.0,0.0,1.0,217.317077637,61.524394989,-5.48780488968,1.0,0.0,0.0,0.0,1.0,0.0,0.0,0.0,1.0,-0.593762048251,-6.19140549316,11.8656634277,1.0,0.0,0.0,0.0,1.0,0.0,0.0,0.0,1.0
1463845552270798368,509,1463845552229578730,,31.6517868042,-1.53920888901,-88.7047195435,0.0204099994153,1.0,0.0,0.0,0.0,1.0,0.0,0.0,0.0,1.0,-166.707321167,36.8902435303,-9.63414573669,1.0,0.0,0.0,0.0,1.0,0.0,0.0,0.0,1.0,2.70065947266,-12.3301385498,65.1414434457,1.0,0.0,0.0,0.0,1.0,0.0,0.0,0.0,1.0
1463845552272462559,510,1463845552250117537,,32.7058181763,-0.947616994381,-88.4103851318,0.0204130001366,1.0,0.0,0.0,0.0,1.0,0.0,0.0,0.0,1.0,-21.4024391174,31.9512214661,-14.3902444839,1.0,0.0,0.0,0.0,1.0,0.0,0.0,0.0,1.0,-1.95366855469,11.884817041,-5.15232197266,1.0,0.0,0.0,0.0,1.0,0.0,0.0,0.0,1.0
1463845552326328309,511,1463845552270427656,,32.9309921265,-3.1699051857,-89.2794494629,0.0203970000148,1.0,0.0,0.0,0.0,1.0,0.0,0.0,0.0,1.0,-38.0487823486,13.4146347046,-4.63414621353,1.0,0.0,0.0,0.0,1.0,0.0,0.0,0.0,1.0,0.0335188255255,-10.5488525146,0.502782348633,1.0,0.0,0.0,0.0,1.0,0.0,0.0,0.0,1.0
1463845552338808595,512,1463845552290535025,,34.0788383484,-4.95083236694,-89.7299957275,0.0203990004957,1.0,0.0,0.0,0.0,1.0,0.0,0.0,0.0,1.0,-67.7439041138,76.8292694092,-8.90243911743,1.0,0.0,0.0,0.0,1.0,0.0,0.0,0.0,1.0,-10.2184526855,-9.91199487305,46.9502945557,1.0,0.0,0.0,0.0,1.0,0.0,0.0,0.0,1.0
1463845552382196410,513,1463845552311764007,,34.0958404541,-6.02156114578,-89.325958252,0.0204399991781,1.0,0.0,0.0,0.0,1.0,0.0,0.0,0.0,1.0,-103.719512939,1.15853655338,-11.4634151459,1.0,0.0,0.0,0.0,1.0,0.0,0.0,0.0,1.0,5.43483776855,17.2717707764,-6.4595560791,1.0,0.0,0.0,0.0,1.0,0.0,0.0,0.0,1.0
1463845552382707532,514,1463845552331409263,,32.6268692017,-0.957858920097,-89.3826904297,0.0203699991107,1.0,0.0,0.0,0.0,1.0,0.0,0.0,0.0,1.0,270.792694092,-23.0487823486,12.1341466904,1.0,0.0,0.0,0.0,1.0,0.0,0.0,0.0,1.0,18.4449295898,-11.3149970459,10.2567599121,1.0,0.0,0.0,0.0,1.0,0.0,0.0,0.0,1.0
1463845552383839665,515,1463845552351786306,,32.4724235535,-1.87092864513,-89.8760910034,0.0204150006175,1.0,0.0,0.0,0.0,1.0,0.0,0.0,0.0,1.0,-43.4756126404,14.6951217651,-28.0487804413,1.0,0.0,0.0,0.0,1.0,0.0,0.0,0.0,1.0,-3.54341845703,5.54975944824,22.5007072021,1.0,0.0,0.0,0.0,1.0,0.0,0.0,0.0,1.0
1463845552385016744,516,1463845552372373809,,30.9916172028,-1.52165937424,-90.9884719849,0.0204850006849,1.0,0.0,0.0,0.0,1.0,0.0,0.0,0.0,1.0,88.6585388184,-50.6707344055,-20.0609760284,1.0,0.0,0.0,0.0,1.0,0.0,0.0,0.0,1.0,2.30322199707,-10.3812583984,4.22337143625,1.0,0.0,0.0,0.0,1.0,0.0,0.0,0.0,1.0
1463845552444024747,517,1463845552392539039,,31.0401496887,-2.88403224945,-91.130569458,0.0203310009092,1.0,0.0,0.0,0.0,1.0,0.0,0.0,0.0,1.0,-87.5609741211,26.0975627899,-20.2439022064,1.0,0.0,0.0,0.0,1.0,0.0,0.0,0.0,1.0,-0.483628735352,6.4834980957,11.8321446045,1.0,0.0,0.0,0.0,1.0,0.0,0.0,0.0,1.0
1463845552444771638,518,1463845552413007329,,31.8403110504,-1.37424838543,-91.4291381836,0.0204659998417,1.0,0.0,0.0,0.0,1.0,0.0,0.0,0.0,1.0,53.7195129395,30.4268321991,-28.7804889679,1.0,0.0,0.0,0.0,1.0,0.0,0.0,0.0,1.0,-5.41089575195,5.35343491211,6.04775339355,1.0,0.0,0.0,0.0,1.0,0.0,0.0,0.0,1.0
1463845552476520220,519,1463845552433371300,,32.0328674316,-2.11181807518,-92.0073394775,0.0203440003097,1.0,0.0,0.0,0.0,1.0,0.0,0.0,0.0,1.0,-29.8780498505,12.4390249252,-29.5121974945,1.0,0.0,0.0,0.0,1.0,0.0,0.0,0.0,1.0,-7.73805976562,2.67671745605,13.8336971924,1.0,0.0,0.0,0.0,1.0,0.0,0.0,0.0,1.0
1463845552476797602,520,1463845552454769076,,30.8221645355,-1.6710960865,-92.6632461548,0.0204160008579,1.0,0.0,0.0,0.0,1.0,0.0,0.0,0.0,1.0,39.817073822,-17.4390239716,-27.0731716156,1.0,0.0,0.0,0.0,1.0,0.0,0.0,0.0,1.0,10.2567599121,-0.177170922852,-1.91536132812,1.0,0.0,0.0,0.0,1.0,0.0,0.0,0.0,1.0
1463845552519440974,521,1463845552477395490,,31.4945602417,0.285657733679,-93.7296142578,0.0234539993107,1.0,0.0,0.0,0.0,1.0,0.0,0.0,0.0,1.0,143.231719971,48.1097602844,-16.5853652954,1.0,0.0,0.0,0.0,1.0,0.0,0.0,0.0,1.0,0.105344873047,-15.3564094482,13.3596452637,1.0,0.0,0.0,0.0,1.0,0.0,0.0,0.0,1.0
1463845552519785905,522,1463845552494555605,,32.6591796875,-0.386837095022,-93.1207275391,0.0173569992185,1.0,0.0,0.0,0.0,1.0,0.0,0.0,0.0,1.0,-62.4390258789,48.3536567688,26.0365848541,1.0,0.0,0.0,0.0,1.0,0.0,0.0,0.0,1.0,-27.2316496826,4.11802685547,22.3235362793,1.0,0.0,0.0,0.0,1.0,0.0,0.0,0.0,1.0
1463845552549110228,523,1463845552515035196,,32.5414199829,0.226312845945,-92.8505554199,0.0204550009221,1.0,0.0,0.0,0.0,1.0,0.0,0.0,0.0,1.0,2.01219511032,18.9634151459,-2.68292689323,1.0,0.0,0.0,0.0,1.0,0.0,0.0,0.0,1.0,-1.47482822266,13.4123177002,27.327417749,1.0,0.0,0.0,0.0,1.0,0.0,0.0,0.0,1.0
1463845552549749885,524,1463845552535370470,,33.3231124878,-4.65794420242,-93.4507293701,0.0203770007938,1.0,0.0,0.0,0.0,1.0,0.0,0.0,0.0,1.0,-209.329269409,76.3414611816,-14.3292694092,1.0,0.0,0.0,0.0,1.0,0.0,0.0,0.0,1.0,21.5478149414,-35.0989963379,110.602539893,1.0,0.0,0.0,0.0,1.0,0.0,0.0,0.0,1.0
1463845552591603346,525,1463845552556322903,,32.1364173889,-2.03222060204,-94.1386108398,0.0209609996527,1.0,0.0,0.0,0.0,1.0,0.0,0.0,0.0,1.0,138.475616455,-18.5365848541,-31.158536911,1.0,0.0,0.0,0.0,1.0,0.0,0.0,0.0,1.0,2.52827695312,0.507570751953,19.7521636963,1.0,0.0,0.0,0.0,1.0,0.0,0.0,0.0,1.0
1463845552591676051,526,1463845552577231848,,31.8289318085,-2.37780737877,-94.9341659546,0.0198519993573,1.0,0.0,0.0,0.0,1.0,0.0,0.0,0.0,1.0,51.0365867615,-8.65853691101,-4.63414621353,1.0,0.0,0.0,0.0,1.0,0.0,0.0,0.0,1.0,0.526724328702,-24.2867816406,4.12281525879,1.0,0.0,0.0,0.0,1.0,0.0,0.0,0.0,1.0
1463845552622412494,527,1463845552597493220,,32.5314178467,-7.30389785767,-95.3146896362,0.0212379992008,1.0,0.0,0.0,0.0,1.0,0.0,0.0,0.0,1.0,-234.939041138,16.6463413239,-21.0975627899,1.0,0.0,0.0,0.0,1.0,0.0,0.0,0.0,1.0,2.44687409668,3.26090266113,-10.1083194092,1.0,0.0,0.0,0.0,1.0,0.0,0.0,0.0,1.0
1463845552623714775,528,1463845552618144782,,31.2596073151,0.273423194885,-95.9669952393,0.0196139998734,1.0,0.0,0.0,0.0,1.0,0.0,0.0,0.0,1.0,387.865875244,-36.2195129395,-39.6951217651,1.0,0.0,0.0,0.0,1.0,0.0,0.0,0.0,1.0,-1.26892687988,7.25443103027,29.0895501709,1.0,0.0,0.0,0.0,1.0,0.0,0.0,0.0,1.0
1463845552662435626,529,1463845552637436513,,31.6570720673,-4.47036170959,-96.7485351562,0.0203750003129,1.0,0.0,0.0,0.0,1.0,0.0,0.0,0.0,1.0,-197.865859985,50.6097564697,-23.3536586761,1.0,0.0,0.0,0.0,1.0,0.0,0.0,0.0,1.0,2.7102362793,-18.8040598389,59.2612794922,1.0,0.0,0.0,0.0,1.0,0.0,0.0,0.0,1.0
1463845552663453546,530,1463845552657863866,,29.9928588867,-0.769460201263,-96.9137268066,0.0204130001366,1.0,0.0,0.0,0.0,1.0,0.0,0.0,0.0,1.0,152.317077637,-56.0365867615,-29.6951236725,1.0,0.0,0.0,0.0,1.0,0.0,0.0,0.0,1.0,3.0885201416,31.9865341797,38.0678063965,1.0,0.0,0.0,0.0,1.0,0.0,0.0,0.0,1.0
1463845552705382160,531,1463845552679169772,,31.2058258057,-3.93060135841,-98.3125457764,0.0211479999125,1.0,0.0,0.0,0.0,1.0,0.0,0.0,0.0,1.0,-77.3170776367,24.1463432312,-32.8048782349,1.0,0.0,0.0,0.0,1.0,0.0,0.0,0.0,1.0,-17.3196548096,-22.7592809814,-6.21534750977,1.0,0.0,0.0,0.0,1.0,0.0,0.0,0.0,1.0
1463845552706234047,532,1463845552698655764,,30.6819820404,-7.94875955582,-99.3895187378,0.0196509994566,1.0,0.0,0.0,0.0,1.0,0.0,0.0,0.0,1.0,-144.390258789,17.8658542633,-27.1951236725,1.0,0.0,0.0,0.0,1.0,0.0,0.0,0.0,1.0,5.10443793945,-4.79798041921,1.34075292969,1.0,0.0,0.0,0.0,1.0,0.0,0.0,0.0,1.0
1463845552744338417,533,1463845552719018485,,32.6835746765,-11.2272262573,-100.888221741,0.0204050000757,1.0,0.0,0.0,0.0,1.0,0.0,0.0,0.0,1.0,-96.2804870605,73.4146347046,-34.5731735229,1.0,0.0,0.0,0.0,1.0,0.0,0.0,0.0,1.0,-3.73016618652,-10.180145459,-22.7640693848,1.0,0.0,0.0,0.0,1.0,0.0,0.0,0.0,1.0
1463845552753585890,534,1463845552740421157,,32.7717704773,-8.89294052124,-101.645721436,0.0204199999571,1.0,0.0,0.0,0.0,1.0,0.0,0.0,0.0,1.0,105.548782349,33.0487823486,-44.6341438293,1.0,0.0,0.0,0.0,1.0,0.0,0.0,0.0,1.0,-0.871489404297,5.19062919922,10.2471831055,1.0,0.0,0.0,0.0,1.0,0.0,0.0,0.0,1.0
1463845552770735745,535,1463845552759844340,,31.8324756622,-6.86916065216,-102.854934692,0.0203980002552,1.0,0.0,0.0,0.0,1.0,0.0,0.0,0.0,1.0,159.146347046,-49.207321167,-39.1463432312,1.0,0.0,0.0,0.0,1.0,0.0,0.0,0.0,1.0,-9.07402429199,-11.2479593994,8.48983967144,1.0,0.0,0.0,0.0,1.0,0.0,0.0,0.0,1.0
1463845552785030788,536,1463845552780247320,,32.776512146,-8.54326629639,-103.293739319,0.0204099994153,1.0,0.0,0.0,0.0,1.0,0.0,0.0,0.0,1.0,-79.0243911743,68.5975570679,-15.0000009537,1.0,0.0,0.0,0.0,1.0,0.0,0.0,0.0,1.0,-8.79150849609,3.12203896484,47.0221206055,1.0,0.0,0.0,0.0,1.0,0.0,0.0,0.0,1.0
1463845552805583240,537,1463845552800768263,,34.5348243713,-9.48820781708,-103.502464294,0.0204140003771,1.0,0.0,0.0,0.0,1.0,0.0,0.0,0.0,1.0,-42.5,33.8414649963,-4.57317066193,1.0,0.0,0.0,0.0,1.0,0.0,0.0,0.0,1.0,-40.7397354492,3.29442148437,-8.45631967915,1.0,0.0,0.0,0.0,1.0,0.0,0.0,0.0,1.0
1463845552828125076,538,1463845552821127807,,31.9742584229,-13.9994449615,-104.110931396,0.0204210001975,1.0,0.0,0.0,0.0,1.0,0.0,0.0,0.0,1.0,-224.695129395,-77.0121994019,-57.0121955872,1.0,0.0,0.0,0.0,1.0,0.0,0.0,0.0,1.0,7.55610043945,8.31266757954,27.5428958984,1.0,0.0,0.0,0.0,1.0,0.0,0.0,0.0,1.0
1463845552862370621,539,1463845552841623022,,30.7192459106,-14.1908845901,-104.885543823,0.0203970000148,1.0,0.0,0.0,0.0,1.0,0.0,0.0,0.0,1.0,34.9390258789,-90.0,-40.1219520569,1.0,0.0,0.0,0.0,1.0,0.0,0.0,0.0,1.0,-1.95845695801,-2.83952316895,-9.33738589009,1.0,0.0,0.0,0.0,1.0,0.0,0.0,0.0,1.0
1463845552878820144,540,1463845552861955328,,28.6056060791,-15.6115550995,-104.755119324,0.0203959997743,1.0,0.0,0.0,0.0,1.0,0.0,0.0,0.0,1.0,-98.1707305908,-106.951225281,-38.4756126404,1.0,0.0,0.0,0.0,1.0,0.0,0.0,0.0,1.0,-10.0891657959,6.31111557617,13.4793553467,1.0,0.0,0.0,0.0,1.0,0.0,0.0,0.0,1.0
1463845552890413755,541,1463845552882828181,,26.0324287415,-13.9345245361,-104.521606445,0.0209650006145,1.0,0.0,0.0,0.0,1.0,0.0,0.0,0.0,1.0,33.2926826477,-115.000007629,-43.9634170532,1.0,0.0,0.0,0.0,1.0,0.0,0.0,0.0,1.0,-4.31914008718,11.9805851074,12.0476227539,1.0,0.0,0.0,0.0,1.0,0.0,0.0,0.0,1.0
1463845552908083897,542,1463845552902975027,,23.8146476746,-14.2933921814,-104.128013611,0.0199469998479,1.0,0.0,0.0,0.0,1.0,0.0,0.0,0.0,1.0,-74.5121917725,-121.707328796,-36.8292694092,1.0,0.0,0.0,0.0,1.0,0.0,0.0,0.0,1.0,-5.11880314941,15.6437136475,4.14196887207,1.0,0.0,0.0,0.0,1.0,0.0,0.0,0.0,1.0
1463845552935228272,543,1463845552923105572,,23.2501621246,-16.3093566895,-104.465270996,0.0203210003674,1.0,0.0,0.0,0.0,1.0,0.0,0.0,0.0,1.0,-82.9878005981,-2.01219511032,-12.3780488968,1.0,0.0,0.0,0.0,1.0,0.0,0.0,0.0,1.0,0.292092584273,-14.5040736572,31.4454446045,1.0,0.0,0.0,0.0,1.0,0.0,0.0,0.0,1.0
1463845552964666183,544,1463845552961980218,,20.0761394501,-9.74979305267,-102.338020325,0.0251599997282,1.0,0.0,0.0,0.0,1.0,0.0,0.0,0.0,1.0,210.853668213,-189.268295288,24.8780498505,1.0,0.0,0.0,0.0,1.0,0.0,0.0,0.0,1.0,-36.4589052189,22.4671883789,-15.9741134766,1.0,0.0,0.0,0.0,1.0,0.0,0.0,0.0,1.0
1463845552966942064,545,1463845552965198137,,19.2623786926,-9.35207366943,-102.421234131,0.0168190002441,1.0,0.0,0.0,0.0,1.0,0.0,0.0,0.0,1.0,62.5,-65.4268341064,-2.13414645195,1.0,0.0,0.0,0.0,1.0,0.0,0.0,0.0,1.0,-1.32159931641,-24.0904571045,-35.8364104492,1.0,0.0,0.0,0.0,1.0,0.0,0.0,0.0,1.0
1463845553029595517,546,1463845552984410861,,17.0250091553,-9.99882125854,-102.787368774,0.0192520003766,1.0,0.0,0.0,0.0,1.0,0.0,0.0,0.0,1.0,23.2926845551,-124.39025116,-21.4024391174,1.0,0.0,0.0,0.0,1.0,0.0,0.0,0.0,1.0,-2.59531459961,-36.2146943115,-19.2589593233,1.0,0.0,0.0,0.0,1.0,0.0,0.0,0.0,1.0
1463845553030172989,547,1463845553004628590,,16.1471767426,-10.6927537918,-101.77381134,0.0203889999539,1.0,0.0,0.0,0.0,1.0,0.0,0.0,0.0,1.0,-97.5609741211,-34.8780479431,26.158536911,1.0,0.0,0.0,0.0,1.0,0.0,0.0,0.0,1.0,3.55299526367,20.2214272217,12.6796919922,1.0,0.0,0.0,0.0,1.0,0.0,0.0,0.0,1.0
1463845553030731972,548,1463845553026368015,,16.5656795502,-6.7063293457,-101.085136414,0.0204109996557,1.0,0.0,0.0,0.0,1.0,0.0,0.0,0.0,1.0,219.024398804,33.3536605835,47.9878044128,1.0,0.0,0.0,0.0,1.0,0.0,0.0,0.0,1.0,4.14675698313,-20.4081749512,18.3539499268,1.0,0.0,0.0,0.0,1.0,0.0,0.0,0.0,1.0
1463845553049821160,549,1463845553048312483,,16.59740448,-10.493844986,-100.834144592,0.0210050009191,1.0,0.0,0.0,0.0,1.0,0.0,0.0,0.0,1.0,-230.731719971,1.2195122242,-2.68292689323,1.0,0.0,0.0,0.0,1.0,0.0,0.0,0.0,1.0,-2.16435844691,12.7850368652,9.11233151855,1.0,0.0,0.0,0.0,1.0,0.0,0.0,0.0,1.0
1463845553076228122,550,1463845553066135013,,17.8917274475,-8.49619197845,-100.746070862,0.0198260005563,1.0,0.0,0.0,0.0,1.0,0.0,0.0,0.0,1.0,139.695129395,89.4512252808,31.7682914734,1.0,0.0,0.0,0.0,1.0,0.0,0.0,0.0,1.0,4.93684382324,-11.391611499,6.00944616699,1.0,0.0,0.0,0.0,1.0,0.0,0.0,0.0,1.0
1463845553109938483,551,1463845553086454871,,18.9590053558,-10.7214412689,-100.411651611,0.0204060003161,1.0,0.0,0.0,0.0,1.0,0.0,0.0,0.0,1.0,-120.853660583,65.5487823486,24.0853652954,1.0,0.0,0.0,0.0,1.0,0.0,0.0,0.0,1.0,-0.138863696289,-0.335188232422,15.9070758301,1.0,0.0,0.0,0.0,1.0,0.0,0.0,0.0,1.0
1463845553109976086,552,1463845553106937950,,19.0664310455,-9.40219688416,-100.445121765,0.0204039998353,1.0,0.0,0.0,0.0,1.0,0.0,0.0,0.0,1.0,20.3048782349,0.426829278469,-17.6219520569,1.0,0.0,0.0,0.0,1.0,0.0,0.0,0.0,1.0,1.13485158691,24.4495873535,-9.57201882183,1.0,0.0,0.0,0.0,1.0,0.0,0.0,0.0,1.0
1463845553133327829,553,1463845553127576283,,18.6608562469,-7.13778162003,-100.809036255,0.0206790007651,1.0,0.0,0.0,0.0,1.0,0.0,0.0,0.0,1.0,166.463424683,-5.24390268326,0.548780500889,1.0,0.0,0.0,0.0,1.0,0.0,0.0,0.0,1.0,3.4189199707,-16.2805712891,1.36948334961,1.0,0.0,0.0,0.0,1.0,0.0,0.0,0.0,1.0
1463845553159480533,554,1463845553147694015,,18.8203010559,-5.19076108932,-100.712181091,0.0201409999281,1.0,0.0,0.0,0.0,1.0,0.0,0.0,0.0,1.0,42.5609779358,11.0365858078,-12.5,1.0,0.0,0.0,0.0,1.0,0.0,0.0,0.0,1.0,-0.239420166016,13.0867062744,3.83072265625,1.0,0.0,0.0,0.0,1.0,0.0,0.0,0.0,1.0
1463845553176536172,555,1463845553168079703,,19.2057609558,-5.11135673523,-101.6304245,0.0204050000757,1.0,0.0,0.0,0.0,1.0,0.0,0.0,0.0,1.0,56.8902435303,3.04878044128,-29.3902435303,1.0,0.0,0.0,0.0,1.0,0.0,0.0,0.0,1.0,-4.8793829834,-33.174055865,-39.3894057129,1.0,0.0,0.0,0.0,1.0,0.0,0.0,0.0,1.0
1463845553203545813,556,1463845553189025469,,18.7906532288,-3.63481283188,-102.037696838,0.0204130001366,1.0,0.0,0.0,0.0,1.0,0.0,0.0,0.0,1.0,38.9024391174,-15.3048791885,-34.3292694092,1.0,0.0,0.0,0.0,1.0,0.0,0.0,0.0,1.0,13.1920511475,40.2321646973,-26.4990239746,1.0,0.0,0.0,0.0,1.0,0.0,0.0,0.0,1.0
1463845553214482268,557,1463845553209140024,,17.8645038605,-8.27704524994,-103.775901794,0.0206369999796,1.0,0.0,0.0,0.0,1.0,0.0,0.0,0.0,1.0,-152.073165894,-56.2804870605,-69.4512176514,1.0,0.0,0.0,0.0,1.0,0.0,0.0,0.0,1.0,-11.0564232666,-50.857631665,-32.0631486328,1.0,0.0,0.0,0.0,1.0,0.0,0.0,0.0,1.0
1463845553238131914,558,1463845553229357439,,17.0949440002,-5.93244409561,-104.114021301,0.0201639998704,1.0,0.0,0.0,0.0,1.0,0.0,0.0,0.0,1.0,79.207321167,-28.6585388184,-33.5365867615,1.0,0.0,0.0,0.0,1.0,0.0,0.0,0.0,1.0,6.52659372559,19.62766521,-9.66778688823,1.0,0.0,0.0,0.0,1.0,0.0,0.0,0.0,1.0
1463845553263855367,559,1463845553249719847,,15.2294883728,-5.30603170395,-104.452667236,0.020428000018,1.0,0.0,0.0,0.0,1.0,0.0,0.0,0.0,1.0,87.0121994019,-73.7804870605,-7.19512224197,1.0,0.0,0.0,0.0,1.0,0.0,0.0,0.0,1.0,6.84741674805,-20.3698677246,-1.22583125,1.0,0.0,0.0,0.0,1.0,0.0,0.0,0.0,1.0
1463845553286762653,560,1463845553270192250,,14.0557136536,-4.64838790894,-104.627159119,0.0203920006752,1.0,0.0,0.0,0.0,1.0,0.0,0.0,0.0,1.0,43.2317085266,-48.4756126404,-10.2439022064,1.0,0.0,0.0,0.0,1.0,0.0,0.0,0.0,1.0,-2.1691467041,-5.07570751953,19.9772186523,1.0,0.0,0.0,0.0,1.0,0.0,0.0,0.0,1.0
1463845553323868424,561,1463845553290506796,,12.4865989685,-3.69121432304,-105.01512146,0.0204089991748,1.0,0.0,0.0,0.0,1.0,0.0,0.0,0.0,1.0,100.609764099,-66.3414611816,-10.9756097794,1.0,0.0,0.0,0.0,1.0,0.0,0.0,0.0,1.0,2.27449157715,-26.0489140625,10.5823713379,1.0,0.0,0.0,0.0,1.0,0.0,0.0,0.0,1.0
1463845553323917849,562,1463845553310979459,,11.5379648209,0.650222718716,-104.602867126,0.020408000797,1.0,0.0,0.0,0.0,1.0,0.0,0.0,0.0,1.0,163.719512939,-26.158536911,9.51219558716,1.0,0.0,0.0,0.0,1.0,0.0,0.0,0.0,1.0,13.6517378662,40.6870630127,28.8549184082,1.0,0.0,0.0,0.0,1.0,0.0,0.0,0.0,1.0
1463845553359756910,563,1463845553334128244,,10.4585342407,0.233862355351,-105.860900879,0.0217059999704,1.0,0.0,0.0,0.0,1.0,0.0,0.0,0.0,1.0,24.6341457367,-65.1829299927,-49.634147644,1.0,0.0,0.0,0.0,1.0,0.0,0.0,0.0,1.0,-3.36624753418,-21.0115137695,-28.3856548828,1.0,0.0,0.0,0.0,1.0,0.0,0.0,0.0,1.0
1463845553360076322,564,1463845553351893433,,9.75291824341,1.80489659309,-105.636741638,0.0191130004823,1.0,0.0,0.0,0.0,1.0,0.0,0.0,0.0,1.0,32.682926178,-30.1219520569,3.04878044128,1.0,0.0,0.0,0.0,1.0,0.0,0.0,0.0,1.0,6.52180532227,25.9483575928,-14.1353666016,1.0,0.0,0.0,0.0,1.0,0.0,0.0,0.0,1.0
1463845553377580950,565,1463845553372342191,,9.55029964447,1.42044425011,-106.391197205,0.0204259995371,1.0,0.0,0.0,0.0,1.0,0.0,0.0,0.0,1.0,33.9024391174,-27.317073822,-27.682926178,1.0,0.0,0.0,0.0,1.0,0.0,0.0,0.0,1.0,-8.49941647808,-36.5259405273,-21.7920235107,1.0,0.0,0.0,0.0,1.0,0.0,0.0,0.0,1.0
1463845553398709363,566,1463845553392685121,,9.97883605957,0.759461283684,-105.914634705,0.0203900001943,1.0,0.0,0.0,0.0,1.0,0.0,0.0,0.0,1.0,-75.0,30.3658542633,15.4878053665,1.0,0.0,0.0,0.0,1.0,0.0,0.0,0.0,1.0,0.900219824219,12.7084224121,12.4306950195,1.0,0.0,0.0,0.0,1.0,0.0,0.0,0.0,1.0
1463845553421390618,567,1463845553414120967,,9.77544212341,3.52708506584,-105.760871887,0.0205959994346,1.0,0.0,0.0,0.0,1.0,0.0,0.0,0.0,1.0,105.121955872,8.84146404266,2.19512200356,1.0,0.0,0.0,0.0,1.0,0.0,0.0,0.0,1.0,7.46990917969,20.1543895752,32.1301886174,1.0,0.0,0.0,0.0,1.0,0.0,0.0,0.0,1.0
1463845553441804691,568,1463845553435089023,,9.0038061142,5.3805308342,-105.785942078,0.0212459992617,1.0,0.0,0.0,0.0,1.0,0.0,0.0,0.0,1.0,136.89024353,-47.4390258789,10.6707315445,1.0,0.0,0.0,0.0,1.0,0.0,0.0,0.0,1.0,-3.51468803711,-26.8964614502,-12.1577560303,1.0,0.0,0.0,0.0,1.0,0.0,0.0,0.0,1.0
1463845553457410192,569,1463845553455309511,,6.82952213287,8.76610279083,-107.384155273,0.0199309997261,1.0,0.0,0.0,0.0,1.0,0.0,0.0,0.0,1.0,234.939041138,-133.841461182,-55.2439041138,1.0,0.0,0.0,0.0,1.0,0.0,0.0,0.0,1.0,-5.17626398926,-18.7705398466,-0.665588061523,1.0,0.0,0.0,0.0,1.0,0.0,0.0,0.0,1.0
1463845553477905510,570,1463845553475573330,,7.87531423569,2.75693130493,-107.282966614,0.0202830005437,1.0,0.0,0.0,0.0,1.0,0.0,0.0,0.0,1.0,-252.073181152,39.2682914734,6.82926845551,1.0,0.0,0.0,0.0,1.0,0.0,0.0,0.0,1.0,-2.72460148926,-14.7387054199,-7.56088884277,1.0,0.0,0.0,0.0,1.0,0.0,0.0,0.0,1.0
1463845553501818112,571,1463845553497239686,,8.25535964966,8.95511627197,-106.204399109,0.0200050007552,1.0,0.0,0.0,0.0,1.0,0.0,0.0,0.0,1.0,334.207305908,34.4512214661,54.634147644,1.0,0.0,0.0,0.0,1.0,0.0,0.0,0.0,1.0,1.30244570312,-9.55765361187,15.9789018799,1.0,0.0,0.0,0.0,1.0,0.0,0.0,0.0,1.0
1463845553519878652,572,1463845553515047425,,8.43279743195,3.72374463081,-105.86239624,0.0203930009156,1.0,0.0,0.0,0.0,1.0,0.0,0.0,0.0,1.0,-205.914642334,28.1097564697,20.2439022064,1.0,0.0,0.0,0.0,1.0,0.0,0.0,0.0,1.0,3.30878669434,-10.6494089844,3.61045610352,1.0,0.0,0.0,0.0,1.0,0.0,0.0,0.0,1.0
1463845553540194864,573,1463845553535420979,,8.43991374969,10.5259342194,-106.070320129,0.0204179994762,1.0,0.0,0.0,0.0,1.0,0.0,0.0,0.0,1.0,299.268310547,12.8048782349,-16.5853652954,1.0,0.0,0.0,0.0,1.0,0.0,0.0,0.0,1.0,14.3269027344,66.5300757324,67.0807421143,1.0,0.0,0.0,0.0,1.0,0.0,0.0,0.0,1.0
1463845553559948499,574,1463845553556951976,,7.60421705246,4.71514701843,-107.155647278,0.0210120007396,1.0,0.0,0.0,0.0,1.0,0.0,0.0,0.0,1.0,-227.256103516,-60.4268302917,-36.5243911743,1.0,0.0,0.0,0.0,1.0,0.0,0.0,0.0,1.0,-9.13148513184,-45.3318142334,-25.8525895264,1.0,0.0,0.0,0.0,1.0,0.0,0.0,0.0,1.0
1463845553580516262,575,1463845553576279070,,7.678835392,7.91783905029,-107.058280945,0.0198509991169,1.0,0.0,0.0,0.0,1.0,0.0,0.0,0.0,1.0,111.341468811,23.3536586761,-4.14634132385,1.0,0.0,0.0,0.0,1.0,0.0,0.0,0.0,1.0,12.378022583,27.2603801025,-9.82101520996,1.0,0.0,0.0,0.0,1.0,0.0,0.0,0.0,1.0
1463845553601368543,576,1463845553597681584,,7.51764631271,6.48764133453,-107.458618164,0.0213469993323,1.0,0.0,0.0,0.0,1.0,0.0,0.0,0.0,1.0,-12.4390249252,-3.23170733452,-11.5243911743,1.0,0.0,0.0,0.0,1.0,0.0,0.0,0.0,1.0,2.33674067418,-34.1413156738,20.1926968018,1.0,0.0,0.0,0.0,1.0,0.0,0.0,0.0,1.0
1463845553619920308,577,1463845553617150337,,7.82998228073,6.63444375992,-107.513664246,0.019430000335,1.0,0.0,0.0,0.0,1.0,0.0,0.0,0.0,1.0,-46.7682952881,23.5975627899,-13.1707324982,1.0,0.0,0.0,0.0,1.0,0.0,0.0,0.0,1.0,2.21224233398,14.6189953369,0.272938989258,1.0,0.0,0.0,0.0,1.0,0.0,0.0,0.0,1.0
1463845553638857212,578,1463845553637348014,,8.22452735901,9.26115512848,-107.271583557,0.0203740000725,1.0,0.0,0.0,0.0,1.0,0.0,0.0,0.0,1.0,113.048782349,26.5853652954,5.91463422775,1.0,0.0,0.0,0.0,1.0,0.0,0.0,0.0,1.0,-0.60812722168,14.0443869385,35.0032282715,1.0,0.0,0.0,0.0,1.0,0.0,0.0,0.0,1.0
1463845553670102639,579,1463845553662173280,,7.1919054985,7.59345293045,-107.363571167,0.0246820002794,1.0,0.0,0.0,0.0,1.0,0.0,0.0,0.0,1.0,-69.9390258789,5.60975599289,-6.0365858078,1.0,0.0,0.0,0.0,1.0,0.0,0.0,0.0,1.0,5.48751020508,-0.0287304199219,-2.25054956055,1.0,0.0,0.0,0.0,1.0,0.0,0.0,0.0,1.0
1463845553680444383,580,1463845553678285997,,6.87380933762,12.4617242813,-107.289855957,0.0161569993943,1.0,0.0,0.0,0.0,1.0,0.0,0.0,0.0,1.0,312.804901123,17.9268302917,4.14634132385,1.0,0.0,0.0,0.0,1.0,0.0,0.0,0.0,1.0,14.2263462646,-2.3415290775,20.8918036865,1.0,0.0,0.0,0.0,1.0,0.0,0.0,0.0,1.0
1463845553701642636,581,1463845553698810168,,7.29475164413,5.54897022247,-107.184371948,0.0204130001366,1.0,0.0,0.0,0.0,1.0,0.0,0.0,0.0,1.0,-357.134155273,15.6707315445,0.548780500889,1.0,0.0,0.0,0.0,1.0,0.0,0.0,0.0,1.0,0.933738647461,2.80121594238,-28.3712896729,1.0,0.0,0.0,0.0,1.0,0.0,0.0,0.0,1.0
1463845553729451145,582,1463845553720145654,,7.03237056732,13.113196373,-107.264503479,0.0204189997166,1.0,0.0,0.0,0.0,1.0,0.0,0.0,0.0,1.0,338.475616455,-21.158536911,-5.48780488968,1.0,0.0,0.0,0.0,1.0,0.0,0.0,0.0,1.0,-8.61912656108,26.0584908691,27.5620495117,1.0,0.0,0.0,0.0,1.0,0.0,0.0,0.0,1.0
1463845553777895539,583,1463845553740217243,,9.34421920776,5.18172979355,-106.768791199,0.0203980002552,1.0,0.0,0.0,0.0,1.0,0.0,0.0,0.0,1.0,-359.329284668,72.5,19.817073822,1.0,0.0,0.0,0.0,1.0,0.0,0.0,0.0,1.0,-34.7542312988,-24.9044856689,6.47392128906,1.0,0.0,0.0,0.0,1.0,0.0,0.0,0.0,1.0
1463845553778634462,584,1463845553759921349,,8.72483921051,9.67497444153,-106.539825439,0.0204349998385,1.0,0.0,0.0,0.0,1.0,0.0,0.0,0.0,1.0,163.780487061,-19.9390239716,4.45121955872,1.0,0.0,0.0,0.0,1.0,0.0,0.0,0.0,1.0,7.18260498047,42.1379492187,-0.45968671875,1.0,0.0,0.0,0.0,1.0,0.0,0.0,0.0,1.0
1463845553812899484,585,1463845553780503330,,9.09017181396,7.82795667648,-107.240066528,0.0203939992934,1.0,0.0,0.0,0.0,1.0,0.0,0.0,0.0,1.0,-28.9024410248,11.341463089,-27.4390258789,1.0,0.0,0.0,0.0,1.0,0.0,0.0,0.0,1.0,-1.54186586914,-41.9799319092,6.57447775879,1.0,0.0,0.0,0.0,1.0,0.0,0.0,0.0,1.0
1463845553814463107,586,1463845553800768816,,9.35251235962,5.84938621521,-107.060714722,0.0203740000725,1.0,0.0,0.0,0.0,1.0,0.0,0.0,0.0,1.0,-153.597564697,11.7682924271,-1.95121955872,1.0,0.0,0.0,0.0,1.0,0.0,0.0,0.0,1.0,-0.450109912109,16.1225551485,0.067037651051,1.0,0.0,0.0,0.0,1.0,0.0,0.0,0.0,1.0
1463845553838886205,587,1463845553822295752,,9.36059570312,8.63034343719,-106.99029541,0.0204249992967,1.0,0.0,0.0,0.0,1.0,0.0,0.0,0.0,1.0,190.60975647,10.9146347046,11.0975618362,1.0,0.0,0.0,0.0,1.0,0.0,0.0,0.0,1.0,2.05422502441,-13.3931640869,3.82593425293,1.0,0.0,0.0,0.0,1.0,0.0,0.0,0.0,1.0
1463845553856886487,588,1463845553841646437,,11.2576389313,5.84644460678,-106.816360474,0.0203930009156,1.0,0.0,0.0,0.0,1.0,0.0,0.0,0.0,1.0,-135.914642334,50.9146347046,2.98780488968,1.0,0.0,0.0,0.0,1.0,0.0,0.0,0.0,1.0,-21.6052757813,-5.1379567627,-26.0584908691,1.0,0.0,0.0,0.0,1.0,0.0,0.0,0.0,1.0
1463845553869608220,589,1463845553861981763,,10.7573604584,8.45688724518,-106.79473877,0.0204169992357,1.0,0.0,0.0,0.0,1.0,0.0,0.0,0.0,1.0,80.3658599854,-6.89024400711,-7.56097555161,1.0,0.0,0.0,0.0,1.0,0.0,0.0,0.0,1.0,1.77170922852,6.34942280273,2.51391174316,1.0,0.0,0.0,0.0,1.0,0.0,0.0,0.0,1.0
1463845553895287040,590,1463845553882199856,,11.8036403656,6.15779018402,-106.655822754,0.0203949995339,1.0,0.0,0.0,0.0,1.0,0.0,0.0,0.0,1.0,-101.707321167,27.682926178,5.67073154449,1.0,0.0,0.0,0.0,1.0,0.0,0.0,0.0,1.0,-15.7490585205,-2.65756384277,21.7680814941,1.0,0.0,0.0,0.0,1.0,0.0,0.0,0.0,1.0
1463845553938790681,591,1463845553902812981,,11.7363815308,3.9552488327,-106.504676819,0.0204099994153,1.0,0.0,0.0,0.0,1.0,0.0,0.0,0.0,1.0,-125.853660583,7.19512224197,2.62195134163,1.0,0.0,0.0,0.0,1.0,0.0,0.0,0.0,1.0,-0.124498486328,9.21288798828,20.9779949463,1.0,0.0,0.0,0.0,1.0,0.0,0.0,0.0,1.0
1463845553938929372,592,1463845553923091122,,11.9600448608,6.26755094528,-106.262397766,0.0204130001366,1.0,0.0,0.0,0.0,1.0,0.0,0.0,0.0,1.0,94.1463394165,-11.8292684555,8.35365867615,1.0,0.0,0.0,0.0,1.0,0.0,0.0,0.0,1.0,-8.94473740234,5.63116230469,11.4490723389,1.0,0.0,0.0,0.0,1.0,0.0,0.0,0.0,1.0
1463845554063829730,593,1463845553943516236,,11.8930158615,4.86933898926,-106.313209534,0.0204060003161,1.0,0.0,0.0,0.0,1.0,0.0,0.0,0.0,1.0,-13.5975618362,-5.30487823486,9.45121955872,1.0,0.0,0.0,0.0,1.0,0.0,0.0,0.0,1.0,-1.96324536133,-20.8056124268,6.83783994141,1.0,0.0,0.0,0.0,1.0,0.0,0.0,0.0,1.0
1463845554063877957,594,1463845553963920100,,10.238284111,7.34801340103,-106.18636322,0.0204119998962,1.0,0.0,0.0,0.0,1.0,0.0,0.0,0.0,1.0,83.4756088257,-55.9146347046,4.51219558716,1.0,0.0,0.0,0.0,1.0,0.0,0.0,0.0,1.0,7.56567724609,17.3435979952,14.575899707,1.0,0.0,0.0,0.0,1.0,0.0,0.0,0.0,1.0
1463845554063967380,595,1463845553984569578,,10.2786712646,6.67092561722,-106.611381531,0.0204000007361,1.0,0.0,0.0,0.0,1.0,0.0,0.0,0.0,1.0,23.3536586761,-17.4390239716,-8.96341514587,1.0,0.0,0.0,0.0,1.0,0.0,0.0,0.0,1.0,-8.63828017437,-24.1527063477,4.97993945312,1.0,0.0,0.0,0.0,1.0,0.0,0.0,0.0,1.0
1463845554064012013,596,1463845554005536800,,10.4404687881,6.23151826859,-106.533218384,0.0204099994153,1.0,0.0,0.0,0.0,1.0,0.0,0.0,0.0,1.0,-4.32926845551,16.5243911743,4.81707286835,1.0,0.0,0.0,0.0,1.0,0.0,0.0,0.0,1.0,-0.493205541992,-4.54419475098,22.1367885498,1.0,0.0,0.0,0.0,1.0,0.0,0.0,0.0,1.0
1463845554064049146,597,1463845554025110288,,10.0238218307,3.58688831329,-106.728233337,0.0204039998353,1.0,0.0,0.0,0.0,1.0,0.0,0.0,0.0,1.0,-95.4878082275,-10.6707315445,-2.98780488968,1.0,0.0,0.0,0.0,1.0,0.0,0.0,0.0,1.0,0.627280834961,-8.40843564595,15.1792385254,1.0,0.0,0.0,0.0,1.0,0.0,0.0,0.0,1.0
1463845554064095498,598,1463845554045777784,,10.0488157272,3.27546715736,-106.786865234,0.0204569995403,1.0,0.0,0.0,0.0,1.0,0.0,0.0,0.0,1.0,-38.7804870605,9.26829242706,-7.98780536652,1.0,0.0,0.0,0.0,1.0,0.0,0.0,0.0,1.0,3.47159240723,4.25689084402,-9.66299848491,1.0,0.0,0.0,0.0,1.0,0.0,0.0,0.0,1.0
1463845554169975465,599,1463845554068382688,,8.74684810638,6.95887231827,-106.674026489,0.0205060001463,1.0,0.0,0.0,0.0,1.0,0.0,0.0,0.0,1.0,124.634147644,-52.1951255798,0.487804889679,1.0,0.0,0.0,0.0,1.0,0.0,0.0,0.0,1.0,4.31435168386,21.0833398193,0.0191536132812,1.0,0.0,0.0,0.0,1.0,0.0,0.0,0.0,1.0
1463845554170032077,600,1463845554089347931,,9.11563396454,6.04126501083,-106.505409241,0.0226520001888,1.0,0.0,0.0,0.0,1.0,0.0,0.0,0.0,1.0,-87.6219558716,11.5853662491,-1.40243899822,1.0,0.0,0.0,0.0,1.0,0.0,0.0,0.0,1.0,0.191536132812,9.55765361187,-8.37970522602,1.0,0.0,0.0,0.0,1.0,0.0,0.0,0.0,1.0
1463845554170070877,601,1463845554108750020,,8.97784996033,8.31631851196,-106.686286926,0.0188529994339,1.0,0.0,0.0,0.0,1.0,0.0,0.0,0.0,1.0,67.8048782349,-13.5975618362,-17.0731716156,1.0,0.0,0.0,0.0,1.0,0.0,0.0,0.0,1.0,-0.905008227539,9.58159562847,0.656011254883,1.0,0.0,0.0,0.0,1.0,0.0,0.0,0.0,1.0
1463845554175146518,602,1463845554127202936,,8.50511741638,7.30854177475,-107.080368042,0.0195920001715,1.0,0.0,0.0,0.0,1.0,0.0,0.0,0.0,1.0,6.7682929039,-33.1097564697,-6.82926845551,1.0,0.0,0.0,0.0,1.0,0.0,0.0,0.0,1.0,-0.335188232422,-3.26090266113,-0.100556469727,1.0,0.0,0.0,0.0,1.0,0.0,0.0,0.0,1.0
1463845554219301898,603,1463845554147550344,,7.70089435577,4.49205255508,-107.595672607,0.0204050000757,1.0,0.0,0.0,0.0,1.0,0.0,0.0,0.0,1.0,-79.4512176514,-29.8170719147,-14.2073173523,1.0,0.0,0.0,0.0,1.0,0.0,0.0,0.0,1.0,2.28406838379,-11.3102086426,2.50912333984,1.0,0.0,0.0,0.0,1.0,0.0,0.0,0.0,1.0
1463845554219348927,604,1463845554168077535,,4.56029987335,8.33348941803,-108.064918518,0.0204119998962,1.0,0.0,0.0,0.0,1.0,0.0,0.0,0.0,1.0,135.975616455,-152.073165894,-13.4146347046,1.0,0.0,0.0,0.0,1.0,0.0,0.0,0.0,1.0,6.40688364258,59.2900099121,-13.618219043,1.0,0.0,0.0,0.0,1.0,0.0,0.0,0.0,1.0
1463845554255011849,605,1463845554188723939,,6.06283664703,-0.240674108267,-108.135169983,0.0203980002552,1.0,0.0,0.0,0.0,1.0,0.0,0.0,0.0,1.0,-388.292694092,70.1829299927,-5.54878091812,1.0,0.0,0.0,0.0,1.0,0.0,0.0,0.0,1.0,-4.73094218821,-17.6213242187,34.5722743107,1.0,0.0,0.0,0.0,1.0,0.0,0.0,0.0,1.0
1463845554255057732,606,1463845554208783028,,4.19987106323,7.33243751526,-108.905128479,0.0204060003161,1.0,0.0,0.0,0.0,1.0,0.0,0.0,0.0,1.0,340.182952881,-107.439025879,-35.9146347046,1.0,0.0,0.0,0.0,1.0,0.0,0.0,0.0,1.0,-4.5968671875,19.0722104248,-22.8789910645,1.0,0.0,0.0,0.0,1.0,0.0,0.0,0.0,1.0
1463845554269248561,607,1463845554229175069,,3.66060209274,0.128606796265,-108.916534424,0.0204099994153,1.0,0.0,0.0,0.0,1.0,0.0,0.0,0.0,1.0,-391.890258789,-59.9390258789,2.25609779358,1.0,0.0,0.0,0.0,1.0,0.0,0.0,0.0,1.0,-11.6358200684,13.1489555176,-12.2391588867,1.0,0.0,0.0,0.0,1.0,0.0,0.0,0.0,1.0
1463845554269581514,608,1463845554249622316,,1.24734783173,1.32524681091,-109.856201172,0.0204009991139,1.0,0.0,0.0,0.0,1.0,0.0,0.0,0.0,1.0,72.2560958862,-160.548782349,-43.7804870605,1.0,0.0,0.0,0.0,1.0,0.0,0.0,0.0,1.0,-6.28717355957,-1.61848032227,5.04218869629,1.0,0.0,0.0,0.0,1.0,0.0,0.0,0.0,1.0
1463845554305777067,609,1463845554270056178,,-0.25169557333,-0.133884385228,-109.680526733,0.0204089991748,1.0,0.0,0.0,0.0,1.0,0.0,0.0,0.0,1.0,-31.341463089,-88.9024353027,10.3658542633,1.0,0.0,0.0,0.0,1.0,0.0,0.0,0.0,1.0,-10.3237975586,-25.5604969238,24.875755249,1.0,0.0,0.0,0.0,1.0,0.0,0.0,0.0,1.0
1463845554306106062,610,1463845554290535403,,-2.73318791389,-1.64158666134,-109.079780579,0.0204290002584,1.0,0.0,0.0,0.0,1.0,0.0,0.0,0.0,1.0,-103.841468811,-124.573181152,27.317073822,1.0,0.0,0.0,0.0,1.0,0.0,0.0,0.0,1.0,-0.435744702148,6.17225187988,-9.35175110005,1.0,0.0,0.0,0.0,1.0,0.0,0.0,0.0,1.0
1463845554348011757,611,1463845554310940933,,-5.82766962051,1.64634978771,-108.988700867,0.0204000007361,1.0,0.0,0.0,0.0,1.0,0.0,0.0,0.0,1.0,106.646339417,-140.853652954,7.19512224197,1.0,0.0,0.0,0.0,1.0,0.0,0.0,0.0,1.0,2.4995465332,11.8225677979,0.430956298828,1.0,0.0,0.0,0.0,1.0,0.0,0.0,0.0,1.0
1463845554348481734,612,1463845554331392347,,-7.05598020554,-2.22257971764,-108.443908691,0.020408000797,1.0,0.0,0.0,0.0,1.0,0.0,0.0,0.0,1.0,-167.012207031,-56.2195129395,23.7804889679,1.0,0.0,0.0,0.0,1.0,0.0,0.0,0.0,1.0,3.67749375,-6.49307490234,19.0626336182,1.0,0.0,0.0,0.0,1.0,0.0,0.0,0.0,1.0
1463845554382536870,613,1463845554354632897,,-8.35605144501,-0.564276456833,-108.028808594,0.0204029995948,1.0,0.0,0.0,0.0,1.0,0.0,0.0,0.0,1.0,35.8536605835,-53.1097602844,24.817073822,1.0,0.0,0.0,0.0,1.0,0.0,0.0,0.0,1.0,7.55131203613,24.0425730713,13.1633207275,1.0,0.0,0.0,0.0,1.0,0.0,0.0,0.0,1.0
1463845554383957999,614,1463845554372073518,,-9.32713317871,0.979861676693,-107.727867126,0.0204029995948,1.0,0.0,0.0,0.0,1.0,0.0,0.0,0.0,1.0,132.804870605,-37.2560958862,6.52439069748,1.0,0.0,0.0,0.0,1.0,0.0,0.0,0.0,1.0,6.57926616211,-30.5164943604,3.28005627441,1.0,0.0,0.0,0.0,1.0,0.0,0.0,0.0,1.0
1463845554431715549,615,1463845554392505557,,-9.3469953537,-3.67343401909,-106.544021606,0.0204179994762,1.0,0.0,0.0,0.0,1.0,0.0,0.0,0.0,1.0,-245.67074585,-5.48780488968,61.3414611816,1.0,0.0,0.0,0.0,1.0,0.0,0.0,0.0,1.0,-1.80043964844,4.50109912109,-8.19295808105,1.0,0.0,0.0,0.0,1.0,0.0,0.0,0.0,1.0
1463845554431764661,616,1463845554412924889,,-8.12272453308,3.24219369888,-104.83102417,0.0204160008579,1.0,0.0,0.0,0.0,1.0,0.0,0.0,0.0,1.0,397.743927002,40.0609741211,74.2073135376,1.0,0.0,0.0,0.0,1.0,0.0,0.0,0.0,1.0,-7.51779321289,-13.8863696289,-8.30787917622,1.0,0.0,0.0,0.0,1.0,0.0,0.0,0.0,1.0
1463845554466159520,617,1463845554433329742,,-7.16236686707,0.979013323784,-104.019577026,0.0204169992357,1.0,0.0,0.0,0.0,1.0,0.0,0.0,0.0,1.0,-148.780502319,57.6219482422,42.9268302917,1.0,0.0,0.0,0.0,1.0,0.0,0.0,0.0,1.0,1.4604630127,14.082694165,-12.7802484619,1.0,0.0,0.0,0.0,1.0,0.0,0.0,0.0,1.0
1463845554466424663,618,1463845554455951208,,-5.7517285347,5.8214097023,-102.692108154,0.0211440008134,1.0,0.0,0.0,0.0,1.0,0.0,0.0,0.0,1.0,267.865844727,111.951225281,53.2926864624,1.0,0.0,0.0,0.0,1.0,0.0,0.0,0.0,1.0,20.3938097412,-14.2407114746,7.49385119629,1.0,0.0,0.0,0.0,1.0,0.0,0.0,0.0,1.0
1463845554504963333,619,1463845554474215956,,-6.31585216522,2.98229455948,-101.578773499,0.0196759998798,1.0,0.0,0.0,0.0,1.0,0.0,0.0,0.0,1.0,-129.329269409,-0.18292683363,54.5121955872,1.0,0.0,0.0,0.0,1.0,0.0,0.0,0.0,1.0,5.30076247559,-0.699106884766,8.54730051128,1.0,0.0,0.0,0.0,1.0,0.0,0.0,0.0,1.0
1463845554505022913,620,1463845554496891585,,-8.13016605377,6.07775878906,-100.990837097,0.0206599999219,1.0,0.0,0.0,0.0,1.0,0.0,0.0,0.0,1.0,104.634147644,-104.939025879,41.2804908752,1.0,0.0,0.0,0.0,1.0,0.0,0.0,0.0,1.0,-12.0380459473,27.4567046387,-11.1809217529,1.0,0.0,0.0,0.0,1.0,0.0,0.0,0.0,1.0
1463845554631926818,621,1463845554514964675,,-7.64645528793,2.39228439331,-100.360710144,0.0201399996877,1.0,0.0,0.0,0.0,1.0,0.0,0.0,0.0,1.0,-137.378051758,-1.34146344662,25.7926845551,1.0,0.0,0.0,0.0,1.0,0.0,0.0,0.0,1.0,-14.6860329834,-21.2700875488,-9.39005832661,1.0,0.0,0.0,0.0,1.0,0.0,0.0,0.0,1.0
1463845554632275811,622,1463845554535531969,,-7.48089981079,3.55041599274,-100.673171997,0.0203970000148,1.0,0.0,0.0,0.0,1.0,0.0,0.0,0.0,1.0,36.8292694092,9.26829242706,-13.3536586761,1.0,0.0,0.0,0.0,1.0,0.0,0.0,0.0,1.0,-2.55700737305,8.66222219097,-28.821399585,1.0,0.0,0.0,0.0,1.0,0.0,0.0,0.0,1.0
1463845554632620743,623,1463845554555893907,,-8.01229190826,5.34570884705,-100.165969849,0.0204050000757,1.0,0.0,0.0,0.0,1.0,0.0,0.0,0.0,1.0,105.426834106,-20.3048782349,24.2073173523,1.0,0.0,0.0,0.0,1.0,0.0,0.0,0.0,1.0,5.7508723877,-5.15232197266,27.0496903564,1.0,0.0,0.0,0.0,1.0,0.0,0.0,0.0,1.0
1463845554632911406,624,1463845554576214702,,-9.78915882111,5.44956922531,-99.7972564697,0.0204150006175,1.0,0.0,0.0,0.0,1.0,0.0,0.0,0.0,1.0,-9.32926845551,-64.7561035156,26.2195129395,1.0,0.0,0.0,0.0,1.0,0.0,0.0,0.0,1.0,2.03028300781,1.92014973145,-8.04451757812,1.0,0.0,0.0,0.0,1.0,0.0,0.0,0.0,1.0
1463845554633231599,625,1463845554596651116,,-10.2186517715,7.02017593384,-98.2312164307,0.0204009991139,1.0,0.0,0.0,0.0,1.0,0.0,0.0,0.0,1.0,96.1585388184,-11.2804880142,75.8536605835,1.0,0.0,0.0,0.0,1.0,0.0,0.0,0.0,1.0,7.78115539551,-0.119710083008,36.7988771785,1.0,0.0,0.0,0.0,1.0,0.0,0.0,0.0,1.0
1463845554633514137,626,1463845554616984671,,-10.2296543121,2.87430143356,-97.3622283936,0.0204140003771,1.0,0.0,0.0,0.0,1.0,0.0,0.0,0.0,1.0,-222.195114136,-6.64634132385,47.5,1.0,0.0,0.0,0.0,1.0,0.0,0.0,0.0,1.0,-4.26167924734,4.94642062988,-11.4011883057,1.0,0.0,0.0,0.0,1.0,0.0,0.0,0.0,1.0
1463845554699675387,627,1463845554637588994,,-10.363448143,8.08630275726,-95.6766433716,0.0204089991748,1.0,0.0,0.0,0.0,1.0,0.0,0.0,0.0,1.0,323.353668213,8.17073154449,71.2195129395,1.0,0.0,0.0,0.0,1.0,0.0,0.0,0.0,1.0,4.42448466797,-21.0498209961,7.48906279297,1.0,0.0,0.0,0.0,1.0,0.0,0.0,0.0,1.0
1463845554701292392,628,1463845554658238991,,-8.86078453064,2.95374321938,-93.932144165,0.0203970000148,1.0,0.0,0.0,0.0,1.0,0.0,0.0,0.0,1.0,-230.243911743,95.0,73.1707305908,1.0,0.0,0.0,0.0,1.0,0.0,0.0,0.0,1.0,41.9990855225,0.177170922852,90.2709793945,1.0,0.0,0.0,0.0,1.0,0.0,0.0,0.0,1.0
1463845554701674249,629,1463845554678740871,,-9.72349834442,-0.856355309486,-93.7237930298,0.020428000018,1.0,0.0,0.0,0.0,1.0,0.0,0.0,0.0,1.0,-201.158538818,-25.975610733,12.3170728683,1.0,0.0,0.0,0.0,1.0,0.0,0.0,0.0,1.0,5.72214196777,9.47624958638,-37.148432959,1.0,0.0,0.0,0.0,1.0,0.0,0.0,0.0,1.0
1463845554702035638,630,1463845554699258896,,-7.77420377731,5.95008659363,-91.9175872803,0.020422000438,1.0,0.0,0.0,0.0,1.0,0.0,0.0,0.0,1.0,398.17074585,75.2439041138,73.9024429321,1.0,0.0,0.0,0.0,1.0,0.0,0.0,0.0,1.0,-8.5520889146,-19.5271087402,3.65834013672,1.0,0.0,0.0,0.0,1.0,0.0,0.0,0.0,1.0
1463845554854354988,631,1463845554719697967,,-9.41506195068,2.50209259987,-91.1745376587,0.0203930009156,1.0,0.0,0.0,0.0,1.0,0.0,0.0,0.0,1.0,-109.817077637,-62.4390258789,32.3780517578,1.0,0.0,0.0,0.0,1.0,0.0,0.0,0.0,1.0,5.90888969727,-20.0729867187,-0.0909796630859,1.0,0.0,0.0,0.0,1.0,0.0,0.0,0.0,1.0
1463845554854673358,632,1463845554740802161,,-11.0131340027,4.91765117645,-91.1431350708,0.0207729991525,1.0,0.0,0.0,0.0,1.0,0.0,0.0,0.0,1.0,64.1463394165,-72.9268341064,14.8780498505,1.0,0.0,0.0,0.0,1.0,0.0,0.0,0.0,1.0,3.40934316406,26.6905601074,7.31668027344,1.0,0.0,0.0,0.0,1.0,0.0,0.0,0.0,1.0
1463845554854970844,633,1463845554760305079,,-12.0598688126,6.84063148499,-90.3285369873,0.0200970005244,1.0,0.0,0.0,0.0,1.0,0.0,0.0,0.0,1.0,150.121963501,-64.4512252808,36.8902435303,1.0,0.0,0.0,0.0,1.0,0.0,0.0,0.0,1.0,-4.21858303293,-19.120094458,14.9924907959,1.0,0.0,0.0,0.0,1.0,0.0,0.0,0.0,1.0
1463845554855019852,634,1463845554780306826,,-13.166680336,5.05383443832,-89.2632904053,0.0203440003097,1.0,0.0,0.0,0.0,1.0,0.0,0.0,0.0,1.0,-103.536590576,-48.5975608826,61.9512214661,1.0,0.0,0.0,0.0,1.0,0.0,0.0,0.0,1.0,3.97437475586,12.7467296387,16.8551785185,1.0,0.0,0.0,0.0,1.0,0.0,0.0,0.0,1.0
1463845554855430509,635,1463845554801097859,,-15.3049602509,10.3983459473,-89.2954788208,0.0204460006207,1.0,0.0,0.0,0.0,1.0,0.0,0.0,0.0,1.0,272.743927002,-102.987808228,9.5731716156,1.0,0.0,0.0,0.0,1.0,0.0,0.0,0.0,1.0,13.6900450928,-6.09563742676,51.1688778809,1.0,0.0,0.0,0.0,1.0,0.0,0.0,0.0,1.0
1463845555007581639,636,1463845554821413654,,-15.0761165619,5.3224697113,-88.3175964355,0.0203620009124,1.0,0.0,0.0,0.0,1.0,0.0,0.0,0.0,1.0,-231.463424683,14.0243902206,43.1707305908,1.0,0.0,0.0,0.0,1.0,0.0,0.0,0.0,1.0,11.4394955322,4.35744702148,51.0108605713,1.0,0.0,0.0,0.0,1.0,0.0,0.0,0.0,1.0
1463845555007866261,637,1463845554841903868,,-16.2951831818,8.46284484863,-88.9041748047,0.0204119998962,1.0,0.0,0.0,0.0,1.0,0.0,0.0,0.0,1.0,103.475608826,-41.5853652954,-10.7317075729,1.0,0.0,0.0,0.0,1.0,0.0,0.0,0.0,1.0,3.58172568359,11.7938373779,-10.4004120117,1.0,0.0,0.0,0.0,1.0,0.0,0.0,0.0,1.0
