%time,field.header.seq,field.header.stamp,field.header.frame_id,field.orientation.x,field.orientation.y,field.orientation.z,field.orientation.w,field.orientation_covariance0,field.orientation_covariance1,field.orientation_covariance2,field.orientation_covariance3,field.orientation_covariance4,field.orientation_covariance5,field.orientation_covariance6,field.orientation_covariance7,field.orientation_covariance8,field.angular_velocity.x,field.angular_velocity.y,field.angular_velocity.z,field.angular_velocity_covariance0,field.angular_velocity_covariance1,field.angular_velocity_covariance2,field.angular_velocity_covariance3,field.angular_velocity_covariance4,field.angular_velocity_covariance5,field.angular_velocity_covariance6,field.angular_velocity_covariance7,field.angular_velocity_covariance8,field.linear_acceleration.x,field.linear_acceleration.y,field.linear_acceleration.z,field.linear_acceleration_covariance0,field.linear_acceleration_covariance1,field.linear_acceleration_covariance2,field.linear_acceleration_covariance3,field.linear_acceleration_covariance4,field.linear_acceleration_covariance5,field.linear_acceleration_covariance6,field.linear_acceleration_covariance7,field.linear_acceleration_covariance8
1463845663740295577,221,1463845663719785555,,-1.75461518764,-13.5935726166,99.144493103,0.0203850008547,1.0,0.0,0.0,0.0,1.0,0.0,0.0,0.0,1.0,-0.243902444839,2.07317066193,0.426829278469,1.0,0.0,0.0,0.0,1.0,0.0,0.0,0.0,1.0,0.828393774414,-0.550666381836,10.0939541992,1.0,0.0,0.0,0.0,1.0,0.0,0.0,0.0,1.0
1463845663746057422,222,1463845663744045732,,-1.82076096535,-13.4167928696,99.150390625,0.0203980002552,1.0,0.0,0.0,0.0,1.0,0.0,0.0,0.0,1.0,-0.304878056049,2.01219511032,0.0609756112099,1.0,0.0,0.0,0.0,1.0,0.0,0.0,0.0,1.0,0.952892260742,-0.742202514648,10.1131078125,1.0,0.0,0.0,0.0,1.0,0.0,0.0,0.0,1.0
1463845663764100396,223,1463845663760267221,,-1.86425685883,-13.2344722748,99.1640472412,0.0204039998353,1.0,0.0,0.0,0.0,1.0,0.0,0.0,0.0,1.0,-0.12195122242,2.37804889679,0.548780500889,1.0,0.0,0.0,0.0,1.0,0.0,0.0,0.0,1.0,0.842758984375,-0.689530078125,10.0508585693,1.0,0.0,0.0,0.0,1.0,0.0,0.0,0.0,1.0
1463845663783452674,224,1463845663780541778,,-1.92158353329,-13.0571250916,99.1704101562,0.020428000018,1.0,0.0,0.0,0.0,1.0,0.0,0.0,0.0,1.0,-0.365853667259,1.58536589146,0.0,1.0,0.0,0.0,0.0,1.0,0.0,0.0,0.0,1.0,0.809240161133,-0.660799658203,10.0412817627,1.0,0.0,0.0,0.0,1.0,0.0,0.0,0.0,1.0
1463845663805357885,225,1463845663800458683,,-1.97243762016,-12.8824033737,99.1782226562,0.0203820001334,1.0,0.0,0.0,0.0,1.0,0.0,0.0,0.0,1.0,-0.487804889679,2.01219511032,0.18292683363,1.0,0.0,0.0,0.0,1.0,0.0,0.0,0.0,1.0,0.852335791016,-0.632069238281,10.1322614258,1.0,0.0,0.0,0.0,1.0,0.0,0.0,0.0,1.0
1463845663828044647,226,1463845663824077776,,-2.02899312973,-12.7173213959,99.1907501221,0.0204249992967,1.0,0.0,0.0,0.0,1.0,0.0,0.0,0.0,1.0,-0.731707334518,1.52439022064,0.304878056049,1.0,0.0,0.0,0.0,1.0,0.0,0.0,0.0,1.0,0.837970581055,-0.651222851562,10.2328178955,1.0,0.0,0.0,0.0,1.0,0.0,0.0,0.0,1.0
1463845663858437967,227,1463845663841865545,,-2.09515690804,-12.5505161285,99.2061233521,0.0208139996976,1.0,0.0,0.0,0.0,1.0,0.0,0.0,0.0,1.0,-0.487804889679,1.76829278469,0.487804889679,1.0,0.0,0.0,0.0,1.0,0.0,0.0,0.0,1.0,0.952892260742,-0.660799658203,10.0125513428,1.0,0.0,0.0,0.0,1.0,0.0,0.0,0.0,1.0
1463845663868395430,228,1463845663862435879,,-2.13881921768,-12.3821744919,99.2158050537,0.0200040005147,1.0,0.0,0.0,0.0,1.0,0.0,0.0,0.0,1.0,-0.304878056049,1.76829278469,0.243902444839,1.0,0.0,0.0,0.0,1.0,0.0,0.0,0.0,1.0,0.785298144531,-0.603338854892,10.1322614258,1.0,0.0,0.0,0.0,1.0,0.0,0.0,0.0,1.0
1463845663886271844,229,1463845663882204401,,-2.20765995979,-12.2115182877,99.2208938599,0.0204060003161,1.0,0.0,0.0,0.0,1.0,0.0,0.0,0.0,1.0,-0.365853667259,1.70731711388,0.0,1.0,0.0,0.0,0.0,1.0,0.0,0.0,0.0,1.0,0.986411083984,-0.569819995117,10.1226846191,1.0,0.0,0.0,0.0,1.0,0.0,0.0,0.0,1.0
1463845663906141094,230,1463845663903402383,,-2.24435591698,-12.0586547852,99.2452774048,0.020408000797,1.0,0.0,0.0,0.0,1.0,0.0,0.0,0.0,1.0,-0.365853667259,2.43902444839,1.09756100178,1.0,0.0,0.0,0.0,1.0,0.0,0.0,0.0,1.0,0.876277807617,-0.684741674805,10.0077629395,1.0,0.0,0.0,0.0,1.0,0.0,0.0,0.0,1.0
1463845663927746205,231,1463845663923157988,,-2.29483771324,-11.897898674,99.2547531128,0.0204150006175,1.0,0.0,0.0,0.0,1.0,0.0,0.0,0.0,1.0,-0.548780500889,1.52439022064,0.18292683363,1.0,0.0,0.0,0.0,1.0,0.0,0.0,0.0,1.0,0.818816967773,-0.569819995117,10.1466266357,1.0,0.0,0.0,0.0,1.0,0.0,0.0,0.0,1.0
1463845663957086050,232,1463845663945356424,,-2.35400724411,-11.7242050171,99.2653427124,0.0213079992682,1.0,0.0,0.0,0.0,1.0,0.0,0.0,0.0,1.0,-0.243902444839,2.19512200356,0.365853667259,1.0,0.0,0.0,0.0,1.0,0.0,0.0,0.0,1.0,0.995987890625,-0.536301208408,10.0269165527,1.0,0.0,0.0,0.0,1.0,0.0,0.0,0.0,1.0
1463845663984114417,233,1463845663966329877,,-2.38286209106,-11.573507309,99.2782974243,0.019496999681,1.0,0.0,0.0,0.0,1.0,0.0,0.0,0.0,1.0,-0.304878056049,2.01219511032,0.487804889679,1.0,0.0,0.0,0.0,1.0,0.0,0.0,0.0,1.0,0.76135612793,-0.584185168546,10.2184526855,1.0,0.0,0.0,0.0,1.0,0.0,0.0,0.0,1.0
1463845663998184478,234,1463845663986586882,,-2.41832280159,-11.4253282547,99.2903594971,0.0204070005566,1.0,0.0,0.0,0.0,1.0,0.0,0.0,0.0,1.0,-0.426829278469,2.13414645195,0.426829278469,1.0,0.0,0.0,0.0,1.0,0.0,0.0,0.0,1.0,0.823605371094,-0.612915625,10.1035310059,1.0,0.0,0.0,0.0,1.0,0.0,0.0,0.0,1.0
1463845664019594173,235,1463845664006628213,,-2.47201633453,-11.2665596008,99.3058395386,0.0217969994992,1.0,0.0,0.0,0.0,1.0,0.0,0.0,0.0,1.0,-0.304878056049,1.8292683363,0.487804889679,1.0,0.0,0.0,0.0,1.0,0.0,0.0,0.0,1.0,0.909796630859,-0.603338854892,10.1178962158,1.0,0.0,0.0,0.0,1.0,0.0,0.0,0.0,1.0
1463845664037713861,236,1463845664028906800,,-2.53148126602,-11.1402959824,99.3168487549,0.019029000774,1.0,0.0,0.0,0.0,1.0,0.0,0.0,0.0,1.0,-0.243902444839,1.70731711388,0.304878056049,1.0,0.0,0.0,0.0,1.0,0.0,0.0,0.0,1.0,1.00556469727,-0.699106884766,10.0556469727,1.0,0.0,0.0,0.0,1.0,0.0,0.0,0.0,1.0
1463845664050215870,237,1463845664046768732,,-2.57591772079,-11.0012960434,99.3259658813,0.0204610005021,1.0,0.0,0.0,0.0,1.0,0.0,0.0,0.0,1.0,-0.243902444839,2.01219511032,0.243902444839,1.0,0.0,0.0,0.0,1.0,0.0,0.0,0.0,1.0,0.890643017578,-0.646434448242,9.99818613281,1.0,0.0,0.0,0.0,1.0,0.0,0.0,0.0,1.0
1463845664077755841,238,1463845664065939395,,-2.62047410011,-10.8667850494,99.3362197876,0.0203469991684,1.0,0.0,0.0,0.0,1.0,0.0,0.0,0.0,1.0,-0.365853667259,2.01219511032,0.304878056049,1.0,0.0,0.0,0.0,1.0,0.0,0.0,0.0,1.0,0.909796630859,-0.636857641602,10.0700121826,1.0,0.0,0.0,0.0,1.0,0.0,0.0,0.0,1.0
1463845664092381257,239,1463845664088518603,,-2.669921875,-10.718205452,99.3419189453,0.0204319991171,1.0,0.0,0.0,0.0,1.0,0.0,0.0,0.0,1.0,-0.0609756112099,2.13414645195,0.12195122242,1.0,0.0,0.0,0.0,1.0,0.0,0.0,0.0,1.0,0.967257470703,-0.545877978516,10.0077629395,1.0,0.0,0.0,0.0,1.0,0.0,0.0,0.0,1.0
1463845664120479032,240,1463845664107420156,,-2.71691608429,-10.5854921341,99.3523025513,0.0203920006752,1.0,0.0,0.0,0.0,1.0,0.0,0.0,0.0,1.0,-0.365853667259,1.95121955872,0.304878056049,1.0,0.0,0.0,0.0,1.0,0.0,0.0,0.0,1.0,0.933738647461,-0.603338854892,10.0508585693,1.0,0.0,0.0,0.0,1.0,0.0,0.0,0.0,1.0
1463845664139607560,241,1463845664127099666,,-2.75402522087,-10.4565324783,99.3646087646,0.0204070005566,1.0,0.0,0.0,0.0,1.0,0.0,0.0,0.0,1.0,-0.243902444839,1.8292683363,0.365853667259,1.0,0.0,0.0,0.0,1.0,0.0,0.0,0.0,1.0,0.842758984375,-0.641646044922,10.1370498291,1.0,0.0,0.0,0.0,1.0,0.0,0.0,0.0,1.0
1463845664150954429,242,1463845664147369220,,-2.80456614494,-10.3336648941,99.3725128174,0.0203850008547,1.0,0.0,0.0,0.0,1.0,0.0,0.0,0.0,1.0,-0.365853667259,1.70731711388,0.12195122242,1.0,0.0,0.0,0.0,1.0,0.0,0.0,0.0,1.0,0.933738647461,-0.646434448242,10.0795889893,1.0,0.0,0.0,0.0,1.0,0.0,0.0,0.0,1.0
1463845664169755931,243,1463845664167771793,,-2.84489679337,-10.2184038162,99.3862228394,0.0204240009189,1.0,0.0,0.0,0.0,1.0,0.0,0.0,0.0,1.0,-0.548780500889,1.8292683363,0.426829278469,1.0,0.0,0.0,0.0,1.0,0.0,0.0,0.0,1.0,0.885854614258,-0.660799658203,10.1083194092,1.0,0.0,0.0,0.0,1.0,0.0,0.0,0.0,1.0
1463845664191326977,244,1463845664188550298,,-2.87969374657,-10.0975074768,99.3915328979,0.0204230006784,1.0,0.0,0.0,0.0,1.0,0.0,0.0,0.0,1.0,-0.548780500889,2.01219511032,0.0609756112099,1.0,0.0,0.0,0.0,1.0,0.0,0.0,0.0,1.0,0.857124194336,-0.588973571866,10.0269165527,1.0,0.0,0.0,0.0,1.0,0.0,0.0,0.0,1.0
1463845664211184766,245,1463845664208846414,,-2.92413711548,-9.98068523407,99.4012451172,0.0204590000212,1.0,0.0,0.0,0.0,1.0,0.0,0.0,0.0,1.0,-0.426829278469,1.8902438879,0.243902444839,1.0,0.0,0.0,0.0,1.0,0.0,0.0,0.0,1.0,0.928950244141,-0.622492431641,9.99818613281,1.0,0.0,0.0,0.0,1.0,0.0,0.0,0.0,1.0
1463845664231107397,246,1463845664228914460,,-2.96072888374,-9.86324882507,99.4080886841,0.0203360002488,1.0,0.0,0.0,0.0,1.0,0.0,0.0,0.0,1.0,-0.426829278469,1.95121955872,0.12195122242,1.0,0.0,0.0,0.0,1.0,0.0,0.0,0.0,1.0,0.885854614258,-0.598550451572,10.1035310059,1.0,0.0,0.0,0.0,1.0,0.0,0.0,0.0,1.0
1463845664264261038,247,1463845664249326199,,-2.99711918831,-9.75345516205,99.4191360474,0.0204050000757,1.0,0.0,0.0,0.0,1.0,0.0,0.0,0.0,1.0,-0.487804889679,1.8902438879,0.304878056049,1.0,0.0,0.0,0.0,1.0,0.0,0.0,0.0,1.0,0.885854614258,-0.636857641602,10.1178962158,1.0,0.0,0.0,0.0,1.0,0.0,0.0,0.0,1.0
1463845664276754453,248,1463845664269963300,,-3.02473926544,-9.65056037903,99.4273986816,0.0204070005566,1.0,0.0,0.0,0.0,1.0,0.0,0.0,0.0,1.0,-0.487804889679,2.07317066193,0.18292683363,1.0,0.0,0.0,0.0,1.0,0.0,0.0,0.0,1.0,0.837970581055,-0.675164868164,10.046070166,1.0,0.0,0.0,0.0,1.0,0.0,0.0,0.0,1.0
1463845664292507196,249,1463845664290241760,,-3.06310772896,-9.53841018677,99.4337539673,0.020408000797,1.0,0.0,0.0,0.0,1.0,0.0,0.0,0.0,1.0,-0.243902444839,1.8292683363,0.0609756112099,1.0,0.0,0.0,0.0,1.0,0.0,0.0,0.0,1.0,0.900219824219,-0.627280834961,10.165780249,1.0,0.0,0.0,0.0,1.0,0.0,0.0,0.0,1.0
1463845664313322576,250,1463845664310521366,,-3.10018563271,-9.42767524719,99.439201355,0.0204029995948,1.0,0.0,0.0,0.0,1.0,0.0,0.0,0.0,1.0,-0.304878056049,2.07317066193,0.0609756112099,1.0,0.0,0.0,0.0,1.0,0.0,0.0,0.0,1.0,0.938527050781,-0.60812722168,10.1609918457,1.0,0.0,0.0,0.0,1.0,0.0,0.0,0.0,1.0
1463845664333887386,251,1463845664331012687,,-3.12059783936,-9.32210063934,99.4516067505,0.0204179994762,1.0,0.0,0.0,0.0,1.0,0.0,0.0,0.0,1.0,-0.18292683363,1.95121955872,0.365853667259,1.0,0.0,0.0,0.0,1.0,0.0,0.0,0.0,1.0,0.780509741211,-0.651222851562,10.1035310059,1.0,0.0,0.0,0.0,1.0,0.0,0.0,0.0,1.0
1463845664354110117,252,1463845664351525519,,-3.15079021454,-9.21116161346,99.4598999023,0.0204009991139,1.0,0.0,0.0,0.0,1.0,0.0,0.0,0.0,1.0,-0.243902444839,1.95121955872,0.18292683363,1.0,0.0,0.0,0.0,1.0,0.0,0.0,0.0,1.0,0.871489404297,-0.579396801758,10.1897222656,1.0,0.0,0.0,0.0,1.0,0.0,0.0,0.0,1.0
1463845664374505034,253,1463845664372064444,,-3.18079900742,-9.09851455688,99.4652938843,0.020524000749,1.0,0.0,0.0,0.0,1.0,0.0,0.0,0.0,1.0,-0.365853667259,2.01219511032,0.0609756112099,1.0,0.0,0.0,0.0,1.0,0.0,0.0,0.0,1.0,0.876277807617,-0.526724328702,10.1418382324,1.0,0.0,0.0,0.0,1.0,0.0,0.0,0.0,1.0
1463845664394710474,254,1463845664392671961,,-3.21751594543,-8.98635578156,99.4747390747,0.0202939994633,1.0,0.0,0.0,0.0,1.0,0.0,0.0,0.0,1.0,-0.243902444839,1.8902438879,0.243902444839,1.0,0.0,0.0,0.0,1.0,0.0,0.0,0.0,1.0,0.92416184082,-0.517147558594,10.1035310059,1.0,0.0,0.0,0.0,1.0,0.0,0.0,0.0,1.0
1463845664417065779,255,1463845664413110054,,-3.25262379646,-8.88091659546,99.4864196777,0.0204240009189,1.0,0.0,0.0,0.0,1.0,0.0,0.0,0.0,1.0,-0.243902444839,1.70731711388,0.304878056049,1.0,0.0,0.0,0.0,1.0,0.0,0.0,0.0,1.0,0.881066210937,-0.560243188477,10.0700121826,1.0,0.0,0.0,0.0,1.0,0.0,0.0,0.0,1.0
1463845664438720990,256,1463845664433780175,,-3.27394843102,-8.78439903259,99.49243927,0.0204099994153,1.0,0.0,0.0,0.0,1.0,0.0,0.0,0.0,1.0,-0.426829278469,2.01219511032,0.0609756112099,1.0,0.0,0.0,0.0,1.0,0.0,0.0,0.0,1.0,0.818816967773,-0.593762048251,10.1322614258,1.0,0.0,0.0,0.0,1.0,0.0,0.0,0.0,1.0
1463845664456846148,257,1463845664453820306,,-3.29025506973,-8.68942832947,99.49609375,0.0204099994153,1.0,0.0,0.0,0.0,1.0,0.0,0.0,0.0,1.0,-0.304878056049,2.43902444839,0.0,1.0,0.0,0.0,0.0,1.0,0.0,0.0,0.0,1.0,0.852335791016,-0.612915625,10.1274730225,1.0,0.0,0.0,0.0,1.0,0.0,0.0,0.0,1.0
1463845664477368771,258,1463845664474334804,,-3.30946063995,-8.59770488739,99.5103378296,0.0204089991748,1.0,0.0,0.0,0.0,1.0,0.0,0.0,0.0,1.0,-0.487804889679,2.19512200356,0.487804889679,1.0,0.0,0.0,0.0,1.0,0.0,0.0,0.0,1.0,0.847547387695,-0.584185168546,10.0939541992,1.0,0.0,0.0,0.0,1.0,0.0,0.0,0.0,1.0
1463845664496888544,259,1463845664494616701,,-3.34203648567,-8.49675369263,99.5228118896,0.0204099994153,1.0,0.0,0.0,0.0,1.0,0.0,0.0,0.0,1.0,-0.18292683363,1.8902438879,0.365853667259,1.0,0.0,0.0,0.0,1.0,0.0,0.0,0.0,1.0,0.909796630859,-0.541089611728,10.0843773926,1.0,0.0,0.0,0.0,1.0,0.0,0.0,0.0,1.0
1463845664529162457,260,1463845664515739107,,-3.37127351761,-8.41613674164,99.5307540894,0.0203990004957,1.0,0.0,0.0,0.0,1.0,0.0,0.0,0.0,1.0,-0.670731723309,1.95121955872,0.12195122242,1.0,0.0,0.0,0.0,1.0,0.0,0.0,0.0,1.0,0.885854614258,-0.612915625,10.0221281494,1.0,0.0,0.0,0.0,1.0,0.0,0.0,0.0,1.0
1463845664540891560,261,1463845664535314817,,-3.4028646946,-8.33314228058,99.5417938232,0.0204290002584,1.0,0.0,0.0,0.0,1.0,0.0,0.0,0.0,1.0,-0.548780500889,2.13414645195,0.304878056049,1.0,0.0,0.0,0.0,1.0,0.0,0.0,0.0,1.0,0.948103857422,-0.598550451572,10.0221281494,1.0,0.0,0.0,0.0,1.0,0.0,0.0,0.0,1.0
1463845664578324671,262,1463845664556183633,,-3.42982554436,-8.25160217285,99.558921814,0.0204029995948,1.0,0.0,0.0,0.0,1.0,0.0,0.0,0.0,1.0,-0.365853667259,2.25609779358,0.609756112099,1.0,0.0,0.0,0.0,1.0,0.0,0.0,0.0,1.0,0.952892260742,-0.632069238281,10.1274730225,1.0,0.0,0.0,0.0,1.0,0.0,0.0,0.0,1.0
1463845664578594927,263,1463845664576481572,,-3.44635891914,-8.1707868576,99.5739212036,0.0204099994153,1.0,0.0,0.0,0.0,1.0,0.0,0.0,0.0,1.0,-0.548780500889,2.07317066193,0.487804889679,1.0,0.0,0.0,0.0,1.0,0.0,0.0,0.0,1.0,0.823605371094,-0.588973571866,10.060435376,1.0,0.0,0.0,0.0,1.0,0.0,0.0,0.0,1.0
1463845664598538913,264,1463845664596659460,,-3.4906027317,-8.0862827301,99.5835876465,0.0204470008612,1.0,0.0,0.0,0.0,1.0,0.0,0.0,0.0,1.0,-0.243902444839,1.40243899822,0.12195122242,1.0,0.0,0.0,0.0,1.0,0.0,0.0,0.0,1.0,0.952892260742,-0.60812722168,10.1897222656,1.0,0.0,0.0,0.0,1.0,0.0,0.0,0.0,1.0
1463845664628874416,265,1463845664617281613,,-3.52181053162,-8.00588130951,99.5992889404,0.0203430000693,1.0,0.0,0.0,0.0,1.0,0.0,0.0,0.0,1.0,-0.304878056049,1.8902438879,0.487804889679,1.0,0.0,0.0,0.0,1.0,0.0,0.0,0.0,1.0,0.938527050781,-0.60812722168,10.1370498291,1.0,0.0,0.0,0.0,1.0,0.0,0.0,0.0,1.0
1463845664640459563,266,1463845664637587104,,-3.55975151062,-7.92145299911,99.6101760864,0.0205400008708,1.0,0.0,0.0,0.0,1.0,0.0,0.0,0.0,1.0,-0.365853667259,1.76829278469,0.243902444839,1.0,0.0,0.0,0.0,1.0,0.0,0.0,0.0,1.0,0.962469067383,-0.550666381836,10.0364933594,1.0,0.0,0.0,0.0,1.0,0.0,0.0,0.0,1.0
1463845664669060612,267,1463845664658289881,,-3.58684945107,-7.83543682098,99.6211166382,0.0203140005469,1.0,0.0,0.0,0.0,1.0,0.0,0.0,0.0,1.0,-0.365853667259,2.07317066193,0.304878056049,1.0,0.0,0.0,0.0,1.0,0.0,0.0,0.0,1.0,0.938527050781,-0.517147558594,10.1035310059,1.0,0.0,0.0,0.0,1.0,0.0,0.0,0.0,1.0
1463845665016854125,268,1463845664678737245,,-3.59960913658,-7.76328516006,99.6327056885,0.0204009991139,1.0,0.0,0.0,0.0,1.0,0.0,0.0,0.0,1.0,-0.426829278469,2.13414645195,0.304878056049,1.0,0.0,0.0,0.0,1.0,0.0,0.0,0.0,1.0,0.828393774414,-0.61770402832,10.1131078125,1.0,0.0,0.0,0.0,1.0,0.0,0.0,0.0,1.0
1463845665017183808,269,1463845664698985393,,-3.61863565445,-7.6927614212,99.643371582,0.0204029995948,1.0,0.0,0.0,0.0,1.0,0.0,0.0,0.0,1.0,-0.548780500889,2.01219511032,0.243902444839,1.0,0.0,0.0,0.0,1.0,0.0,0.0,0.0,1.0,0.857124194336,-0.593762048251,10.0508585693,1.0,0.0,0.0,0.0,1.0,0.0,0.0,0.0,1.0
1463845665017503074,270,1463845664719308071,,-3.64159655571,-7.62279272079,99.6534576416,0.0204470008612,1.0,0.0,0.0,0.0,1.0,0.0,0.0,0.0,1.0,-0.487804889679,2.25609779358,0.243902444839,1.0,0.0,0.0,0.0,1.0,0.0,0.0,0.0,1.0,0.952892260742,-0.60812722168,10.2136642822,1.0,0.0,0.0,0.0,1.0,0.0,0.0,0.0,1.0
1463845665019269663,271,1463845664739806007,,-3.66519761086,-7.54783678055,99.6606750488,0.0204530004412,1.0,0.0,0.0,0.0,1.0,0.0,0.0,0.0,1.0,-0.365853667259,1.8902438879,0.0609756112099,1.0,0.0,0.0,0.0,1.0,0.0,0.0,0.0,1.0,0.890643017578,-0.574608398438,10.1992990723,1.0,0.0,0.0,0.0,1.0,0.0,0.0,0.0,1.0
1463845665019641689,272,1463845664760012332,,-3.68827652931,-7.48031616211,99.6750793457,0.0203510001302,1.0,0.0,0.0,0.0,1.0,0.0,0.0,0.0,1.0,-0.243902444839,1.70731711388,0.365853667259,1.0,0.0,0.0,0.0,1.0,0.0,0.0,0.0,1.0,0.871489404297,-0.646434448242,10.2615483154,1.0,0.0,0.0,0.0,1.0,0.0,0.0,0.0,1.0
1463845665019922414,273,1463845664781555618,,-3.7030134201,-7.41571140289,99.6862258911,0.0203820001334,1.0,0.0,0.0,0.0,1.0,0.0,0.0,0.0,1.0,-0.670731723309,1.40243899822,0.18292683363,1.0,0.0,0.0,0.0,1.0,0.0,0.0,0.0,1.0,0.732625708008,-0.579396801758,10.1514150391,1.0,0.0,0.0,0.0,1.0,0.0,0.0,0.0,1.0
1463845665020183921,274,1463845664801308408,,-3.73607492447,-7.35327577591,99.6949234009,0.0204060003161,1.0,0.0,0.0,0.0,1.0,0.0,0.0,0.0,1.0,-0.426829278469,1.09756100178,0.0,1.0,0.0,0.0,0.0,1.0,0.0,0.0,0.0,1.0,0.837970581055,-0.632069238281,10.1418382324,1.0,0.0,0.0,0.0,1.0,0.0,0.0,0.0,1.0
1463845665020504332,275,1463845664823029972,,-3.77153706551,-7.29681634903,99.7126617432,0.0204009991139,1.0,0.0,0.0,0.0,1.0,0.0,0.0,0.0,1.0,-0.365853667259,1.09756100178,0.426829278469,1.0,0.0,0.0,0.0,1.0,0.0,0.0,0.0,1.0,0.876277807617,-0.679953271484,10.1514150391,1.0,0.0,0.0,0.0,1.0,0.0,0.0,0.0,1.0
1463845665021283227,276,1463845664842902188,,-3.80728244781,-7.2329158783,99.7284011841,0.0204189997166,1.0,0.0,0.0,0.0,1.0,0.0,0.0,0.0,1.0,-0.426829278469,1.15853655338,0.365853667259,1.0,0.0,0.0,0.0,1.0,0.0,0.0,0.0,1.0,0.885854614258,-0.588973571866,10.0652237793,1.0,0.0,0.0,0.0,1.0,0.0,0.0,0.0,1.0
1463845665021622598,277,1463845664862887111,,-3.84330701828,-7.17132616043,99.7518386841,0.0205380003899,1.0,0.0,0.0,0.0,1.0,0.0,0.0,0.0,1.0,-0.487804889679,1.58536589146,0.792682945728,1.0,0.0,0.0,0.0,1.0,0.0,0.0,0.0,1.0,0.976834277344,-0.584185168546,10.0508585693,1.0,0.0,0.0,0.0,1.0,0.0,0.0,0.0,1.0
1463845665021947749,278,1463845664882718858,,-3.87315583229,-7.10534000397,99.7569885254,0.0204799994826,1.0,0.0,0.0,0.0,1.0,0.0,0.0,0.0,1.0,-0.18292683363,1.95121955872,-0.0609756112099,1.0,0.0,0.0,0.0,1.0,0.0,0.0,0.0,1.0,0.991199487305,-0.60812722168,10.2088758789,1.0,0.0,0.0,0.0,1.0,0.0,0.0,0.0,1.0
1463845665022252276,279,1463845664903009245,,-3.8922252655,-7.04685497284,99.7682876587,0.0202300008386,1.0,0.0,0.0,0.0,1.0,0.0,0.0,0.0,1.0,-0.426829278469,2.43902444839,0.304878056049,1.0,0.0,0.0,0.0,1.0,0.0,0.0,0.0,1.0,0.991199487305,-0.603338854892,10.1274730225,1.0,0.0,0.0,0.0,1.0,0.0,0.0,0.0,1.0
1463845665023110180,280,1463845664923950716,,-3.88705611229,-6.98802423477,99.778213501,0.0205940008163,1.0,0.0,0.0,0.0,1.0,0.0,0.0,0.0,1.0,-0.487804889679,2.56097555161,0.243902444839,1.0,0.0,0.0,0.0,1.0,0.0,0.0,0.0,1.0,0.804451757813,-0.593762048251,10.1897222656,1.0,0.0,0.0,0.0,1.0,0.0,0.0,0.0,1.0
1463845665023537622,281,1463845664944066783,,-3.87490034103,-6.93733787537,99.7858200073,0.0202060006559,1.0,0.0,0.0,0.0,1.0,0.0,0.0,0.0,1.0,-0.548780500889,3.10975623131,0.18292683363,1.0,0.0,0.0,0.0,1.0,0.0,0.0,0.0,1.0,0.837970581055,-0.636857641602,10.1945106689,1.0,0.0,0.0,0.0,1.0,0.0,0.0,0.0,1.0
1463845665023920012,282,1463845664965477154,,-3.86861634254,-6.88013887405,99.7903289795,0.0204610005021,1.0,0.0,0.0,0.0,1.0,0.0,0.0,0.0,1.0,-0.426829278469,2.80487799644,0.0,1.0,0.0,0.0,0.0,1.0,0.0,0.0,0.0,1.0,0.828393774414,-0.598550451572,10.1753570557,1.0,0.0,0.0,0.0,1.0,0.0,0.0,0.0,1.0
1463845665028962127,283,1463845664984545214,,-3.86137080193,-6.82342576981,99.8025588989,0.0203559994698,1.0,0.0,0.0,0.0,1.0,0.0,0.0,0.0,1.0,-0.426829278469,2.19512200356,0.304878056049,1.0,0.0,0.0,0.0,1.0,0.0,0.0,0.0,1.0,0.713472094727,-0.584185168546,10.1466266357,1.0,0.0,0.0,0.0,1.0,0.0,0.0,0.0,1.0
1463845665029334205,284,1463845665005643246,,-3.88349103928,-6.77126550674,99.8159866333,0.0204550009221,1.0,0.0,0.0,0.0,1.0,0.0,0.0,0.0,1.0,-0.426829278469,1.34146344662,0.243902444839,1.0,0.0,0.0,0.0,1.0,0.0,0.0,0.0,1.0,0.814028564453,-0.612915625,10.1035310059,1.0,0.0,0.0,0.0,1.0,0.0,0.0,0.0,1.0
1463845665029664929,285,1463845665025150672,,-3.90978312492,-6.71760320663,99.833114624,0.0203419998288,1.0,0.0,0.0,0.0,1.0,0.0,0.0,0.0,1.0,-0.487804889679,1.2195122242,0.426829278469,1.0,0.0,0.0,0.0,1.0,0.0,0.0,0.0,1.0,0.837970581055,-0.574608398438,10.1083194092,1.0,0.0,0.0,0.0,1.0,0.0,0.0,0.0,1.0
1463845665207382778,286,1463845665045549648,,-3.94472694397,-6.66354036331,99.8543167114,0.020408000797,1.0,0.0,0.0,0.0,1.0,0.0,0.0,0.0,1.0,-0.304878056049,1.15853655338,0.609756112099,1.0,0.0,0.0,0.0,1.0,0.0,0.0,0.0,1.0,0.9193734375,-0.598550451572,10.1992990723,1.0,0.0,0.0,0.0,1.0,0.0,0.0,0.0,1.0
1463845665207677982,287,1463845665066393774,,-3.97303676605,-6.61983919144,99.8663024902,0.0204329993576,1.0,0.0,0.0,0.0,1.0,0.0,0.0,0.0,1.0,-0.487804889679,1.58536589146,0.18292683363,1.0,0.0,0.0,0.0,1.0,0.0,0.0,0.0,1.0,0.92416184082,-0.646434448242,10.0843773926,1.0,0.0,0.0,0.0,1.0,0.0,0.0,0.0,1.0
1463845665207986519,288,1463845665086756292,,-3.98616838455,-6.56686782837,99.8780670166,0.0203660000116,1.0,0.0,0.0,0.0,1.0,0.0,0.0,0.0,1.0,-0.243902444839,2.56097555161,0.304878056049,1.0,0.0,0.0,0.0,1.0,0.0,0.0,0.0,1.0,0.986411083984,-0.60812722168,10.2328178955,1.0,0.0,0.0,0.0,1.0,0.0,0.0,0.0,1.0
1463845665208308546,289,1463845665107374379,,-3.98559379578,-6.53162145615,99.8904342651,0.0204399991781,1.0,0.0,0.0,0.0,1.0,0.0,0.0,0.0,1.0,-0.304878056049,3.35365867615,0.365853667259,1.0,0.0,0.0,0.0,1.0,0.0,0.0,0.0,1.0,1.00556469727,-0.742202514648,10.165780249,1.0,0.0,0.0,0.0,1.0,0.0,0.0,0.0,1.0
1463845665208616354,290,1463845665127687940,,-3.96878433228,-6.49224901199,99.9127883911,0.0204269997776,1.0,0.0,0.0,0.0,1.0,0.0,0.0,0.0,1.0,-0.426829278469,3.65853667259,0.914634168148,1.0,0.0,0.0,0.0,1.0,0.0,0.0,0.0,1.0,0.9193734375,-0.665588061523,10.0843773926,1.0,0.0,0.0,0.0,1.0,0.0,0.0,0.0,1.0
1463845665208879839,291,1463845665148170040,,-3.97722434998,-6.44116401672,99.9195251465,0.0204019993544,1.0,0.0,0.0,0.0,1.0,0.0,0.0,0.0,1.0,-0.670731723309,1.8902438879,0.0,1.0,0.0,0.0,0.0,1.0,0.0,0.0,0.0,1.0,0.818816967773,-0.531512805087,10.2807019287,1.0,0.0,0.0,0.0,1.0,0.0,0.0,0.0,1.0
1463845665209155617,292,1463845665167883974,,-3.9766831398,-6.39528417587,99.9277496338,0.0203740000725,1.0,0.0,0.0,0.0,1.0,0.0,0.0,0.0,1.0,-0.426829278469,2.62195134163,0.12195122242,1.0,0.0,0.0,0.0,1.0,0.0,0.0,0.0,1.0,0.857124194336,-0.598550451572,10.060435376,1.0,0.0,0.0,0.0,1.0,0.0,0.0,0.0,1.0
1463845665209445092,293,1463845665188772057,,-3.97339725494,-6.35752820969,99.9331665039,0.0204540006816,1.0,0.0,0.0,0.0,1.0,0.0,0.0,0.0,1.0,-0.243902444839,2.07317066193,-0.12195122242,1.0,0.0,0.0,0.0,1.0,0.0,0.0,0.0,1.0,0.742202514648,-0.708683691406,10.2088758789,1.0,0.0,0.0,0.0,1.0,0.0,0.0,0.0,1.0
1463845665311288047,294,1463845665208853746,,-3.99471616745,-6.30468416214,99.9460678101,0.0203559994698,1.0,0.0,0.0,0.0,1.0,0.0,0.0,0.0,1.0,0.0,1.70731711388,0.243902444839,1.0,0.0,0.0,0.0,1.0,0.0,0.0,0.0,1.0,0.885854614258,-0.593762048251,10.0317049561,1.0,0.0,0.0,0.0,1.0,0.0,0.0,0.0,1.0
1463845665311647261,295,1463845665229596207,,-4.02487039566,-6.25459003448,99.9602966309,0.020422000438,1.0,0.0,0.0,0.0,1.0,0.0,0.0,0.0,1.0,-0.365853667259,1.52439022064,0.304878056049,1.0,0.0,0.0,0.0,1.0,0.0,0.0,0.0,1.0,0.938527050781,-0.545877978516,10.0748005859,1.0,0.0,0.0,0.0,1.0,0.0,0.0,0.0,1.0
1463845665311975485,296,1463845665250209763,,-4.04592847824,-6.20877170563,99.9712905884,0.020422000438,1.0,0.0,0.0,0.0,1.0,0.0,0.0,0.0,1.0,-0.609756112099,1.2804877758,0.12195122242,1.0,0.0,0.0,0.0,1.0,0.0,0.0,0.0,1.0,0.828393774414,-0.541089611728,10.2184526855,1.0,0.0,0.0,0.0,1.0,0.0,0.0,0.0,1.0
1463845665312338084,297,1463845665270688530,,-4.06196832657,-6.17355108261,99.9922180176,0.0204119998962,1.0,0.0,0.0,0.0,1.0,0.0,0.0,0.0,1.0,-0.426829278469,1.70731711388,0.609756112099,1.0,0.0,0.0,0.0,1.0,0.0,0.0,0.0,1.0,0.871489404297,-0.651222851562,10.1753570557,1.0,0.0,0.0,0.0,1.0,0.0,0.0,0.0,1.0
1463845665570085505,298,1463845665290413922,,-4.07710838318,-6.14283800125,100.005462646,0.0204319991171,1.0,0.0,0.0,0.0,1.0,0.0,0.0,0.0,1.0,-0.548780500889,1.8902438879,0.243902444839,1.0,0.0,0.0,0.0,1.0,0.0,0.0,0.0,1.0,0.895431420898,-0.670376464844,10.2136642822,1.0,0.0,0.0,0.0,1.0,0.0,0.0,0.0,1.0
1463845665570427792,299,1463845665311793404,,-4.10454511642,-6.11207675934,100.019264221,0.0203680004925,1.0,0.0,0.0,0.0,1.0,0.0,0.0,0.0,1.0,-0.670731723309,1.52439022064,0.243902444839,1.0,0.0,0.0,0.0,1.0,0.0,0.0,0.0,1.0,0.943315454102,-0.641646044922,10.2280294922,1.0,0.0,0.0,0.0,1.0,0.0,0.0,0.0,1.0
1463845665571059033,300,1463845665331847646,,-4.11350345612,-6.07084178925,100.031082153,0.0204150006175,1.0,0.0,0.0,0.0,1.0,0.0,0.0,0.0,1.0,-0.426829278469,2.25609779358,0.243902444839,1.0,0.0,0.0,0.0,1.0,0.0,0.0,0.0,1.0,0.900219824219,-0.579396801758,10.0652237793,1.0,0.0,0.0,0.0,1.0,0.0,0.0,0.0,1.0
1463845665571590223,301,1463845665352892602,,-4.13013029099,-6.03516626358,100.048202515,0.0204089991748,1.0,0.0,0.0,0.0,1.0,0.0,0.0,0.0,1.0,-0.365853667259,2.31707310677,0.487804889679,1.0,0.0,0.0,0.0,1.0,0.0,0.0,0.0,1.0,0.991199487305,-0.632069238281,10.1274730225,1.0,0.0,0.0,0.0,1.0,0.0,0.0,0.0,1.0
1463845665572443388,302,1463845665372942781,,-4.13456296921,-5.99460411072,100.063690186,0.0204930007458,1.0,0.0,0.0,0.0,1.0,0.0,0.0,0.0,1.0,-0.18292683363,2.5,0.426829278469,1.0,0.0,0.0,0.0,1.0,0.0,0.0,0.0,1.0,0.909796630859,-0.612915625,10.0412817627,1.0,0.0,0.0,0.0,1.0,0.0,0.0,0.0,1.0
1463845665572772602,303,1463845665393492849,,-4.13275051117,-5.9509601593,100.075263977,0.0205729994923,1.0,0.0,0.0,0.0,1.0,0.0,0.0,0.0,1.0,-0.365853667259,2.37804889679,0.243902444839,1.0,0.0,0.0,0.0,1.0,0.0,0.0,0.0,1.0,0.837970581055,-0.555454785156,10.1322614258,1.0,0.0,0.0,0.0,1.0,0.0,0.0,0.0,1.0
1463845665574667366,304,1463845665413696359,,-4.13324689865,-5.91458749771,100.088111877,0.0201639998704,1.0,0.0,0.0,0.0,1.0,0.0,0.0,0.0,1.0,-0.426829278469,2.43902444839,0.304878056049,1.0,0.0,0.0,0.0,1.0,0.0,0.0,0.0,1.0,0.871489404297,-0.593762048251,10.1466266357,1.0,0.0,0.0,0.0,1.0,0.0,0.0,0.0,1.0
1463845665575067725,305,1463845665434003513,,-4.12346220016,-5.87698030472,100.096229553,0.0204329993576,1.0,0.0,0.0,0.0,1.0,0.0,0.0,0.0,1.0,-0.365853667259,2.43902444839,0.0609756112099,1.0,0.0,0.0,0.0,1.0,0.0,0.0,0.0,1.0,0.780509741211,-0.598550451572,10.2040874756,1.0,0.0,0.0,0.0,1.0,0.0,0.0,0.0,1.0
1463845665575433084,306,1463845665454720714,,-4.12713575363,-5.84608840942,100.107444763,0.020386999473,1.0,0.0,0.0,0.0,1.0,0.0,0.0,0.0,1.0,-0.426829278469,2.31707310677,0.18292683363,1.0,0.0,0.0,0.0,1.0,0.0,0.0,0.0,1.0,0.871489404297,-0.632069238281,10.1178962158,1.0,0.0,0.0,0.0,1.0,0.0,0.0,0.0,1.0
1463845665575708861,307,1463845665474401107,,-4.13968849182,-5.80609798431,100.11529541,0.0205279998481,1.0,0.0,0.0,0.0,1.0,0.0,0.0,0.0,1.0,-0.304878056049,1.95121955872,0.0,1.0,0.0,0.0,0.0,1.0,0.0,0.0,0.0,1.0,0.876277807617,-0.569819995117,10.0700121826,1.0,0.0,0.0,0.0,1.0,0.0,0.0,0.0,1.0
1463845665575962503,308,1463845665495213566,,-4.14836215973,-5.77443027496,100.126106262,0.0202660001814,1.0,0.0,0.0,0.0,1.0,0.0,0.0,0.0,1.0,-0.548780500889,1.76829278469,0.12195122242,1.0,0.0,0.0,0.0,1.0,0.0,0.0,0.0,1.0,0.818816967773,-0.588973571866,10.1131078125,1.0,0.0,0.0,0.0,1.0,0.0,0.0,0.0,1.0
1463845665576304165,309,1463845665514907448,,-4.16168022156,-5.74011802673,100.134384155,0.0204119998962,1.0,0.0,0.0,0.0,1.0,0.0,0.0,0.0,1.0,-0.243902444839,1.95121955872,0.0,1.0,0.0,0.0,0.0,1.0,0.0,0.0,0.0,1.0,0.890643017578,-0.61770402832,10.1035310059,1.0,0.0,0.0,0.0,1.0,0.0,0.0,0.0,1.0
1463845665576634160,310,1463845665535412777,,-4.18237352371,-5.70784950256,100.14932251,0.0203980002552,1.0,0.0,0.0,0.0,1.0,0.0,0.0,0.0,1.0,-0.18292683363,1.8292683363,0.304878056049,1.0,0.0,0.0,0.0,1.0,0.0,0.0,0.0,1.0,0.943315454102,-0.636857641602,10.1178962158,1.0,0.0,0.0,0.0,1.0,0.0,0.0,0.0,1.0
1463845665576948010,311,1463845665556361953,,-4.19820213318,-5.66193675995,100.158409119,0.0204370003194,1.0,0.0,0.0,0.0,1.0,0.0,0.0,0.0,1.0,-0.304878056049,1.70731711388,0.0609756112099,1.0,0.0,0.0,0.0,1.0,0.0,0.0,0.0,1.0,0.876277807617,-0.493205541992,10.1178962158,1.0,0.0,0.0,0.0,1.0,0.0,0.0,0.0,1.0
1463845665653110347,312,1463845665576415726,,-4.21387052536,-5.63480091095,100.172714233,0.0206010006368,1.0,0.0,0.0,0.0,1.0,0.0,0.0,0.0,1.0,-0.12195122242,1.8292683363,0.243902444839,1.0,0.0,0.0,0.0,1.0,0.0,0.0,0.0,1.0,0.900219824219,-0.679953271484,10.0843773926,1.0,0.0,0.0,0.0,1.0,0.0,0.0,0.0,1.0
1463845665655534999,313,1463845665597290841,,-4.22683668137,-5.60150241852,100.183151245,0.0203360002488,1.0,0.0,0.0,0.0,1.0,0.0,0.0,0.0,1.0,-0.609756112099,1.8292683363,0.12195122242,1.0,0.0,0.0,0.0,1.0,0.0,0.0,0.0,1.0,0.876277807617,-0.531512805087,10.0700121826,1.0,0.0,0.0,0.0,1.0,0.0,0.0,0.0,1.0
1463845665731634993,314,1463845665617169773,,-4.2451672554,-5.583152771,100.199211121,0.0202619992197,1.0,0.0,0.0,0.0,1.0,0.0,0.0,0.0,1.0,-0.365853667259,2.19512200356,0.365853667259,1.0,0.0,0.0,0.0,1.0,0.0,0.0,0.0,1.0,1.00077629395,-0.699106884766,10.1035310059,1.0,0.0,0.0,0.0,1.0,0.0,0.0,0.0,1.0
1463845665742213851,315,1463845665637999263,,-4.23372077942,-5.55704116821,100.211364746,0.0204169992357,1.0,0.0,0.0,0.0,1.0,0.0,0.0,0.0,1.0,-0.609756112099,2.5,0.243902444839,1.0,0.0,0.0,0.0,1.0,0.0,0.0,0.0,1.0,0.799663354492,-0.593762048251,10.2040874756,1.0,0.0,0.0,0.0,1.0,0.0,0.0,0.0,1.0
1463845665916365241,316,1463845665657840747,,-4.2379322052,-5.52148103714,100.222366333,0.0205230005085,1.0,0.0,0.0,0.0,1.0,0.0,0.0,0.0,1.0,-0.304878056049,2.37804889679,0.18292683363,1.0,0.0,0.0,0.0,1.0,0.0,0.0,0.0,1.0,0.909796630859,-0.560243188477,10.165780249,1.0,0.0,0.0,0.0,1.0,0.0,0.0,0.0,1.0
1463845665916647424,317,1463845665678686644,,-4.23562145233,-5.49219322205,100.233802795,0.020361000672,1.0,0.0,0.0,0.0,1.0,0.0,0.0,0.0,1.0,-0.18292683363,2.43902444839,0.18292683363,1.0,0.0,0.0,0.0,1.0,0.0,0.0,0.0,1.0,0.861912597656,-0.627280834961,10.1370498291,1.0,0.0,0.0,0.0,1.0,0.0,0.0,0.0,1.0
1463845665917016325,318,1463845665698576304,,-4.24180746078,-5.46337747574,100.242149353,0.0203360002488,1.0,0.0,0.0,0.0,1.0,0.0,0.0,0.0,1.0,-0.18292683363,2.13414645195,0.0,1.0,0.0,0.0,0.0,1.0,0.0,0.0,0.0,1.0,0.871489404297,-0.622492431641,10.0508585693,1.0,0.0,0.0,0.0,1.0,0.0,0.0,0.0,1.0
1463845665917569494,319,1463845665719666208,,-4.25424528122,-5.42988777161,100.25390625,0.0204319991171,1.0,0.0,0.0,0.0,1.0,0.0,0.0,0.0,1.0,-0.18292683363,2.13414645195,0.18292683363,1.0,0.0,0.0,0.0,1.0,0.0,0.0,0.0,1.0,0.928950244141,-0.574608398438,10.0412817627,1.0,0.0,0.0,0.0,1.0,0.0,0.0,0.0,1.0
1463845665918126569,320,1463845665739724460,,-4.25815582275,-5.40330600739,100.268463135,0.0203590001911,1.0,0.0,0.0,0.0,1.0,0.0,0.0,0.0,1.0,-0.365853667259,2.07317066193,0.304878056049,1.0,0.0,0.0,0.0,1.0,0.0,0.0,0.0,1.0,0.847547387695,-0.593762048251,10.0364933594,1.0,0.0,0.0,0.0,1.0,0.0,0.0,0.0,1.0
1463845665920422161,321,1463845665759869585,,-4.27396917343,-5.37750434875,100.279823303,0.020428000018,1.0,0.0,0.0,0.0,1.0,0.0,0.0,0.0,1.0,-0.304878056049,1.8902438879,0.12195122242,1.0,0.0,0.0,0.0,1.0,0.0,0.0,0.0,1.0,0.928950244141,-0.61770402832,10.1705686523,1.0,0.0,0.0,0.0,1.0,0.0,0.0,0.0,1.0
1463845665921010538,322,1463845665780261999,,-4.27998495102,-5.34553384781,100.291893005,0.0205090008676,1.0,0.0,0.0,0.0,1.0,0.0,0.0,0.0,1.0,-0.365853667259,2.56097555161,0.243902444839,1.0,0.0,0.0,0.0,1.0,0.0,0.0,0.0,1.0,0.972045874023,-0.550666381836,10.2232410889,1.0,0.0,0.0,0.0,1.0,0.0,0.0,0.0,1.0
1463845665921398084,323,1463845665802398710,,-4.28711032867,-5.32569360733,100.297660828,0.020325999707,1.0,0.0,0.0,0.0,1.0,0.0,0.0,0.0,1.0,-0.304878056049,2.43902444839,-0.12195122242,1.0,0.0,0.0,0.0,1.0,0.0,0.0,0.0,1.0,0.948103857422,-0.660799658203,10.1370498291,1.0,0.0,0.0,0.0,1.0,0.0,0.0,0.0,1.0
1463845665921759486,324,1463845665822091082,,-4.28130340576,-5.3063993454,100.305145264,0.0205119997263,1.0,0.0,0.0,0.0,1.0,0.0,0.0,0.0,1.0,-0.426829278469,2.80487799644,0.0,1.0,0.0,0.0,0.0,1.0,0.0,0.0,0.0,1.0,0.890643017578,-0.632069238281,10.0029745361,1.0,0.0,0.0,0.0,1.0,0.0,0.0,0.0,1.0
1463845665922085887,325,1463845665843718947,,-4.28812646866,-5.28869581223,100.316886902,0.0203040000051,1.0,0.0,0.0,0.0,1.0,0.0,0.0,0.0,1.0,-0.487804889679,1.8292683363,0.12195122242,1.0,0.0,0.0,0.0,1.0,0.0,0.0,0.0,1.0,0.847547387695,-0.641646044922,10.2280294922,1.0,0.0,0.0,0.0,1.0,0.0,0.0,0.0,1.0
1463845665922432340,326,1463845665862245918,,-4.26828670502,-5.26056241989,100.332679749,0.0203970000148,1.0,0.0,0.0,0.0,1.0,0.0,0.0,0.0,1.0,-0.609756112099,1.8292683363,0.365853667259,1.0,0.0,0.0,0.0,1.0,0.0,0.0,0.0,1.0,0.603338854892,-0.512359155273,10.046070166,1.0,0.0,0.0,0.0,1.0,0.0,0.0,0.0,1.0
1463845665922712597,327,1463845665883124888,,-4.28513717651,-5.23795747757,100.352859497,0.0210180003196,1.0,0.0,0.0,0.0,1.0,0.0,0.0,0.0,1.0,-0.365853667259,0.914634168148,0.426829278469,1.0,0.0,0.0,0.0,1.0,0.0,0.0,0.0,1.0,0.756567724609,-0.603338854892,10.060435376,1.0,0.0,0.0,0.0,1.0,0.0,0.0,0.0,1.0
1463845665923047956,328,1463845665903376470,,-4.33272123337,-5.2212562561,100.379608154,0.0199779998511,1.0,0.0,0.0,0.0,1.0,0.0,0.0,0.0,1.0,-0.18292683363,0.426829278469,0.731707334518,1.0,0.0,0.0,0.0,1.0,0.0,0.0,0.0,1.0,0.962469067383,-0.670376464844,10.0748005859,1.0,0.0,0.0,0.0,1.0,0.0,0.0,0.0,1.0
1463845665990246725,329,1463845665923855861,,-4.37584972382,-5.1900343895,100.400634766,0.0203189998865,1.0,0.0,0.0,0.0,1.0,0.0,0.0,0.0,1.0,-0.243902444839,1.09756100178,0.548780500889,1.0,0.0,0.0,0.0,1.0,0.0,0.0,0.0,1.0,1.0534486574,-0.541089611728,10.2040874756,1.0,0.0,0.0,0.0,1.0,0.0,0.0,0.0,1.0
1463845665990513284,330,1463845665944132652,,-4.405169487,-5.17203760147,100.413902283,0.0203380007297,1.0,0.0,0.0,0.0,1.0,0.0,0.0,0.0,1.0,-0.609756112099,1.52439022064,0.18292683363,1.0,0.0,0.0,0.0,1.0,0.0,0.0,0.0,1.0,1.01035310059,-0.593762048251,10.2184526855,1.0,0.0,0.0,0.0,1.0,0.0,0.0,0.0,1.0
1463845666041541342,331,1463845665964417254,,-4.42762851715,-5.15918397903,100.420669556,0.0203830003738,1.0,0.0,0.0,0.0,1.0,0.0,0.0,0.0,1.0,-0.365853667259,2.13414645195,-0.12195122242,1.0,0.0,0.0,0.0,1.0,0.0,0.0,0.0,1.0,1.02950671387,-0.665588061523,9.92157167969,1.0,0.0,0.0,0.0,1.0,0.0,0.0,0.0,1.0
1463845666082330382,332,1463845665984474933,,-4.40435934067,-5.14053630829,100.446556091,0.0204399991781,1.0,0.0,0.0,0.0,1.0,0.0,0.0,0.0,1.0,-0.426829278469,3.59756112099,0.975609779358,1.0,0.0,0.0,0.0,1.0,0.0,0.0,0.0,1.0,0.92416184082,-0.598550451572,10.060435376,1.0,0.0,0.0,0.0,1.0,0.0,0.0,0.0,1.0
1463845666082478557,333,1463845666005141041,,-4.4044175148,-5.11993455887,100.456214905,0.0203889999539,1.0,0.0,0.0,0.0,1.0,0.0,0.0,0.0,1.0,-0.731707334518,1.95121955872,0.0609756112099,1.0,0.0,0.0,0.0,1.0,0.0,0.0,0.0,1.0,0.833182177734,-0.545877978516,10.2759135254,1.0,0.0,0.0,0.0,1.0,0.0,0.0,0.0,1.0
1463845666082839906,334,1463845666025075801,,-4.41307163239,-5.09627819061,100.467521667,0.0204050000757,1.0,0.0,0.0,0.0,1.0,0.0,0.0,0.0,1.0,-0.609756112099,2.37804889679,0.18292683363,1.0,0.0,0.0,0.0,1.0,0.0,0.0,0.0,1.0,0.991199487305,-0.536301208408,10.2902787354,1.0,0.0,0.0,0.0,1.0,0.0,0.0,0.0,1.0
1463845666213760286,335,1463845666045683365,,-4.40325021744,-5.08225440979,100.483596802,0.0203939992934,1.0,0.0,0.0,0.0,1.0,0.0,0.0,0.0,1.0,-0.426829278469,3.04878044128,0.426829278469,1.0,0.0,0.0,0.0,1.0,0.0,0.0,0.0,1.0,0.943315454102,-0.641646044922,10.1753570557,1.0,0.0,0.0,0.0,1.0,0.0,0.0,0.0,1.0
1463845666215828954,336,1463845666066157597,,-4.40188217163,-5.05659341812,100.483680725,0.0204240009189,1.0,0.0,0.0,0.0,1.0,0.0,0.0,0.0,1.0,-0.365853667259,3.23170733452,-0.304878056049,1.0,0.0,0.0,0.0,1.0,0.0,0.0,0.0,1.0,1.02471831055,-0.550666381836,10.0508585693,1.0,0.0,0.0,0.0,1.0,0.0,0.0,0.0,1.0
1463845666216260510,337,1463845666086502613,,-4.36675405502,-5.04201030731,100.488647461,0.0203830003738,1.0,0.0,0.0,0.0,1.0,0.0,0.0,0.0,1.0,-0.365853667259,4.45121955872,0.0,1.0,0.0,0.0,0.0,1.0,0.0,0.0,0.0,1.0,0.952892260742,-0.641646044922,10.0748005859,1.0,0.0,0.0,0.0,1.0,0.0,0.0,0.0,1.0
1463845666216567485,338,1463845666107188301,,-4.32643795013,-5.0148525238,100.497428894,0.0204629991204,1.0,0.0,0.0,0.0,1.0,0.0,0.0,0.0,1.0,0.12195122242,4.32926845551,0.18292683363,1.0,0.0,0.0,0.0,1.0,0.0,0.0,0.0,1.0,0.881066210937,-0.612915625,10.0508585693,1.0,0.0,0.0,0.0,1.0,0.0,0.0,0.0,1.0
1463845666216867220,339,1463845666127734303,,-4.29851102829,-4.96725940704,100.50818634,0.0204009991139,1.0,0.0,0.0,0.0,1.0,0.0,0.0,0.0,1.0,-0.304878056049,2.68292689323,0.243902444839,1.0,0.0,0.0,0.0,1.0,0.0,0.0,0.0,1.0,0.684741674805,-0.349553442383,10.0077629395,1.0,0.0,0.0,0.0,1.0,0.0,0.0,0.0,1.0
1463845666217149091,340,1463845666147929737,,-4.25217342377,-4.94351959229,100.517204285,0.0204450003803,1.0,0.0,0.0,0.0,1.0,0.0,0.0,0.0,1.0,-0.243902444839,2.68292689323,0.0609756112099,1.0,0.0,0.0,0.0,1.0,0.0,0.0,0.0,1.0,0.517147558594,-0.560243188477,9.97424411621,1.0,0.0,0.0,0.0,1.0,0.0,0.0,0.0,1.0
1463845666217486065,341,1463845666168002100,,-4.21440458298,-4.91322231293,100.531974792,0.0203740000725,1.0,0.0,0.0,0.0,1.0,0.0,0.0,0.0,1.0,0.426829278469,3.23170733452,0.365853667259,1.0,0.0,0.0,0.0,1.0,0.0,0.0,0.0,1.0,0.699106884766,-0.627280834961,10.1992990723,1.0,0.0,0.0,0.0,1.0,0.0,0.0,0.0,1.0
1463845666217811686,342,1463845666188828463,,-4.22118234634,-4.88141536713,100.542236328,0.0204729996622,1.0,0.0,0.0,0.0,1.0,0.0,0.0,0.0,1.0,0.548780500889,3.04878044128,0.12195122242,1.0,0.0,0.0,0.0,1.0,0.0,0.0,0.0,1.0,1.04866025408,-0.632069238281,10.165780249,1.0,0.0,0.0,0.0,1.0,0.0,0.0,0.0,1.0
1463845666290164900,343,1463845666209236498,,-4.20677995682,-4.85821533203,100.55153656,0.0203440003097,1.0,0.0,0.0,0.0,1.0,0.0,0.0,0.0,1.0,0.243902444839,4.39024400711,0.18292683363,1.0,0.0,0.0,0.0,1.0,0.0,0.0,0.0,1.0,1.09654436035,-0.641646044922,10.0891657959,1.0,0.0,0.0,0.0,1.0,0.0,0.0,0.0,1.0
1463845666290492864,344,1463845666229628284,,-4.13889932632,-4.8301525116,100.55846405,0.0203889999539,1.0,0.0,0.0,0.0,1.0,0.0,0.0,0.0,1.0,-0.243902444839,7.31707334518,0.365853667259,1.0,0.0,0.0,0.0,1.0,0.0,0.0,0.0,1.0,1.12527478027,-0.497993945312,9.88326445312,1.0,0.0,0.0,0.0,1.0,0.0,0.0,0.0,1.0
1463845666290983222,345,1463845666250156005,,-4.05529975891,-4.79562759399,100.558143616,0.0204109996557,1.0,0.0,0.0,0.0,1.0,0.0,0.0,0.0,1.0,0.12195122242,7.31707334518,0.0,1.0,0.0,0.0,0.0,1.0,0.0,0.0,0.0,1.0,0.991199487305,-0.517147558594,10.0748005859,1.0,0.0,0.0,0.0,1.0,0.0,0.0,0.0,1.0
1463845666291307123,346,1463845666270946795,,-3.92809319496,-4.73878192902,100.548484802,0.0204000007361,1.0,0.0,0.0,0.0,1.0,0.0,0.0,0.0,1.0,0.792682945728,7.43902492523,-0.426829278469,1.0,0.0,0.0,0.0,1.0,0.0,0.0,0.0,1.0,0.612915625,-0.445321508789,10.1562034424,1.0,0.0,0.0,0.0,1.0,0.0,0.0,0.0,1.0
1463845666335155598,347,1463845666291461756,,-3.81842136383,-4.65957069397,100.550102234,0.020469000563,1.0,0.0,0.0,0.0,1.0,0.0,0.0,0.0,1.0,1.34146344662,6.34146356583,0.0609756112099,1.0,0.0,0.0,0.0,1.0,0.0,0.0,0.0,1.0,0.555454785156,-0.330399829102,10.1083194092,1.0,0.0,0.0,0.0,1.0,0.0,0.0,0.0,1.0
1463845666335553248,348,1463845666311064074,,-3.74490046501,-4.53113031387,100.558921814,0.020372999832,1.0,0.0,0.0,0.0,1.0,0.0,0.0,0.0,1.0,3.10975623131,4.57317066193,0.304878056049,1.0,0.0,0.0,0.0,1.0,0.0,0.0,0.0,1.0,0.521935925381,-0.186747729492,9.83538041992,1.0,0.0,0.0,0.0,1.0,0.0,0.0,0.0,1.0
1463845666369595355,349,1463845666331816532,,-3.69034433365,-4.40450048447,100.581520081,0.0203799996525,1.0,0.0,0.0,0.0,1.0,0.0,0.0,0.0,1.0,2.74390244484,4.39024400711,0.975609779358,1.0,0.0,0.0,0.0,1.0,0.0,0.0,0.0,1.0,0.656011254883,-0.110133276367,9.95030209961,1.0,0.0,0.0,0.0,1.0,0.0,0.0,0.0,1.0
1463845666370829035,350,1463845666352210088,,-3.66137814522,-4.30520009995,100.603775024,0.0203949995339,1.0,0.0,0.0,0.0,1.0,0.0,0.0,0.0,1.0,1.95121955872,4.39024400711,0.914634168148,1.0,0.0,0.0,0.0,1.0,0.0,0.0,0.0,1.0,0.895431420898,-0.191536132812,10.2711251221,1.0,0.0,0.0,0.0,1.0,0.0,0.0,0.0,1.0
1463845666418513808,351,1463845666372849214,,-3.63123297691,-4.25049781799,100.626861572,0.0204969998449,1.0,0.0,0.0,0.0,1.0,0.0,0.0,0.0,1.0,0.0609756112099,4.2682929039,0.914634168148,1.0,0.0,0.0,0.0,1.0,0.0,0.0,0.0,1.0,0.857124194336,-0.229843359375,10.2519715088,1.0,0.0,0.0,0.0,1.0,0.0,0.0,0.0,1.0
1463845666418790210,352,1463845666393636515,,-3.56590676308,-4.20020341873,100.643264771,0.0206090006977,1.0,0.0,0.0,0.0,1.0,0.0,0.0,0.0,1.0,0.365853667259,4.32926845551,0.548780500889,1.0,0.0,0.0,0.0,1.0,0.0,0.0,0.0,1.0,0.555454785156,-0.325611425781,10.3668931885,1.0,0.0,0.0,0.0,1.0,0.0,0.0,0.0,1.0
1463845666442952878,353,1463845666413971739,,-3.50472712517,-4.15632867813,100.679779053,0.0202339999378,1.0,0.0,0.0,0.0,1.0,0.0,0.0,0.0,1.0,0.0609756112099,3.90243911743,1.52439022064,1.0,0.0,0.0,0.0,1.0,0.0,0.0,0.0,1.0,0.493205541992,-0.292092584273,10.1226846191,1.0,0.0,0.0,0.0,1.0,0.0,0.0,0.0,1.0
1463845666443327768,354,1463845666434472689,,-3.48419046402,-4.10802078247,100.726516724,0.0203249994665,1.0,0.0,0.0,0.0,1.0,0.0,0.0,0.0,1.0,0.548780500889,3.23170733452,1.95121955872,1.0,0.0,0.0,0.0,1.0,0.0,0.0,0.0,1.0,0.732625708008,-0.330399829102,10.1753570557,1.0,0.0,0.0,0.0,1.0,0.0,0.0,0.0,1.0
1463845666545292217,355,1463845666454580833,,-3.48839330673,-4.04620170593,100.773727417,0.0204109996557,1.0,0.0,0.0,0.0,1.0,0.0,0.0,0.0,1.0,0.548780500889,3.35365867615,2.01219511032,1.0,0.0,0.0,0.0,1.0,0.0,0.0,0.0,1.0,0.962469067383,-0.201112939453,10.0891657959,1.0,0.0,0.0,0.0,1.0,0.0,0.0,0.0,1.0
1463845666548019938,356,1463845666474728612,,-3.44086170197,-3.96870446205,100.816177368,0.0205349996686,1.0,0.0,0.0,0.0,1.0,0.0,0.0,0.0,1.0,0.548780500889,4.51219558716,1.8902438879,1.0,0.0,0.0,0.0,1.0,0.0,0.0,0.0,1.0,0.732625708008,-0.0622492431641,10.3285859619,1.0,0.0,0.0,0.0,1.0,0.0,0.0,0.0,1.0
1463845666654506665,357,1463845666497728537,,-3.38465070724,-3.935785532,100.870033264,0.0205450002104,1.0,0.0,0.0,0.0,1.0,0.0,0.0,0.0,1.0,0.304878056049,4.45121955872,2.31707310677,1.0,0.0,0.0,0.0,1.0,0.0,0.0,0.0,1.0,0.636857641602,-0.392649072266,10.2423947021,1.0,0.0,0.0,0.0,1.0,0.0,0.0,0.0,1.0
1463845666654839524,358,1463845666514872714,,-3.32707643509,-3.88159704208,100.907218933,0.0201120004058,1.0,0.0,0.0,0.0,1.0,0.0,0.0,0.0,1.0,1.15853655338,4.02439022064,1.52439022064,1.0,0.0,0.0,0.0,1.0,0.0,0.0,0.0,1.0,0.512359155273,-0.349553442383,10.165780249,1.0,0.0,0.0,0.0,1.0,0.0,0.0,0.0,1.0
1463845666655221290,359,1463845666535428247,,-3.26911115646,-3.80255866051,100.97996521,0.0204019993544,1.0,0.0,0.0,0.0,1.0,0.0,0.0,0.0,1.0,1.70731711388,5.18292713165,3.35365867615,1.0,0.0,0.0,0.0,1.0,0.0,0.0,0.0,1.0,0.727837304687,-0.205901342773,10.0652237793,1.0,0.0,0.0,0.0,1.0,0.0,0.0,0.0,1.0
1463845666655519358,360,1463845666556195079,,-3.23663330078,-3.82920074463,101.078460693,0.020433999598,1.0,0.0,0.0,0.0,1.0,0.0,0.0,0.0,1.0,-0.12195122242,3.96341490746,4.32926845551,1.0,0.0,0.0,0.0,1.0,0.0,0.0,0.0,1.0,0.775721337891,-0.818816967773,10.5823713379,1.0,0.0,0.0,0.0,1.0,0.0,0.0,0.0,1.0
1463845666655793156,361,1463845666576235932,,-3.23286700249,-3.88267207146,101.146316528,0.0203840006143,1.0,0.0,0.0,0.0,1.0,0.0,0.0,0.0,1.0,-1.8292683363,4.02439022064,2.86585378647,1.0,0.0,0.0,0.0,1.0,0.0,0.0,0.0,1.0,0.962469067383,-0.718260498047,9.90720646973,1.0,0.0,0.0,0.0,1.0,0.0,0.0,0.0,1.0
1463845666656169557,362,1463845666597088753,,-3.16017699242,-3.87465405464,101.230567932,0.0205129999667,1.0,0.0,0.0,0.0,1.0,0.0,0.0,0.0,1.0,-1.34146344662,6.58536624908,3.96341490746,1.0,0.0,0.0,0.0,1.0,0.0,0.0,0.0,1.0,0.852335791016,-0.282515795898,10.1705686523,1.0,0.0,0.0,0.0,1.0,0.0,0.0,0.0,1.0
1463845666656459032,363,1463845666617553194,,-3.11166000366,-3.87529540062,101.317932129,0.0203419998288,1.0,0.0,0.0,0.0,1.0,0.0,0.0,0.0,1.0,-0.426829278469,8.5365858078,4.20731735229,1.0,0.0,0.0,0.0,1.0,0.0,0.0,0.0,1.0,1.41257897949,-0.521935925381,10.1992990723,1.0,0.0,0.0,0.0,1.0,0.0,0.0,0.0,1.0
1463845666657309020,364,1463845666637495350,,-2.97235512733,-3.90521359444,101.352577209,0.0203719995916,1.0,0.0,0.0,0.0,1.0,0.0,0.0,0.0,1.0,-1.09756100178,11.4634151459,1.76829278469,1.0,0.0,0.0,0.0,1.0,0.0,0.0,0.0,1.0,1.07260241682,-0.675164868164,10.0029745361,1.0,0.0,0.0,0.0,1.0,0.0,0.0,0.0,1.0
1463845666715661813,365,1463845666658208590,,-2.73386883736,-3.8730840683,101.389518738,0.0204259995371,1.0,0.0,0.0,0.0,1.0,0.0,0.0,0.0,1.0,2.56097555161,14.8170728683,2.07317066193,1.0,0.0,0.0,0.0,1.0,0.0,0.0,0.0,1.0,0.804451757813,-0.809240161133,10.2471831055,1.0,0.0,0.0,0.0,1.0,0.0,0.0,0.0,1.0
1463845666715751448,366,1463845666678582563,,-2.43823575974,-3.85251402855,101.470436096,0.0203990004957,1.0,0.0,0.0,0.0,1.0,0.0,0.0,0.0,1.0,0.365853667259,17.8658542633,4.51219558716,1.0,0.0,0.0,0.0,1.0,0.0,0.0,0.0,1.0,0.818816967773,-0.483628735352,10.1083194092,1.0,0.0,0.0,0.0,1.0,0.0,0.0,0.0,1.0
1463845666739743024,367,1463845666698946068,,-2.12656664848,-3.79736399651,101.489089966,0.0204380005598,1.0,0.0,0.0,0.0,1.0,0.0,0.0,0.0,1.0,0.853658556938,20.1219520569,1.64634156227,1.0,0.0,0.0,0.0,1.0,0.0,0.0,0.0,1.0,0.976834277344,-0.282515795898,9.88326445312,1.0,0.0,0.0,0.0,1.0,0.0,0.0,0.0,1.0
1463845666740059061,368,1463845666719420196,,-1.75407099724,-3.83019924164,101.590400696,0.0207080002874,1.0,0.0,0.0,0.0,1.0,0.0,0.0,0.0,1.0,0.304878056049,25.0,5.79268312454,1.0,0.0,0.0,0.0,1.0,0.0,0.0,0.0,1.0,1.44609780273,-0.972045874023,10.5680061279,1.0,0.0,0.0,0.0,1.0,0.0,0.0,0.0,1.0
1463845666770034666,369,1463845666739531465,,-1.25757467747,-3.86948490143,101.605659485,0.0200689993799,1.0,0.0,0.0,0.0,1.0,0.0,0.0,0.0,1.0,-3.53658556938,28.2317066193,2.01219511032,1.0,0.0,0.0,0.0,1.0,0.0,0.0,0.0,1.0,0.641646044922,-0.344765039063,10.3190091553,1.0,0.0,0.0,0.0,1.0,0.0,0.0,0.0,1.0
1463845666770450232,370,1463845666760347984,,-0.757198989391,-3.8655538559,101.631225586,0.0204559992999,1.0,0.0,0.0,0.0,1.0,0.0,0.0,0.0,1.0,-3.23170733452,25.9146347046,2.37804889679,1.0,0.0,0.0,0.0,1.0,0.0,0.0,0.0,1.0,0.177170922852,-0.0143652099609,9.88805285645,1.0,0.0,0.0,0.0,1.0,0.0,0.0,0.0,1.0
1463845666788565541,371,1463845666780352223,,-0.161119997501,-3.81751966476,101.661773682,0.0203949995339,1.0,0.0,0.0,0.0,1.0,0.0,0.0,0.0,1.0,-3.04878044128,28.8414649963,2.80487799644,1.0,0.0,0.0,0.0,1.0,0.0,0.0,0.0,1.0,-0.220266552734,0.320823022461,9.55286520855,1.0,0.0,0.0,0.0,1.0,0.0,0.0,0.0,1.0
1463845666808858734,372,1463845666800731353,,0.380909860134,-3.78130221367,101.650405884,0.0203719995916,1.0,0.0,0.0,0.0,1.0,0.0,0.0,0.0,1.0,-1.34146344662,22.5609760284,0.243902444839,1.0,0.0,0.0,0.0,1.0,0.0,0.0,0.0,1.0,-1.03908344744,-0.0622492431641,10.2711251221,1.0,0.0,0.0,0.0,1.0,0.0,0.0,0.0,1.0
1463845666826063848,373,1463845666821620006,,0.73240172863,-3.90023541451,101.66204834,0.0204099994153,1.0,0.0,0.0,0.0,1.0,0.0,0.0,0.0,1.0,-2.43902444839,15.3048791885,0.914634168148,1.0,0.0,0.0,0.0,1.0,0.0,0.0,0.0,1.0,-0.756567724609,-1.2737152832,10.4913916748,1.0,0.0,0.0,0.0,1.0,0.0,0.0,0.0,1.0
1463845666845315494,374,1463845666842187779,,1.12109851837,-3.97216367722,101.678527832,0.0204290002584,1.0,0.0,0.0,0.0,1.0,0.0,0.0,0.0,1.0,-0.0609756112099,15.6707315445,1.2195122242,1.0,0.0,0.0,0.0,1.0,0.0,0.0,0.0,1.0,-1.03429511719,-1.24498486328,9.95030209961,1.0,0.0,0.0,0.0,1.0,0.0,0.0,0.0,1.0
1463845666869643576,375,1463845666863699288,,1.3288090229,-3.90454506874,101.745796204,0.0204659998417,1.0,0.0,0.0,0.0,1.0,0.0,0.0,0.0,1.0,3.41463422775,12.2560977936,3.41463422775,1.0,0.0,0.0,0.0,1.0,0.0,0.0,0.0,1.0,-0.105344873047,-0.689530078125,10.2328178955,1.0,0.0,0.0,0.0,1.0,0.0,0.0,0.0,1.0
1463845666887204413,376,1463845666883246086,,1.53629636765,-3.83222770691,101.806808472,0.0203660000116,1.0,0.0,0.0,0.0,1.0,0.0,0.0,0.0,1.0,2.13414645195,9.20731735229,2.86585378647,1.0,0.0,0.0,0.0,1.0,0.0,0.0,0.0,1.0,-0.684741674805,-0.387860668945,9.90241806641,1.0,0.0,0.0,0.0,1.0,0.0,0.0,0.0,1.0
1463845666913804181,377,1463845666903503342,,1.64327323437,-3.7784922123,101.851020813,0.0204109996557,1.0,0.0,0.0,0.0,1.0,0.0,0.0,0.0,1.0,-1.15853655338,6.34146356583,1.76829278469,1.0,0.0,0.0,0.0,1.0,0.0,0.0,0.0,1.0,-0.373495458984,0.0430956298828,10.0843773926,1.0,0.0,0.0,0.0,1.0,0.0,0.0,0.0,1.0
1463845666939925831,378,1463845666923913148,,1.75538170338,-3.82539820671,101.923591614,0.020433999598,1.0,0.0,0.0,0.0,1.0,0.0,0.0,0.0,1.0,-2.37804889679,6.95121955872,3.29268312454,1.0,0.0,0.0,0.0,1.0,0.0,0.0,0.0,1.0,-0.320823022461,-0.636857641602,10.4004120117,1.0,0.0,0.0,0.0,1.0,0.0,0.0,0.0,1.0
1463845666946175063,379,1463845666944310715,,1.86120808125,-3.75316929817,102.025993347,0.0204440001398,1.0,0.0,0.0,0.0,1.0,0.0,0.0,0.0,1.0,1.70731711388,8.78048801422,4.81707286835,1.0,0.0,0.0,0.0,1.0,0.0,0.0,0.0,1.0,0.067037651051,-0.320823022461,9.99818613281,1.0,0.0,0.0,0.0,1.0,0.0,0.0,0.0,1.0
1463845666973270032,380,1463845666964346204,,2.01899909973,-3.62960362434,102.125953674,0.0203189998865,1.0,0.0,0.0,0.0,1.0,0.0,0.0,0.0,1.0,1.52439022064,10.8536586761,4.75609779358,1.0,0.0,0.0,0.0,1.0,0.0,0.0,0.0,1.0,-0.0430956298828,0.167594116211,9.61990285503,1.0,0.0,0.0,0.0,1.0,0.0,0.0,0.0,1.0
1463845666988357051,381,1463845666984700334,,2.19211030006,-3.67656302452,102.214111328,0.0204739999026,1.0,0.0,0.0,0.0,1.0,0.0,0.0,0.0,1.0,-3.71951246262,11.4024391174,4.2682929039,1.0,0.0,0.0,0.0,1.0,0.0,0.0,0.0,1.0,-0.105344873047,-0.359130249023,10.0364933594,1.0,0.0,0.0,0.0,1.0,0.0,0.0,0.0,1.0
1463845667032492029,382,1463845667007657551,,2.37950897217,-3.71280789375,102.294403076,0.020372999832,1.0,0.0,0.0,0.0,1.0,0.0,0.0,0.0,1.0,-1.8902438879,12.4390249252,4.02439022064,1.0,0.0,0.0,0.0,1.0,0.0,0.0,0.0,1.0,-0.0909796630859,-0.627280834961,10.4818148682,1.0,0.0,0.0,0.0,1.0,0.0,0.0,0.0,1.0
1463845667032904523,383,1463845667025779992,,2.58319449425,-3.7738571167,102.354873657,0.0204799994826,1.0,0.0,0.0,0.0,1.0,0.0,0.0,0.0,1.0,-0.365853667259,12.6219520569,3.17073178291,1.0,0.0,0.0,0.0,1.0,0.0,0.0,0.0,1.0,-0.229843359375,-1.08696755371,10.0221281494,1.0,0.0,0.0,0.0,1.0,0.0,0.0,0.0,1.0
1463845667047399049,384,1463845667045429911,,2.793207407,-3.85169053078,102.426528931,0.0202920008451,1.0,0.0,0.0,0.0,1.0,0.0,0.0,0.0,1.0,-1.40243899822,14.6951217651,3.90243911743,1.0,0.0,0.0,0.0,1.0,0.0,0.0,0.0,1.0,0.0383072265625,-1.02950671387,9.61990285503,1.0,0.0,0.0,0.0,1.0,0.0,0.0,0.0,1.0
1463845667072996379,385,1463845667069294819,,3.06069302559,-4.05468606949,102.490661621,0.0213879998773,1.0,0.0,0.0,0.0,1.0,0.0,0.0,0.0,1.0,-1.8902438879,12.8048782349,3.53658556938,1.0,0.0,0.0,0.0,1.0,0.0,0.0,0.0,1.0,-0.746990917969,-2.08295529821,10.2950671387,1.0,0.0,0.0,0.0,1.0,0.0,0.0,0.0,1.0
1463845667100010721,386,1463845667088314122,,3.28129577637,-4.28137207031,102.535484314,0.0202600006014,1.0,0.0,0.0,0.0,1.0,0.0,0.0,0.0,1.0,-6.70731735229,11.4634151459,2.56097555161,1.0,0.0,0.0,0.0,1.0,0.0,0.0,0.0,1.0,-0.727837304687,-1.47961662598,9.97424411621,1.0,0.0,0.0,0.0,1.0,0.0,0.0,0.0,1.0
1463845667110660095,387,1463845667107972582,,3.46077656746,-4.35874223709,102.584022522,0.0195669997483,1.0,0.0,0.0,0.0,1.0,0.0,0.0,0.0,1.0,-7.50000047684,10.3048782349,2.31707310677,1.0,0.0,0.0,0.0,1.0,0.0,0.0,0.0,1.0,-0.60812722168,-0.0861912597656,9.16500395508,1.0,0.0,0.0,0.0,1.0,0.0,0.0,0.0,1.0
1463845667131401716,388,1463845667128829931,,3.56235837936,-4.43269729614,102.634048462,0.0215409994125,1.0,0.0,0.0,0.0,1.0,0.0,0.0,0.0,1.0,-3.53658556938,4.08536577225,1.8902438879,1.0,0.0,0.0,0.0,1.0,0.0,0.0,0.0,1.0,-1.08217922346,-0.76614453125,10.6781394043,1.0,0.0,0.0,0.0,1.0,0.0,0.0,0.0,1.0
1463845667156196871,389,1463845667150493778,,3.51261281967,-4.44433259964,102.626976013,0.0193099994212,1.0,0.0,0.0,0.0,1.0,0.0,0.0,0.0,1.0,0.975609779358,-1.03658533096,-1.09756100178,1.0,0.0,0.0,0.0,1.0,0.0,0.0,0.0,1.0,-0.775721337891,-1.13485158691,11.3389390625,1.0,0.0,0.0,0.0,1.0,0.0,0.0,0.0,1.0
1463845667175243778,390,1463845667167891491,,3.39071249962,-4.41988277435,102.592803955,0.0203970000148,1.0,0.0,0.0,0.0,1.0,0.0,0.0,0.0,1.0,1.2195122242,-4.08536577225,-2.74390244484,1.0,0.0,0.0,0.0,1.0,0.0,0.0,0.0,1.0,-0.651222851562,-0.732625708008,10.3046439453,1.0,0.0,0.0,0.0,1.0,0.0,0.0,0.0,1.0
1463845667200542676,391,1463845667188441344,,3.27780914307,-4.40202522278,102.61517334,0.0203900001943,1.0,0.0,0.0,0.0,1.0,0.0,0.0,0.0,1.0,0.426829278469,-1.8292683363,0.18292683363,1.0,0.0,0.0,0.0,1.0,0.0,0.0,0.0,1.0,-0.248996972656,-0.651222851562,9.97903251953,1.0,0.0,0.0,0.0,1.0,0.0,0.0,0.0,1.0
1463845667246883086,392,1463845667215171783,,3.22086238861,-4.42917203903,102.662712097,0.0205530002713,1.0,0.0,0.0,0.0,1.0,0.0,0.0,0.0,1.0,-0.792682945728,-0.18292683363,1.58536589146,1.0,0.0,0.0,0.0,1.0,0.0,0.0,0.0,1.0,-0.411802685547,-0.837970581055,10.0317049561,1.0,0.0,0.0,0.0,1.0,0.0,0.0,0.0,1.0
1463845667247014959,393,1463845667233225267,,3.174284935,-4.47143411636,102.715438843,0.0211200006306,1.0,0.0,0.0,0.0,1.0,0.0,0.0,0.0,1.0,-1.40243899822,0.548780500889,1.8292683363,1.0,0.0,0.0,0.0,1.0,0.0,0.0,0.0,1.0,-0.387860668945,-0.900219824219,10.539275708,1.0,0.0,0.0,0.0,1.0,0.0,0.0,0.0,1.0
1463845667254640680,394,1463845667249451173,,3.1014111042,-4.50300931931,102.753196716,0.019557999447,1.0,0.0,0.0,0.0,1.0,0.0,0.0,0.0,1.0,-1.09756100178,-1.46341466904,1.09756100178,1.0,0.0,0.0,0.0,1.0,0.0,0.0,0.0,1.0,-0.469263525391,-0.866701000977,10.3046439453,1.0,0.0,0.0,0.0,1.0,0.0,0.0,0.0,1.0
1463845667282121369,395,1463845667272386044,,2.98123717308,-4.54231500626,102.753181458,0.0204230006784,1.0,0.0,0.0,0.0,1.0,0.0,0.0,0.0,1.0,0.243902444839,-4.32926845551,-0.975609779358,1.0,0.0,0.0,0.0,1.0,0.0,0.0,0.0,1.0,-0.574608398438,-1.08217922346,9.63426806499,1.0,0.0,0.0,0.0,1.0,0.0,0.0,0.0,1.0
1463845667315636395,396,1463845667290288332,,2.74860143661,-4.57377338409,102.740699768,0.0203859992325,1.0,0.0,0.0,0.0,1.0,0.0,0.0,0.0,1.0,0.548780500889,-8.71951198578,-1.95121955872,1.0,0.0,0.0,0.0,1.0,0.0,0.0,0.0,1.0,-0.407014282227,-1.17794714373,10.6111017578,1.0,0.0,0.0,0.0,1.0,0.0,0.0,0.0,1.0
1463845667325829214,397,1463845667311962908,,2.58356714249,-4.59386396408,102.740470886,0.020422000438,1.0,0.0,0.0,0.0,1.0,0.0,0.0,0.0,1.0,-0.609756112099,-5.91463422775,-1.2195122242,1.0,0.0,0.0,0.0,1.0,0.0,0.0,0.0,1.0,-0.430956298828,-0.823605371094,10.1083194092,1.0,0.0,0.0,0.0,1.0,0.0,0.0,0.0,1.0
1463845667334866424,398,1463845667332354170,,2.41810965538,-4.59415054321,102.770263672,0.0204029995948,1.0,0.0,0.0,0.0,1.0,0.0,0.0,0.0,1.0,-1.2804877758,-5.85365867615,0.18292683363,1.0,0.0,0.0,0.0,1.0,0.0,0.0,0.0,1.0,-0.368707055664,-0.550666381836,10.2232410889,1.0,0.0,0.0,0.0,1.0,0.0,0.0,0.0,1.0
1463845667385523125,399,1463845667354009892,,2.24816036224,-4.58797550201,102.792739868,0.0216019991785,1.0,0.0,0.0,0.0,1.0,0.0,0.0,0.0,1.0,-0.975609779358,-7.50000047684,-0.365853667259,1.0,0.0,0.0,0.0,1.0,0.0,0.0,0.0,1.0,-0.679953271484,-0.541089611728,10.1083194092,1.0,0.0,0.0,0.0,1.0,0.0,0.0,0.0,1.0
1463845667385790569,400,1463845667372835812,,2.04160618782,-4.58887624741,102.790977478,0.0192850008607,1.0,0.0,0.0,0.0,1.0,0.0,0.0,0.0,1.0,-0.792682945728,-8.90243911743,-1.58536589146,1.0,0.0,0.0,0.0,1.0,0.0,0.0,0.0,1.0,-0.407014282227,-0.622492431641,10.0748005859,1.0,0.0,0.0,0.0,1.0,0.0,0.0,0.0,1.0
1463845667409124600,401,1463845667393916335,,1.83312356472,-4.58251047134,102.833702087,0.0203419998288,1.0,0.0,0.0,0.0,1.0,0.0,0.0,0.0,1.0,-1.2804877758,-6.28048801422,0.792682945728,1.0,0.0,0.0,0.0,1.0,0.0,0.0,0.0,1.0,0.0478840332031,-0.497993945312,10.3429511719,1.0,0.0,0.0,0.0,1.0,0.0,0.0,0.0,1.0
1463845667415335602,402,1463845667412788192,,1.61862146854,-4.55486345291,102.848098755,0.0203939992934,1.0,0.0,0.0,0.0,1.0,0.0,0.0,0.0,1.0,-0.304878056049,-7.98780536652,-0.731707334518,1.0,0.0,0.0,0.0,1.0,0.0,0.0,0.0,1.0,-0.191536132812,-0.45968671875,10.0077629395,1.0,0.0,0.0,0.0,1.0,0.0,0.0,0.0,1.0
1463845667435119061,403,1463845667433196433,,1.38739180565,-4.53981685638,102.842956543,0.0204210001975,1.0,0.0,0.0,0.0,1.0,0.0,0.0,0.0,1.0,-0.487804889679,-9.26829242706,-1.76829278469,1.0,0.0,0.0,0.0,1.0,0.0,0.0,0.0,1.0,-0.253785375977,-0.531512805087,10.0891657959,1.0,0.0,0.0,0.0,1.0,0.0,0.0,0.0,1.0
1463845667457890548,404,1463845667453602069,,1.17704951763,-4.55806303024,102.848823547,0.0203910004348,1.0,0.0,0.0,0.0,1.0,0.0,0.0,0.0,1.0,-1.15853655338,-7.98780536652,-1.09756100178,1.0,0.0,0.0,0.0,1.0,0.0,0.0,0.0,1.0,-0.15801730957,-0.713472094727,10.2376062988,1.0,0.0,0.0,0.0,1.0,0.0,0.0,0.0,1.0
1463845667477326042,405,1463845667474006456,,0.87514346838,-4.57265615463,102.789955139,0.0204140003771,1.0,0.0,0.0,0.0,1.0,0.0,0.0,0.0,1.0,-2.01219511032,-10.0,-4.45121955872,1.0,0.0,0.0,0.0,1.0,0.0,0.0,0.0,1.0,0.282515795898,-0.526724328702,10.3908352051,1.0,0.0,0.0,0.0,1.0,0.0,0.0,0.0,1.0
1463845667500245600,406,1463845667496413105,,0.622252047062,-4.65355348587,102.832778931,0.0205819997936,1.0,0.0,0.0,0.0,1.0,0.0,0.0,0.0,1.0,-5.42682933807,-6.46341466904,0.792682945728,1.0,0.0,0.0,0.0,1.0,0.0,0.0,0.0,1.0,0.603338854892,-0.507570751953,10.3956236084,1.0,0.0,0.0,0.0,1.0,0.0,0.0,0.0,1.0
1463845667591663054,407,1463845667517077175,,0.481013178825,-4.79546976089,102.915420532,0.0211950000376,1.0,0.0,0.0,0.0,1.0,0.0,0.0,0.0,1.0,-8.78048801422,-0.243902444839,3.10975623131,1.0,0.0,0.0,0.0,1.0,0.0,0.0,0.0,1.0,0.76614453125,-0.402225878906,10.060435376,1.0,0.0,0.0,0.0,1.0,0.0,0.0,0.0,1.0
1463845667591705762,408,1463845667535839607,,0.424825012684,-4.92778587341,102.898895264,0.0194669999182,1.0,0.0,0.0,0.0,1.0,0.0,0.0,0.0,1.0,-10.0,1.15853655338,-1.52439022064,1.0,0.0,0.0,0.0,1.0,0.0,0.0,0.0,1.0,0.301669427446,-0.225054956055,10.2088758789,1.0,0.0,0.0,0.0,1.0,0.0,0.0,0.0,1.0
1463845667594104529,409,1463845667556813100,,0.373598843813,-5.08627653122,102.811103821,0.0204160008579,1.0,0.0,0.0,0.0,1.0,0.0,0.0,0.0,1.0,-11.8292684555,0.243902444839,-5.06097555161,1.0,0.0,0.0,0.0,1.0,0.0,0.0,0.0,1.0,0.0239420166016,-0.0909796630859,10.3812583984,1.0,0.0,0.0,0.0,1.0,0.0,0.0,0.0,1.0
1463845667594397493,410,1463845667577131810,,0.351240634918,-5.34925842285,102.746078491,0.0203920006752,1.0,0.0,0.0,0.0,1.0,0.0,0.0,0.0,1.0,-15.7926826477,4.08536577225,-3.59756112099,1.0,0.0,0.0,0.0,1.0,0.0,0.0,0.0,1.0,0.488417138672,-0.330399829102,10.2040874756,1.0,0.0,0.0,0.0,1.0,0.0,0.0,0.0,1.0
1463845667676302431,411,1463845667597663226,,0.509046375751,-5.68701028824,102.732910156,0.0213820002973,1.0,0.0,0.0,0.0,1.0,0.0,0.0,0.0,1.0,-24.0243911743,6.52439069748,-0.792682945728,1.0,0.0,0.0,0.0,1.0,0.0,0.0,0.0,1.0,-0.560243188477,0.593762048251,10.3429511719,1.0,0.0,0.0,0.0,1.0,0.0,0.0,0.0,1.0
1463845667676357535,412,1463845667616929453,,0.593915641308,-5.88646316528,102.750457764,0.0194339994341,1.0,0.0,0.0,0.0,1.0,0.0,0.0,0.0,1.0,-18.2926826477,6.0365858078,0.670731723309,1.0,0.0,0.0,0.0,1.0,0.0,0.0,0.0,1.0,-0.0957680664062,0.474051928711,9.94551369629,1.0,0.0,0.0,0.0,1.0,0.0,0.0,0.0,1.0
1463845667677812149,413,1463845667637530347,,0.574631333351,-6.43646764755,102.721992493,0.0204060003161,1.0,0.0,0.0,0.0,1.0,0.0,0.0,0.0,1.0,-20.3048782349,3.29268312454,-1.76829278469,1.0,0.0,0.0,0.0,1.0,0.0,0.0,0.0,1.0,0.316034619141,-2.25533796387,10.314220752,1.0,0.0,0.0,0.0,1.0,0.0,0.0,0.0,1.0
1463845667678016156,414,1463845667657768746,,0.609872698784,-6.86441993713,102.69392395,0.0204109996557,1.0,0.0,0.0,0.0,1.0,0.0,0.0,0.0,1.0,-20.1829280853,2.92682933807,-1.8292683363,1.0,0.0,0.0,0.0,1.0,0.0,0.0,0.0,1.0,-0.248996972656,-1.2737152832,10.4530844482,1.0,0.0,0.0,0.0,1.0,0.0,0.0,0.0,1.0
1463845667869318127,415,1463845667678158237,,0.643934547901,-7.11389303207,102.751487732,0.0204070005566,1.0,0.0,0.0,0.0,1.0,0.0,0.0,0.0,1.0,-10.4268293381,2.25609779358,2.31707310677,1.0,0.0,0.0,0.0,1.0,0.0,0.0,0.0,1.0,-0.31124621582,-1.74297880859,11.7411649414,1.0,0.0,0.0,0.0,1.0,0.0,0.0,0.0,1.0
1463845667869599998,416,1463845667699593703,,0.644461989403,-7.27926969528,102.911216736,0.0204060003161,1.0,0.0,0.0,0.0,1.0,0.0,0.0,0.0,1.0,-3.47560977936,-0.18292683363,7.07317113876,1.0,0.0,0.0,0.0,1.0,0.0,0.0,0.0,1.0,-0.354341845703,-2.39899020961,11.6693388916,1.0,0.0,0.0,0.0,1.0,0.0,0.0,0.0,1.0
1463845667869866452,417,1463845667720099077,,0.558986663818,-7.2600941658,103.160957336,0.0207419991493,1.0,0.0,0.0,0.0,1.0,0.0,0.0,0.0,1.0,-0.0609756112099,-2.25609779358,10.9756097794,1.0,0.0,0.0,0.0,1.0,0.0,0.0,0.0,1.0,0.201112939453,-1.33596452637,12.4306950195,1.0,0.0,0.0,0.0,1.0,0.0,0.0,0.0,1.0
1463845667870164573,418,1463845667739463531,,0.563718259335,-7.15092468262,103.480651855,0.0200839992613,1.0,0.0,0.0,0.0,1.0,0.0,0.0,0.0,1.0,5.0,-1.76829278469,14.9390249252,1.0,0.0,0.0,0.0,1.0,0.0,0.0,0.0,1.0,-0.497993945312,-1.37427175293,11.7028577148,1.0,0.0,0.0,0.0,1.0,0.0,0.0,0.0,1.0
1463845667870433892,419,1463845667759803388,,0.520905792713,-6.9716219902,103.877456665,0.0204470008612,1.0,0.0,0.0,0.0,1.0,0.0,0.0,0.0,1.0,6.58536624908,-3.84146332741,18.1707305908,1.0,0.0,0.0,0.0,1.0,0.0,0.0,0.0,1.0,-0.349553442383,-0.948103857422,11.1809217529,1.0,0.0,0.0,0.0,1.0,0.0,0.0,0.0,1.0
1463845667871031591,420,1463845667780816515,,0.425468564034,-6.79932689667,104.300331116,0.0203939992934,1.0,0.0,0.0,0.0,1.0,0.0,0.0,0.0,1.0,7.37804937363,-5.0,19.3902435303,1.0,0.0,0.0,0.0,1.0,0.0,0.0,0.0,1.0,-0.0383072265625,-1.09654436035,10.8313683105,1.0,0.0,0.0,0.0,1.0,0.0,0.0,0.0,1.0
1463845667871420284,421,1463845667800920125,,0.318069666624,-6.59255027771,104.75151062,0.0203709993511,1.0,0.0,0.0,0.0,1.0,0.0,0.0,0.0,1.0,10.0,-4.81707286835,20.8536586761,1.0,0.0,0.0,0.0,1.0,0.0,0.0,0.0,1.0,0.148440512063,-1.23540805664,10.8313683105,1.0,0.0,0.0,0.0,1.0,0.0,0.0,0.0,1.0
1463845667871477158,422,1463845667821025454,,0.241615667939,-6.35567045212,105.24230957,0.0204130001366,1.0,0.0,0.0,0.0,1.0,0.0,0.0,0.0,1.0,13.2926826477,-2.5,23.0487823486,1.0,0.0,0.0,0.0,1.0,0.0,0.0,0.0,1.0,0.373495458984,-1.64721074219,11.5304751953,1.0,0.0,0.0,0.0,1.0,0.0,0.0,0.0,1.0
1463845667871783716,423,1463845667841560932,,0.271829515696,-6.06957387924,105.756309509,0.0204189997166,1.0,0.0,0.0,0.0,1.0,0.0,0.0,0.0,1.0,16.9512195587,2.13414645195,24.6951236725,1.0,0.0,0.0,0.0,1.0,0.0,0.0,0.0,1.0,0.277727392578,-1.86747729492,11.5927244385,1.0,0.0,0.0,0.0,1.0,0.0,0.0,0.0,1.0
1463845667872072618,424,1463845667862269741,,0.351275205612,-5.70475769043,106.207450867,0.0203910004348,1.0,0.0,0.0,0.0,1.0,0.0,0.0,0.0,1.0,20.6707324982,2.98780488968,21.7073173523,1.0,0.0,0.0,0.0,1.0,0.0,0.0,0.0,1.0,-0.143652099609,-1.73819040527,11.3533042725,1.0,0.0,0.0,0.0,1.0,0.0,0.0,0.0,1.0
1463845667950892133,425,1463845667882320487,,0.346362918615,-5.26132059097,106.574768066,0.0204210001975,1.0,0.0,0.0,0.0,1.0,0.0,0.0,0.0,1.0,22.9878044128,0.0609756112099,17.2560977936,1.0,0.0,0.0,0.0,1.0,0.0,0.0,0.0,1.0,-0.0287304199219,-1.32638771973,11.1234609131,1.0,0.0,0.0,0.0,1.0,0.0,0.0,0.0,1.0
1463845667951189576,426,1463845667902685343,,0.278202801943,-4.81225633621,106.867874146,0.0204039998353,1.0,0.0,0.0,0.0,1.0,0.0,0.0,0.0,1.0,22.2560977936,-1.03658533096,13.5365858078,1.0,0.0,0.0,0.0,1.0,0.0,0.0,0.0,1.0,0.268150604204,-1.00077629395,10.8170031006,1.0,0.0,0.0,0.0,1.0,0.0,0.0,0.0,1.0
1463845667951584674,427,1463845667923054053,,0.25230011344,-4.41936588287,107.121543884,0.0203889999539,1.0,0.0,0.0,0.0,1.0,0.0,0.0,0.0,1.0,20.6097564697,2.13414645195,11.8902444839,1.0,0.0,0.0,0.0,1.0,0.0,0.0,0.0,1.0,0.450109912109,-1.13485158691,10.9462899902,1.0,0.0,0.0,0.0,1.0,0.0,0.0,0.0,1.0
1463845667951632643,428,1463845667943480940,,0.349373370409,-4.05049800873,107.323402405,0.0204199999571,1.0,0.0,0.0,0.0,1.0,0.0,0.0,0.0,1.0,18.5365848541,7.98780536652,9.75609779358,1.0,0.0,0.0,0.0,1.0,0.0,0.0,0.0,1.0,0.359130249023,-0.861912597656,10.6158901611,1.0,0.0,0.0,0.0,1.0,0.0,0.0,0.0,1.0
1463845668003301464,429,1463845667963951419,,0.564317524433,-3.74257779121,107.430091858,0.0204000007361,1.0,0.0,0.0,0.0,1.0,0.0,0.0,0.0,1.0,16.5853652954,15.7926826477,5.60975599289,1.0,0.0,0.0,0.0,1.0,0.0,0.0,0.0,1.0,0.665588061523,-1.00077629395,10.8026378906,1.0,0.0,0.0,0.0,1.0,0.0,0.0,0.0,1.0
1463845668003600262,430,1463845667984454711,,0.98752117157,-3.47386622429,107.416549683,0.0204199999571,1.0,0.0,0.0,0.0,1.0,0.0,0.0,0.0,1.0,15.0000009537,25.0609760284,0.243902444839,1.0,0.0,0.0,0.0,1.0,0.0,0.0,0.0,1.0,0.359130249023,-0.962469067383,10.405200415,1.0,0.0,0.0,0.0,1.0,0.0,0.0,0.0,1.0
1463845668049088023,431,1463845668004652538,,1.55324542522,-3.22731113434,107.284111023,0.0204029995948,1.0,0.0,0.0,0.0,1.0,0.0,0.0,0.0,1.0,12.7439022064,33.5975608826,-5.18292713165,1.0,0.0,0.0,0.0,1.0,0.0,0.0,0.0,1.0,0.512359155273,-0.684741674805,10.6302553711,1.0,0.0,0.0,0.0,1.0,0.0,0.0,0.0,1.0
1463845668049127606,432,1463845668025191087,,2.3155977726,-3.03769278526,107.093093872,0.0203970000148,1.0,0.0,0.0,0.0,1.0,0.0,0.0,0.0,1.0,10.4878053665,44.390247345,-7.56097555161,1.0,0.0,0.0,0.0,1.0,0.0,0.0,0.0,1.0,0.579396801758,-0.684741674805,10.299855542,1.0,0.0,0.0,0.0,1.0,0.0,0.0,0.0,1.0
1463845668073187091,433,1463845668045527555,,3.3671298027,-2.8896522522,106.89150238,0.0204380005598,1.0,0.0,0.0,0.0,1.0,0.0,0.0,0.0,1.0,8.5365858078,60.7317085266,-7.31707334518,1.0,0.0,0.0,0.0,1.0,0.0,0.0,0.0,1.0,0.837970581055,-0.622492431641,10.0508585693,1.0,0.0,0.0,0.0,1.0,0.0,0.0,0.0,1.0
1463845668073244330,434,1463845668066125582,,4.79279947281,-2.78070735931,106.72706604,0.0203939992934,1.0,0.0,0.0,0.0,1.0,0.0,0.0,0.0,1.0,6.34146356583,82.3780517578,-4.57317066193,1.0,0.0,0.0,0.0,1.0,0.0,0.0,0.0,1.0,1.21146604004,-0.512359155273,9.73003554687,1.0,0.0,0.0,0.0,1.0,0.0,0.0,0.0,1.0
1463845668118351991,435,1463845668086284240,,6.70790863037,-2.72106456757,106.511741638,0.0204230006784,1.0,0.0,0.0,0.0,1.0,0.0,0.0,0.0,1.0,4.51219558716,104.695129395,-6.0365858078,1.0,0.0,0.0,0.0,1.0,0.0,0.0,0.0,1.0,0.665588061523,-0.507570751953,9.61990285503,1.0,0.0,0.0,0.0,1.0,0.0,0.0,0.0,1.0
1463845668118390168,436,1463845668109237961,,9.05666542053,-2.72669243813,106.164398193,0.0207579992712,1.0,0.0,0.0,0.0,1.0,0.0,0.0,0.0,1.0,1.76829278469,119.39025116,-11.5243911743,1.0,0.0,0.0,0.0,1.0,0.0,0.0,0.0,1.0,-0.493205541992,-0.349553442383,9.25598361816,1.0,0.0,0.0,0.0,1.0,0.0,0.0,0.0,1.0
1463845668138693407,437,1463845668127165714,,11.4576377869,-2.89437651634,105.746765137,0.0200449991971,1.0,0.0,0.0,0.0,1.0,0.0,0.0,0.0,1.0,-1.03658533096,132.256103516,-14.0243902206,1.0,0.0,0.0,0.0,1.0,0.0,0.0,0.0,1.0,0.129286889648,-1.01514150391,9.42357714985,1.0,0.0,0.0,0.0,1.0,0.0,0.0,0.0,1.0
1463845668154078699,438,1463845668147569786,,14.234495163,-3.09918856621,105.197372437,0.0204000007361,1.0,0.0,0.0,0.0,1.0,0.0,0.0,0.0,1.0,-1.52439022064,140.121948242,-18.9634151459,1.0,0.0,0.0,0.0,1.0,0.0,0.0,0.0,1.0,-1.78128603516,-0.871489404297,9.44751916645,1.0,0.0,0.0,0.0,1.0,0.0,0.0,0.0,1.0
1463845668171763800,439,1463845668167937816,,16.9985141754,-3.38514566422,104.493721008,0.0204099994153,1.0,0.0,0.0,0.0,1.0,0.0,0.0,0.0,1.0,-2.74390244484,140.060974121,-25.3048782349,1.0,0.0,0.0,0.0,1.0,0.0,0.0,0.0,1.0,-2.07816689489,-0.76135612793,8.77235488281,1.0,0.0,0.0,0.0,1.0,0.0,0.0,0.0,1.0
1463845668216466989,440,1463845668188372511,,19.7987804413,-3.77596211433,103.731414795,0.0204179994762,1.0,0.0,0.0,0.0,1.0,0.0,0.0,0.0,1.0,-5.73170757294,138.84147644,-26.7682933807,1.0,0.0,0.0,0.0,1.0,0.0,0.0,0.0,1.0,-2.99754047852,-0.737414111328,8.50899328472,1.0,0.0,0.0,0.0,1.0,0.0,0.0,0.0,1.0
1463845668216525425,441,1463845668208726531,,22.5889644623,-4.29936790466,102.919158936,0.0204130001366,1.0,0.0,0.0,0.0,1.0,0.0,0.0,0.0,1.0,-5.18292713165,143.597564697,-25.3048782349,1.0,0.0,0.0,0.0,1.0,0.0,0.0,0.0,1.0,-2.62883342285,-1.55144267578,8.46110808247,1.0,0.0,0.0,0.0,1.0,0.0,0.0,0.0,1.0
1463845668308446192,442,1463845668229245444,,25.1956329346,-4.74371290207,102.030784607,0.0204089991748,1.0,0.0,0.0,0.0,1.0,0.0,0.0,0.0,1.0,-4.93902444839,128.10975647,-30.5487804413,1.0,0.0,0.0,0.0,1.0,0.0,0.0,0.0,1.0,-4.18027580637,-0.440533105469,8.13070883789,1.0,0.0,0.0,0.0,1.0,0.0,0.0,0.0,1.0
1463845668308486348,443,1463845668249657745,,27.4802036285,-5.37607145309,100.968383789,0.0203980002552,1.0,0.0,0.0,0.0,1.0,0.0,0.0,0.0,1.0,-8.17073154449,110.182929993,-37.6219520569,1.0,0.0,0.0,0.0,1.0,0.0,0.0,0.0,1.0,-5.30555087891,-0.593762048251,8.14986245117,1.0,0.0,0.0,0.0,1.0,0.0,0.0,0.0,1.0
1463845668309331283,444,1463845668270054212,,29.2705364227,-6.09447336197,99.8045043945,0.0204060003161,1.0,0.0,0.0,0.0,1.0,0.0,0.0,0.0,1.0,-9.75609779358,90.2439041138,-42.682926178,1.0,0.0,0.0,0.0,1.0,0.0,0.0,0.0,1.0,-4.67348134836,-0.387860668945,7.52258161621,1.0,0.0,0.0,0.0,1.0,0.0,0.0,0.0,1.0
1463845668309985232,445,1463845668290453543,,30.827999115,-6.82112312317,98.7060089111,0.0204019993544,1.0,0.0,0.0,0.0,1.0,0.0,0.0,0.0,1.0,-11.8292684555,85.3048782349,-39.5731735229,1.0,0.0,0.0,0.0,1.0,0.0,0.0,0.0,1.0,-3.85945307617,-0.229843359375,7.47469758301,1.0,0.0,0.0,0.0,1.0,0.0,0.0,0.0,1.0
1463845668369958089,446,1463845668311022977,,32.3402481079,-7.38059043884,97.6569900513,0.0205579996109,1.0,0.0,0.0,0.0,1.0,0.0,0.0,0.0,1.0,-8.29268264771,77.134147644,-39.4512214661,1.0,0.0,0.0,0.0,1.0,0.0,0.0,0.0,1.0,-4.9512090332,0.579396801758,7.21612380371,1.0,0.0,0.0,0.0,1.0,0.0,0.0,0.0,1.0
1463845668369996057,447,1463845668331482464,,33.6477088928,-8.02950000763,96.7412338257,0.020276999101,1.0,0.0,0.0,0.0,1.0,0.0,0.0,0.0,1.0,-8.71951198578,67.6829299927,-30.4878044128,1.0,0.0,0.0,0.0,1.0,0.0,0.0,0.0,1.0,-5.31512768555,-0.670376464844,7.29752666016,1.0,0.0,0.0,0.0,1.0,0.0,0.0,0.0,1.0
1463845668447180012,448,1463845668352654388,,34.7245063782,-8.62061977386,95.9439315796,0.0203949995339,1.0,0.0,0.0,0.0,1.0,0.0,0.0,0.0,1.0,-8.65853691101,50.7317085266,-27.0121955872,1.0,0.0,0.0,0.0,1.0,0.0,0.0,0.0,1.0,-6.87614716797,-0.670376464844,7.52258161621,1.0,0.0,0.0,0.0,1.0,0.0,0.0,0.0,1.0
1463845668447226417,449,1463845668372277637,,35.3391723633,-9.11240673065,95.3027954102,0.0205150004476,1.0,0.0,0.0,0.0,1.0,0.0,0.0,0.0,1.0,-7.25609779358,30.5487804413,-22.8048782349,1.0,0.0,0.0,0.0,1.0,0.0,0.0,0.0,1.0,-6.66545742187,-0.876277807617,7.87213505859,1.0,0.0,0.0,0.0,1.0,0.0,0.0,0.0,1.0
1463845668447280166,450,1463845668394319236,,35.503578186,-9.40994644165,94.8857192993,0.0202920008451,1.0,0.0,0.0,0.0,1.0,0.0,0.0,0.0,1.0,-3.47560977936,4.08536577225,-17.8048782349,1.0,0.0,0.0,0.0,1.0,0.0,0.0,0.0,1.0,-7.7093293457,-1.01992990723,7.81946262207,1.0,0.0,0.0,0.0,1.0,0.0,0.0,0.0,1.0
1463845668447516621,451,1463845668413114269,,35.2202110291,-9.49385356903,94.7117996216,0.0204210001975,1.0,0.0,0.0,0.0,1.0,0.0,0.0,0.0,1.0,-0.731707334518,-19.7560977936,-12.6219520569,1.0,0.0,0.0,0.0,1.0,0.0,0.0,0.0,1.0,-7.75721337891,-0.823605371094,7.6614453125,1.0,0.0,0.0,0.0,1.0,0.0,0.0,0.0,1.0
1463845668563950877,452,1463845668433585006,,34.4103927612,-9.36182594299,94.8302078247,0.0204249992967,1.0,0.0,0.0,0.0,1.0,0.0,0.0,0.0,1.0,2.07317066193,-48.8414649963,-5.42682933807,1.0,0.0,0.0,0.0,1.0,0.0,0.0,0.0,1.0,-7.9200190918,-0.895431420898,7.4268135498,1.0,0.0,0.0,0.0,1.0,0.0,0.0,0.0,1.0
1463845668564380714,453,1463845668453861943,,33.0470657349,-8.95829486847,95.3556060791,0.0203770007938,1.0,0.0,0.0,0.0,1.0,0.0,0.0,0.0,1.0,5.24390268326,-76.4024353027,7.68292665482,1.0,0.0,0.0,0.0,1.0,0.0,0.0,0.0,1.0,-7.55131203613,-1.13485158691,7.84819304199,1.0,0.0,0.0,0.0,1.0,0.0,0.0,0.0,1.0
1463845668564657637,454,1463845668474188307,,31.1918392181,-8.30579090118,96.2915878296,0.0204240009189,1.0,0.0,0.0,0.0,1.0,0.0,0.0,0.0,1.0,8.41463470459,-100.67073822,22.8658542633,1.0,0.0,0.0,0.0,1.0,0.0,0.0,0.0,1.0,-6.78516750488,-1.33596452637,7.9439611084,1.0,0.0,0.0,0.0,1.0,0.0,0.0,0.0,1.0
1463845668564945394,455,1463845668494602222,,28.9894237518,-7.40710544586,97.6123123169,0.0204189997166,1.0,0.0,0.0,0.0,1.0,0.0,0.0,0.0,1.0,10.0609760284,-120.121955872,37.2560958862,1.0,0.0,0.0,0.0,1.0,0.0,0.0,0.0,1.0,-6.4595560791,-0.732625708008,7.9439611084,1.0,0.0,0.0,0.0,1.0,0.0,0.0,0.0,1.0
1463845668565259295,456,1463845668514890410,,26.444108963,-6.48701906204,99.1195449829,0.0204000007361,1.0,0.0,0.0,0.0,1.0,0.0,0.0,0.0,1.0,9.81707286835,-134.024398804,47.3780517578,1.0,0.0,0.0,0.0,1.0,0.0,0.0,0.0,1.0,-5.5401826416,-0.809240161133,8.41322404927,1.0,0.0,0.0,0.0,1.0,0.0,0.0,0.0,1.0
1463845668565309659,457,1463845668535333334,,23.5484275818,-5.58397674561,100.683242798,0.0204089991748,1.0,0.0,0.0,0.0,1.0,0.0,0.0,0.0,1.0,10.0,-148.719512939,51.5853691101,1.0,0.0,0.0,0.0,1.0,0.0,0.0,0.0,1.0,-4.76446159597,-0.531512805087,8.68616362305,1.0,0.0,0.0,0.0,1.0,0.0,0.0,0.0,1.0
1463845668667979380,458,1463845668555766572,,20.3724784851,-4.78503799438,102.155464172,0.02054399997,1.0,0.0,0.0,0.0,1.0,0.0,0.0,0.0,1.0,9.81707286835,-163.719512939,49.390247345,1.0,0.0,0.0,0.0,1.0,0.0,0.0,0.0,1.0,-4.80276882253,-0.325611425781,8.57124252788,1.0,0.0,0.0,0.0,1.0,0.0,0.0,0.0,1.0
1463845668668029119,459,1463845668576410848,,16.9109745026,-4.10546684265,103.520614624,0.0202699992806,1.0,0.0,0.0,0.0,1.0,0.0,0.0,0.0,1.0,10.1829271317,-178.84147644,48.0487823486,1.0,0.0,0.0,0.0,1.0,0.0,0.0,0.0,1.0,-4.18027580637,-0.320823022461,8.60954975444,1.0,0.0,0.0,0.0,1.0,0.0,0.0,0.0,1.0
1463845668668327708,460,1463845668596632109,,13.0075883865,-3.51255917549,104.895309448,0.0204419996589,1.0,0.0,0.0,0.0,1.0,0.0,0.0,0.0,1.0,9.14634132385,-193.10975647,50.2439041138,1.0,0.0,0.0,0.0,1.0,0.0,0.0,0.0,1.0,-2.65756384277,-0.143652099609,8.74362446289,1.0,0.0,0.0,0.0,1.0,0.0,0.0,0.0,1.0
1463845668668781399,461,1463845668617267062,,9.01105499268,-3.06314253807,106.297363281,0.0203740000725,1.0,0.0,0.0,0.0,1.0,0.0,0.0,0.0,1.0,9.69512176514,-196.280487061,55.4268302917,1.0,0.0,0.0,0.0,1.0,0.0,0.0,0.0,1.0,-1.78128603516,-0.622492431641,8.9591026123,1.0,0.0,0.0,0.0,1.0,0.0,0.0,0.0,1.0
1463845668668841815,462,1463845668637267181,,5.02470541,-2.65325450897,107.733612061,0.0203980002552,1.0,0.0,0.0,0.0,1.0,0.0,0.0,0.0,1.0,10.9146347046,-195.121948242,59.0853652954,1.0,0.0,0.0,0.0,1.0,0.0,0.0,0.0,1.0,-1.10612116699,-0.330399829102,8.87291135254,1.0,0.0,0.0,0.0,1.0,0.0,0.0,0.0,1.0
1463845668669303735,463,1463845668657718491,,1.01989710331,-2.32383394241,109.241645813,0.0204179994762,1.0,0.0,0.0,0.0,1.0,0.0,0.0,0.0,1.0,12.5,-188.597564697,64.6951217651,1.0,0.0,0.0,0.0,1.0,0.0,0.0,0.0,1.0,0.627280834961,-0.402225878906,8.87291135254,1.0,0.0,0.0,0.0,1.0,0.0,0.0,0.0,1.0
1463845668711892216,464,1463845668680459663,,-3.20582747459,-2.0386826992,111.021400452,0.0226639993489,1.0,0.0,0.0,0.0,1.0,0.0,0.0,0.0,1.0,13.658536911,-179.024398804,70.8536605835,1.0,0.0,0.0,0.0,1.0,0.0,0.0,0.0,1.0,1.16837033709,-0.234631762695,8.54251210796,1.0,0.0,0.0,0.0,1.0,0.0,0.0,0.0,1.0
1463845668713196207,465,1463845668701226125,,-6.75198841095,-1.89312505722,112.684043884,0.020596999675,1.0,0.0,0.0,0.0,1.0,0.0,0.0,0.0,1.0,13.4146347046,-166.890258789,73.9024429321,1.0,0.0,0.0,0.0,1.0,0.0,0.0,0.0,1.0,1.51792385254,-0.162805712891,8.96389101563,1.0,0.0,0.0,0.0,1.0,0.0,0.0,0.0,1.0
1463845668731132502,466,1463845668719926263,,-9.76423740387,-1.88590824604,114.154785156,0.018153000623,1.0,0.0,0.0,0.0,1.0,0.0,0.0,0.0,1.0,11.5243911743,-160.304885864,74.1463394165,1.0,0.0,0.0,0.0,1.0,0.0,0.0,0.0,1.0,2.22660754395,-0.167594116211,9.32302068013,1.0,0.0,0.0,0.0,1.0,0.0,0.0,0.0,1.0
1463845668748159645,467,1463845668739347692,,-12.899515152,-2.01807403564,115.739585876,0.0202210005373,1.0,0.0,0.0,0.0,1.0,0.0,0.0,0.0,1.0,8.65853691101,-145.243911743,71.158531189,1.0,0.0,0.0,0.0,1.0,0.0,0.0,0.0,1.0,3.62482131348,-0.220266552734,9.59117243511,1.0,0.0,0.0,0.0,1.0,0.0,0.0,0.0,1.0
1463845668762352871,468,1463845668759722441,,-15.4715051651,-2.32901549339,117.314086914,0.0204089991748,1.0,0.0,0.0,0.0,1.0,0.0,0.0,0.0,1.0,3.59756112099,-117.378044128,69.5731735229,1.0,0.0,0.0,0.0,1.0,0.0,0.0,0.0,1.0,4.28562126394,-0.282515795898,10.165780249,1.0,0.0,0.0,0.0,1.0,0.0,0.0,0.0,1.0
1463845668793952400,469,1463845668780204584,,-17.3250732422,-2.69762897491,118.668357849,0.0204130001366,1.0,0.0,0.0,0.0,1.0,0.0,0.0,0.0,1.0,-0.304878056049,-81.4634170532,59.5731735229,1.0,0.0,0.0,0.0,1.0,0.0,0.0,0.0,1.0,5.10443793945,-0.15322890625,10.4243540283,1.0,0.0,0.0,0.0,1.0,0.0,0.0,0.0,1.0
1463845668807039184,470,1463845668800663238,,-18.3103122711,-3.03854346275,119.785575867,0.0204029995948,1.0,0.0,0.0,0.0,1.0,0.0,0.0,0.0,1.0,-8.10975551605,-39.817073822,51.9512214661,1.0,0.0,0.0,0.0,1.0,0.0,0.0,0.0,1.0,5.00866987305,1.2737152832,9.86411083984,1.0,0.0,0.0,0.0,1.0,0.0,0.0,0.0,1.0
1463845668825381776,471,1463845668820994029,,-18.3907814026,-3.38206124306,120.319984436,0.0204009991139,1.0,0.0,0.0,0.0,1.0,0.0,0.0,0.0,1.0,-7.80487823486,5.30487823486,24.2073173523,1.0,0.0,0.0,0.0,1.0,0.0,0.0,0.0,1.0,5.50187541504,-0.675164868164,10.5967365479,1.0,0.0,0.0,0.0,1.0,0.0,0.0,0.0,1.0
1463845668844024623,472,1463845668841564139,,-17.6487960815,-3.53794693947,120.318939209,0.0204119998962,1.0,0.0,0.0,0.0,1.0,0.0,0.0,0.0,1.0,-7.13414621353,47.3780517578,2.01219511032,1.0,0.0,0.0,0.0,1.0,0.0,0.0,0.0,1.0,5.75566079102,-0.694318481445,10.8457335205,1.0,0.0,0.0,0.0,1.0,0.0,0.0,0.0,1.0
1463845668879982577,473,1463845668861888524,,-16.1114902496,-3.50777435303,119.762664795,0.0204039998353,1.0,0.0,0.0,0.0,1.0,0.0,0.0,0.0,1.0,-4.45121955872,87.8048782349,-21.8902435303,1.0,0.0,0.0,0.0,1.0,0.0,0.0,0.0,1.0,5.31512768555,-1.01035310059,10.3908352051,1.0,0.0,0.0,0.0,1.0,0.0,0.0,0.0,1.0
1463845668890739084,474,1463845668882178274,,-13.881026268,-3.34139657021,118.808738708,0.0203949995339,1.0,0.0,0.0,0.0,1.0,0.0,0.0,0.0,1.0,-1.2195122242,117.987808228,-39.4512214661,1.0,0.0,0.0,0.0,1.0,0.0,0.0,0.0,1.0,3.69185895996,-1.07739082014,9.86889924316,1.0,0.0,0.0,0.0,1.0,0.0,0.0,0.0,1.0
1463845668908051795,475,1463845668902669792,,-11.1772136688,-3.11225581169,117.630157471,0.020433999598,1.0,0.0,0.0,0.0,1.0,0.0,0.0,0.0,1.0,4.20731735229,142.012191772,-50.182926178,1.0,0.0,0.0,0.0,1.0,0.0,0.0,0.0,1.0,3.26569106445,-1.52271225586,9.5432884019,1.0,0.0,0.0,0.0,1.0,0.0,0.0,0.0,1.0
1463845668939103833,476,1463845668923078342,,-8.06513786316,-2.79562997818,116.292327881,0.0204070005566,1.0,0.0,0.0,0.0,1.0,0.0,0.0,0.0,1.0,8.78048801422,158.292694092,-57.8048820496,1.0,0.0,0.0,0.0,1.0,0.0,0.0,0.0,1.0,1.95845695801,-1.17315874041,9.23683000488,1.0,0.0,0.0,0.0,1.0,0.0,0.0,0.0,1.0
1463845668959728630,477,1463845668943427570,,-4.72395610809,-2.50774288177,114.829666138,0.0203920006752,1.0,0.0,0.0,0.0,1.0,0.0,0.0,0.0,1.0,10.1219511032,167.317077637,-64.5731735229,1.0,0.0,0.0,0.0,1.0,0.0,0.0,0.0,1.0,1.04387185076,-1.06302561017,9.2176763916,1.0,0.0,0.0,0.0,1.0,0.0,0.0,0.0,1.0
1463845668969291091,478,1463845668964994020,,-1.15918815136,-2.37103533745,113.291160583,0.0209490004927,1.0,0.0,0.0,0.0,1.0,0.0,0.0,0.0,1.0,6.70731735229,167.134140015,-67.0121994019,1.0,0.0,0.0,0.0,1.0,0.0,0.0,0.0,1.0,-0.526724328702,-0.967257470703,8.89685336914,1.0,0.0,0.0,0.0,1.0,0.0,0.0,0.0,1.0
1463845668994956490,479,1463845668986562761,,2.13194775581,-2.45080304146,111.864852905,0.0198730006814,1.0,0.0,0.0,0.0,1.0,0.0,0.0,0.0,1.0,2.68292689323,161.097564697,-65.5487823486,1.0,0.0,0.0,0.0,1.0,0.0,0.0,0.0,1.0,-1.34075292969,-1.31681091309,9.04050546875,1.0,0.0,0.0,0.0,1.0,0.0,0.0,0.0,1.0
1463845669008554153,480,1463845669005228213,,5.30308008194,-2.63691496849,110.488502502,0.0203889999539,1.0,0.0,0.0,0.0,1.0,0.0,0.0,0.0,1.0,-2.80487799644,150.731704712,-61.0365905762,1.0,0.0,0.0,0.0,1.0,0.0,0.0,0.0,1.0,-1.96324536133,-0.675164868164,9.28471345356,1.0,0.0,0.0,0.0,1.0,0.0,0.0,0.0,1.0
1463845669035909002,481,1463845669025682645,,8.19644641876,-3.04459691048,109.254272461,0.0204269997776,1.0,0.0,0.0,0.0,1.0,0.0,0.0,0.0,1.0,-10.1829271317,137.012191772,-53.4146347046,1.0,0.0,0.0,0.0,1.0,0.0,0.0,0.0,1.0,-2.51870014648,-0.852335791016,9.45230756977,1.0,0.0,0.0,0.0,1.0,0.0,0.0,0.0,1.0
1463845669048701674,482,1463845669046100203,,10.7227258682,-3.59318399429,108.160697937,0.0204109996557,1.0,0.0,0.0,0.0,1.0,0.0,0.0,0.0,1.0,-16.4634151459,116.646339417,-46.3414649963,1.0,0.0,0.0,0.0,1.0,0.0,0.0,0.0,1.0,-3.48595761719,-0.737414111328,9.35653950337,1.0,0.0,0.0,0.0,1.0,0.0,0.0,0.0,1.0
1463845669070637021,483,1463845669068728040,,12.7046709061,-4.23670053482,107.243247986,0.0204380005598,1.0,0.0,0.0,0.0,1.0,0.0,0.0,0.0,1.0,-22.0121955872,88.9024353027,-38.3536567688,1.0,0.0,0.0,0.0,1.0,0.0,0.0,0.0,1.0,-4.07971962891,-0.598550451572,9.22725319824,1.0,0.0,0.0,0.0,1.0,0.0,0.0,0.0,1.0
1463845669094321665,484,1463845669089090807,,14.1002483368,-4.94729137421,106.569847107,0.020428000018,1.0,0.0,0.0,0.0,1.0,0.0,0.0,0.0,1.0,-27.8658542633,60.7926826477,-27.9878063202,1.0,0.0,0.0,0.0,1.0,0.0,0.0,0.0,1.0,-4.33350529714,-0.512359155273,9.37090471333,1.0,0.0,0.0,0.0,1.0,0.0,0.0,0.0,1.0
1463845669129618010,485,1463845669107296158,,14.9521245956,-5.73087787628,106.059654236,0.0204370003194,1.0,0.0,0.0,0.0,1.0,0.0,0.0,0.0,1.0,-31.8902454376,34.1463432312,-21.6463432312,1.0,0.0,0.0,0.0,1.0,0.0,0.0,0.0,1.0,-4.58729038086,-0.804451757813,9.41878874653,1.0,0.0,0.0,0.0,1.0,0.0,0.0,0.0,1.0
1463845669147175402,486,1463845669129756705,,15.127374649,-6.48932886124,105.7864151,0.0203719995916,1.0,0.0,0.0,0.0,1.0,0.0,0.0,0.0,1.0,-32.6219520569,4.57317066193,-12.9878053665,1.0,0.0,0.0,0.0,1.0,0.0,0.0,0.0,1.0,-4.08450803223,-1.16358193377,9.87368764648,1.0,0.0,0.0,0.0,1.0,0.0,0.0,0.0,1.0
1463845669157225772,487,1463845669149847549,,14.8361167908,-7.10568571091,105.881462097,0.020422000438,1.0,0.0,0.0,0.0,1.0,0.0,0.0,0.0,1.0,-31.2804889679,-20.5487823486,1.2195122242,1.0,0.0,0.0,0.0,1.0,0.0,0.0,0.0,1.0,-4.15154538645,-1.07260241682,9.70130512695,1.0,0.0,0.0,0.0,1.0,0.0,0.0,0.0,1.0
1463845669171740918,488,1463845669168437947,,14.2098045349,-7.60062170029,106.251266479,0.0203479994088,1.0,0.0,0.0,0.0,1.0,0.0,0.0,0.0,1.0,-30.7926845551,-38.4146347046,11.2804880142,1.0,0.0,0.0,0.0,1.0,0.0,0.0,0.0,1.0,-3.82114584961,-0.742202514648,9.15542714844,1.0,0.0,0.0,0.0,1.0,0.0,0.0,0.0,1.0
1463845669195255773,489,1463845669188467854,,13.1500053406,-8.05969619751,106.829803467,0.0204099994153,1.0,0.0,0.0,0.0,1.0,0.0,0.0,0.0,1.0,-29.9390258789,-55.4268302917,18.9024391174,1.0,0.0,0.0,0.0,1.0,0.0,0.0,0.0,1.0,-2.73896669922,-1.0534486574,9.25119521484,1.0,0.0,0.0,0.0,1.0,0.0,0.0,0.0,1.0
1463845669215228493,490,1463845669208868693,,11.9121370316,-8.4217042923,107.601280212,0.0204160008579,1.0,0.0,0.0,0.0,1.0,0.0,0.0,0.0,1.0,-28.2926845551,-67.134147644,25.8536586761,1.0,0.0,0.0,0.0,1.0,0.0,0.0,0.0,1.0,-2.86346518555,-0.847547387695,9.32302068013,1.0,0.0,0.0,0.0,1.0,0.0,0.0,0.0,1.0
1463845669239590314,491,1463845669229630152,,10.3992567062,-8.76351261139,108.498306274,0.0205799993128,1.0,0.0,0.0,0.0,1.0,0.0,0.0,0.0,1.0,-26.6463432312,-77.1951217651,30.0609760284,1.0,0.0,0.0,0.0,1.0,0.0,0.0,0.0,1.0,-2.02070620117,-1.07260241682,9.50498117534,1.0,0.0,0.0,0.0,1.0,0.0,0.0,0.0,1.0
1463845669251797579,492,1463845669249782140,,8.84066104889,-9.05869674683,109.450218201,0.0202469993383,1.0,0.0,0.0,0.0,1.0,0.0,0.0,0.0,1.0,-25.1219520569,-80.3658599854,32.6219520569,1.0,0.0,0.0,0.0,1.0,0.0,0.0,0.0,1.0,-1.5562310791,-0.928950244141,9.33738589009,1.0,0.0,0.0,0.0,1.0,0.0,0.0,0.0,1.0
1463845669273766415,493,1463845669270254905,,7.25283384323,-9.34683990479,110.445953369,0.0203990004957,1.0,0.0,0.0,0.0,1.0,0.0,0.0,0.0,1.0,-24.2073173523,-80.4878082275,34.2073173523,1.0,0.0,0.0,0.0,1.0,0.0,0.0,0.0,1.0,-1.10612116699,-0.905008227539,9.50976957866,1.0,0.0,0.0,0.0,1.0,0.0,0.0,0.0,1.0
1463845669316979203,494,1463845669290873345,,5.71551370621,-9.64419937134,111.457633972,0.020422000438,1.0,0.0,0.0,0.0,1.0,0.0,0.0,0.0,1.0,-23.8414649963,-75.7926864624,35.5487823486,1.0,0.0,0.0,0.0,1.0,0.0,0.0,0.0,1.0,-0.411802685547,-0.895431420898,9.61990285503,1.0,0.0,0.0,0.0,1.0,0.0,0.0,0.0,1.0
1463845669317041754,495,1463845669312902493,,4.32876491547,-9.96403598785,112.461143494,0.0204099994153,1.0,0.0,0.0,0.0,1.0,0.0,0.0,0.0,1.0,-24.3902435303,-65.6707305908,36.7073173523,1.0,0.0,0.0,0.0,1.0,0.0,0.0,0.0,1.0,0.392649072266,-0.852335791016,9.95509050293,1.0,0.0,0.0,0.0,1.0,0.0,0.0,0.0,1.0
1463845669343728436,496,1463845669331279509,,3.26165390015,-10.3198347092,113.398109436,0.0203750003129,1.0,0.0,0.0,0.0,1.0,0.0,0.0,0.0,1.0,-24.3292694092,-52.6219520569,35.7317085266,1.0,0.0,0.0,0.0,1.0,0.0,0.0,0.0,1.0,0.167594116211,-1.01035310059,9.88805285645,1.0,0.0,0.0,0.0,1.0,0.0,0.0,0.0,1.0
1463845669362179565,497,1463845669352090133,,2.44501280785,-10.6453046799,114.244216919,0.0204169992357,1.0,0.0,0.0,0.0,1.0,0.0,0.0,0.0,1.0,-23.7195129395,-39.2073173523,33.3536605835,1.0,0.0,0.0,0.0,1.0,0.0,0.0,0.0,1.0,0.46447512207,-0.732625708008,9.82101520996,1.0,0.0,0.0,0.0,1.0,0.0,0.0,0.0,1.0
1463845669396976906,498,1463845669372398474,,1.83673381805,-10.9919605255,114.95085907,0.0205279998481,1.0,0.0,0.0,0.0,1.0,0.0,0.0,0.0,1.0,-22.6219520569,-26.7073173523,28.5975608826,1.0,0.0,0.0,0.0,1.0,0.0,0.0,0.0,1.0,0.814028564453,-0.995987890625,9.67736311035,1.0,0.0,0.0,0.0,1.0,0.0,0.0,0.0,1.0
1463845669397411119,499,1463845669392470828,,1.4313403368,-11.2978096008,115.481231689,0.0203099995852,1.0,0.0,0.0,0.0,1.0,0.0,0.0,0.0,1.0,-21.158536911,-13.7804880142,22.6219520569,1.0,0.0,0.0,0.0,1.0,0.0,0.0,0.0,1.0,1.33596452637,-0.938527050781,10.1514150391,1.0,0.0,0.0,0.0,1.0,0.0,0.0,0.0,1.0
1463845669543344810,500,1463845669412905781,,1.34672868252,-11.5973577499,115.851821899,0.020380999893,1.0,0.0,0.0,0.0,1.0,0.0,0.0,0.0,1.0,-19.1463432312,-2.19512200356,16.9512195587,1.0,0.0,0.0,0.0,1.0,0.0,0.0,0.0,1.0,0.416591088867,-1.25456166992,10.2136642822,1.0,0.0,0.0,0.0,1.0,0.0,0.0,0.0,1.0
1463845669543649649,501,1463845669433295527,,1.41682803631,-11.8464574814,116.084152222,0.0204390008003,1.0,0.0,0.0,0.0,1.0,0.0,0.0,0.0,1.0,-15.9146347046,4.32926845551,11.4024391174,1.0,0.0,0.0,0.0,1.0,0.0,0.0,0.0,1.0,0.0239420166016,-1.39821376953,10.1178962158,1.0,0.0,0.0,0.0,1.0,0.0,0.0,0.0,1.0
1463845669544007300,502,1463845669453679491,,1.49870932102,-12.0198745728,116.147377014,0.0203740000725,1.0,0.0,0.0,0.0,1.0,0.0,0.0,0.0,1.0,-12.8658542633,8.65853691101,3.90243911743,1.0,0.0,0.0,0.0,1.0,0.0,0.0,0.0,1.0,0.392649072266,-1.28329208984,10.046070166,1.0,0.0,0.0,0.0,1.0,0.0,0.0,0.0,1.0
1463845669544345368,503,1463845669474097466,,1.66875588894,-12.1450681686,116.107627869,0.0204140003771,1.0,0.0,0.0,0.0,1.0,0.0,0.0,0.0,1.0,-10.4268293381,13.2317075729,-0.243902444839,1.0,0.0,0.0,0.0,1.0,0.0,0.0,0.0,1.0,0.253785375977,-1.31202250977,10.1274730225,1.0,0.0,0.0,0.0,1.0,0.0,0.0,0.0,1.0
1463845669544701612,504,1463845669494481586,,1.92774486542,-12.2174253464,116.051139832,0.0204009991139,1.0,0.0,0.0,0.0,1.0,0.0,0.0,0.0,1.0,-8.04878044128,15.1219511032,-0.670731723309,1.0,0.0,0.0,0.0,1.0,0.0,0.0,0.0,1.0,-0.244208569336,-1.2737152832,9.99818613281,1.0,0.0,0.0,0.0,1.0,0.0,0.0,0.0,1.0
1463845669545021139,505,1463845669514939039,,2.20522785187,-12.2609481812,116.016868591,0.0204109996557,1.0,0.0,0.0,0.0,1.0,0.0,0.0,0.0,1.0,-6.21951246262,14.7560987473,0.365853667259,1.0,0.0,0.0,0.0,1.0,0.0,0.0,0.0,1.0,-0.474051928711,-1.35990654297,9.95987890625,1.0,0.0,0.0,0.0,1.0,0.0,0.0,0.0,1.0
1463845669575618074,506,1463845669535364044,,2.44411754608,-12.2653694153,116.026870728,0.0204249992967,1.0,0.0,0.0,0.0,1.0,0.0,0.0,0.0,1.0,-3.04878044128,12.0121955872,2.01219511032,1.0,0.0,0.0,0.0,1.0,0.0,0.0,0.0,1.0,-0.60812722168,-1.62326872559,10.0556469727,1.0,0.0,0.0,0.0,1.0,0.0,0.0,0.0,1.0
1463845669582668541,507,1463845669555757019,,2.67379879951,-12.1786231995,116.098922729,0.0203920006752,1.0,0.0,0.0,0.0,1.0,0.0,0.0,0.0,1.0,0.12195122242,11.2804880142,4.87804889679,1.0,0.0,0.0,0.0,1.0,0.0,0.0,0.0,1.0,-0.584185168546,-1.39821376953,9.95987890625,1.0,0.0,0.0,0.0,1.0,0.0,0.0,0.0,1.0
1463845669613656200,508,1463845669576049995,,2.87942194939,-12.0291004181,116.224136353,0.0204160008579,1.0,0.0,0.0,0.0,1.0,0.0,0.0,0.0,1.0,1.95121955872,10.1829271317,7.19512224197,1.0,0.0,0.0,0.0,1.0,0.0,0.0,0.0,1.0,-0.517147558594,-1.1875240965,9.98382092285,1.0,0.0,0.0,0.0,1.0,0.0,0.0,0.0,1.0
1463845669613696877,509,1463845669596400158,,3.07810115814,-11.8687553406,116.400428772,0.0203949995339,1.0,0.0,0.0,0.0,1.0,0.0,0.0,0.0,1.0,1.2195122242,10.4268293381,9.69512176514,1.0,0.0,0.0,0.0,1.0,0.0,0.0,0.0,1.0,-0.368707055664,-0.981622680664,10.1945106689,1.0,0.0,0.0,0.0,1.0,0.0,0.0,0.0,1.0
1463845669663954038,510,1463845669616952036,,3.27038216591,-11.7281293869,116.576164246,0.0204370003194,1.0,0.0,0.0,0.0,1.0,0.0,0.0,0.0,1.0,-0.426829278469,9.32926845551,9.32926845551,1.0,0.0,0.0,0.0,1.0,0.0,0.0,0.0,1.0,-0.541089611728,-0.814028564453,9.95030209961,1.0,0.0,0.0,0.0,1.0,0.0,0.0,0.0,1.0
1463845669664215284,511,1463845669637100848,,3.39874792099,-11.6057157516,116.719337463,0.0203850008547,1.0,0.0,0.0,0.0,1.0,0.0,0.0,0.0,1.0,-2.31707310677,6.70731735229,7.07317113876,1.0,0.0,0.0,0.0,1.0,0.0,0.0,0.0,1.0,-0.541089611728,-0.574608398438,9.61511445171,1.0,0.0,0.0,0.0,1.0,0.0,0.0,0.0,1.0
1463845669692318247,512,1463845669657661060,,3.46004247665,-11.5281648636,116.828491211,0.020408000797,1.0,0.0,0.0,0.0,1.0,0.0,0.0,0.0,1.0,-5.60975599289,3.90243911743,4.69512224197,1.0,0.0,0.0,0.0,1.0,0.0,0.0,0.0,1.0,-0.541089611728,-0.344765039063,9.4570959731,1.0,0.0,0.0,0.0,1.0,0.0,0.0,0.0,1.0
1463845669692395433,513,1463845669678562620,,3.46918225288,-11.5343885422,116.929740906,0.0204869993031,1.0,0.0,0.0,0.0,1.0,0.0,0.0,0.0,1.0,-10.3048782349,1.40243899822,3.71951246262,1.0,0.0,0.0,0.0,1.0,0.0,0.0,0.0,1.0,-0.569819995117,-0.229843359375,9.5432884019,1.0,0.0,0.0,0.0,1.0,0.0,0.0,0.0,1.0
1463845669734557039,514,1463845669698301803,,3.46774840355,-11.6416664124,117.053741455,0.0203189998865,1.0,0.0,0.0,0.0,1.0,0.0,0.0,0.0,1.0,-15.6097564697,1.09756100178,4.81707286835,1.0,0.0,0.0,0.0,1.0,0.0,0.0,0.0,1.0,-0.493205541992,-0.186747729492,9.4954043687,1.0,0.0,0.0,0.0,1.0,0.0,0.0,0.0,1.0
1463845669734910054,515,1463845669718877431,,3.48585009575,-11.8444252014,117.246101379,0.0204249992967,1.0,0.0,0.0,0.0,1.0,0.0,0.0,0.0,1.0,-20.2439022064,0.670731723309,8.10975551605,1.0,0.0,0.0,0.0,1.0,0.0,0.0,0.0,1.0,-0.61770402832,-0.244208569336,9.62947966167,1.0,0.0,0.0,0.0,1.0,0.0,0.0,0.0,1.0
1463845669773886552,516,1463845669740365649,,3.51803946495,-12.1465110779,117.496765137,0.0204489994794,1.0,0.0,0.0,0.0,1.0,0.0,0.0,0.0,1.0,-22.3780498505,1.15853655338,11.2804880142,1.0,0.0,0.0,0.0,1.0,0.0,0.0,0.0,1.0,-0.550666381836,-0.790086547852,9.75397756348,1.0,0.0,0.0,0.0,1.0,0.0,0.0,0.0,1.0
1463845669773943217,517,1463845669759828846,,3.56882715225,-12.4517469406,117.794067383,0.0204160008579,1.0,0.0,0.0,0.0,1.0,0.0,0.0,0.0,1.0,-22.3170719147,-0.792682945728,13.2317075729,1.0,0.0,0.0,0.0,1.0,0.0,0.0,0.0,1.0,-0.986411083984,-0.928950244141,9.97903251953,1.0,0.0,0.0,0.0,1.0,0.0,0.0,0.0,1.0
1463845669811932803,518,1463845669780716866,,3.52377510071,-12.7616100311,118.142028809,0.0203530006111,1.0,0.0,0.0,0.0,1.0,0.0,0.0,0.0,1.0,-22.5,-6.64634132385,14.5121955872,1.0,0.0,0.0,0.0,1.0,0.0,0.0,0.0,1.0,-1.17794714373,-1.08696755371,10.5632177246,1.0,0.0,0.0,0.0,1.0,0.0,0.0,0.0,1.0
1463845669812293526,519,1463845669800690107,,3.3625869751,-13.0710439682,118.573959351,0.0204089991748,1.0,0.0,0.0,0.0,1.0,0.0,0.0,0.0,1.0,-20.7926826477,-13.1707324982,17.2560977936,1.0,0.0,0.0,0.0,1.0,0.0,0.0,0.0,1.0,-1.1875240965,-1.52271225586,10.7164466309,1.0,0.0,0.0,0.0,1.0,0.0,0.0,0.0,1.0
1463845669853286243,520,1463845669820992875,,3.11855053902,-13.321721077,119.132850647,0.0204150006175,1.0,0.0,0.0,0.0,1.0,0.0,0.0,0.0,1.0,-17.9878044128,-19.817073822,22.0121955872,1.0,0.0,0.0,0.0,1.0,0.0,0.0,0.0,1.0,-1.40300217285,-1.62805712891,10.778695874,1.0,0.0,0.0,0.0,1.0,0.0,0.0,0.0,1.0
1463845669853333899,521,1463845669841749125,,2.78155374527,-13.5621995926,119.850662231,0.0204160008579,1.0,0.0,0.0,0.0,1.0,0.0,0.0,0.0,1.0,-14.5121955872,-26.8902454376,28.4146347046,1.0,0.0,0.0,0.0,1.0,0.0,0.0,0.0,1.0,-1.50355864258,-2.30322199707,10.7020814209,1.0,0.0,0.0,0.0,1.0,0.0,0.0,0.0,1.0
1463845669900936464,522,1463845669862052830,,2.55662536621,-14.1664447784,120.822647095,0.0204099994153,1.0,0.0,0.0,0.0,1.0,0.0,0.0,0.0,1.0,-10.8536586761,-45.6097564697,37.6219520569,1.0,0.0,0.0,0.0,1.0,0.0,0.0,0.0,1.0,-5.35822331543,-5.86100566406,7.38371791992,1.0,0.0,0.0,0.0,1.0,0.0,0.0,0.0,1.0
1463845669900982922,523,1463845669882222892,,2.01877450943,-14.2179965973,121.810440063,0.0203879997134,1.0,0.0,0.0,0.0,1.0,0.0,0.0,0.0,1.0,1.46341466904,-40.4878044128,38.6585388184,1.0,0.0,0.0,0.0,1.0,0.0,0.0,0.0,1.0,-1.43652099609,-3.69664736328,10.165780249,1.0,0.0,0.0,0.0,1.0,0.0,0.0,0.0,1.0
1463845669931817979,524,1463845669902683626,,1.33317089081,-14.013838768,122.786003113,0.0204019993544,1.0,0.0,0.0,0.0,1.0,0.0,0.0,0.0,1.0,15.548781395,-48.1707305908,36.0975646973,1.0,0.0,0.0,0.0,1.0,0.0,0.0,0.0,1.0,-1.47961662598,-3.81156904297,9.89284125977,1.0,0.0,0.0,0.0,1.0,0.0,0.0,0.0,1.0
1463845669931872666,525,1463845669923035715,,0.518977701664,-13.5821704865,123.706336975,0.0204329993576,1.0,0.0,0.0,0.0,1.0,0.0,0.0,0.0,1.0,23.8414649963,-49.5731735229,32.9878044128,1.0,0.0,0.0,0.0,1.0,0.0,0.0,0.0,1.0,-0.588973571866,-2.98796367187,9.61990285503,1.0,0.0,0.0,0.0,1.0,0.0,0.0,0.0,1.0
1463845670283680461,526,1463845669943997275,,-0.213564708829,-12.9727344513,124.708045959,0.0209400001913,1.0,0.0,0.0,0.0,1.0,0.0,0.0,0.0,1.0,28.2926845551,-39.9390258789,38.4756126404,1.0,0.0,0.0,0.0,1.0,0.0,0.0,0.0,1.0,0.497993945312,-2.15478164027,9.61032604839,1.0,0.0,0.0,0.0,1.0,0.0,0.0,0.0,1.0
1463845670283720825,527,1463845669964694620,,-0.721344649792,-12.3890256882,125.714691162,0.0207049995661,1.0,0.0,0.0,0.0,1.0,0.0,0.0,0.0,1.0,25.8536586761,-25.975610733,42.8048782349,1.0,0.0,0.0,0.0,1.0,0.0,0.0,0.0,1.0,1.30723410645,-1.76213242187,10.0652237793,1.0,0.0,0.0,0.0,1.0,0.0,0.0,0.0,1.0
1463845670283755512,528,1463845669984336929,,-1.01587569714,-11.9856042862,126.67665863,0.0195719990879,1.0,0.0,0.0,0.0,1.0,0.0,0.0,0.0,1.0,19.9390239716,-20.9146347046,44.5731735229,1.0,0.0,0.0,0.0,1.0,0.0,0.0,0.0,1.0,0.555454785156,-1.86747729492,9.88326445312,1.0,0.0,0.0,0.0,1.0,0.0,0.0,0.0,1.0
1463845670284338524,529,1463845670004640582,,-1.25212907791,-11.6605072021,127.650115967,0.0204160008579,1.0,0.0,0.0,0.0,1.0,0.0,0.0,0.0,1.0,15.3658533096,-27.3780498505,41.7682952881,1.0,0.0,0.0,0.0,1.0,0.0,0.0,0.0,1.0,-1.25456166992,-1.71424838867,9.52892319194,1.0,0.0,0.0,0.0,1.0,0.0,0.0,0.0,1.0
1463845670284387586,530,1463845670025192875,,-1.79104173183,-11.439458847,128.552856445,0.0204119998962,1.0,0.0,0.0,0.0,1.0,0.0,0.0,0.0,1.0,5.91463422775,-34.2682952881,37.0731697083,1.0,0.0,0.0,0.0,1.0,0.0,0.0,0.0,1.0,-0.0239420166016,-1.01992990723,11.1090957031,1.0,0.0,0.0,0.0,1.0,0.0,0.0,0.0,1.0
1463845670284850548,531,1463845670045970893,,-2.10062718391,-11.4769830704,129.531692505,0.0204029995948,1.0,0.0,0.0,0.0,1.0,0.0,0.0,0.0,1.0,-4.51219558716,-18.1097564697,44.2073173523,1.0,0.0,0.0,0.0,1.0,0.0,0.0,0.0,1.0,1.42215578613,-1.49398183594,12.512097876,1.0,0.0,0.0,0.0,1.0,0.0,0.0,0.0,1.0
1463845670284900964,532,1463845670066063505,,-2.25426769257,-11.714849472,130.441879272,0.0204799994826,1.0,0.0,0.0,0.0,1.0,0.0,0.0,0.0,1.0,-9.63414573669,-12.8048782349,41.5243911743,1.0,0.0,0.0,0.0,1.0,0.0,0.0,0.0,1.0,0.814028564453,-2.44208569336,11.9662198975,1.0,0.0,0.0,0.0,1.0,0.0,0.0,0.0,1.0
1463845670285219605,533,1463845670086467466,,-2.22650671005,-12.0610675812,131.233963013,0.0204109996557,1.0,0.0,0.0,0.0,1.0,0.0,0.0,0.0,1.0,-9.14634132385,-2.25609779358,37.7439041138,1.0,0.0,0.0,0.0,1.0,0.0,0.0,0.0,1.0,1.06781401349,-3.85466467285,11.9422778809,1.0,0.0,0.0,0.0,1.0,0.0,0.0,0.0,1.0
1463845670285596578,534,1463845670106885489,,-2.11084294319,-12.2830257416,131.93699646,0.0203409995884,1.0,0.0,0.0,0.0,1.0,0.0,0.0,0.0,1.0,-4.45121955872,0.731707334518,34.1463432312,1.0,0.0,0.0,0.0,1.0,0.0,0.0,0.0,1.0,0.675164868164,-3.99352836914,13.0244570312,1.0,0.0,0.0,0.0,1.0,0.0,0.0,0.0,1.0
1463845670285650223,535,1463845670127358407,,-1.9204454422,-12.4205751419,132.555740356,0.0204440001398,1.0,0.0,0.0,0.0,1.0,0.0,0.0,0.0,1.0,-1.76829278469,4.45121955872,30.6707305908,1.0,0.0,0.0,0.0,1.0,0.0,0.0,0.0,1.0,0.526724328702,-3.98873996582,13.9198884521,1.0,0.0,0.0,0.0,1.0,0.0,0.0,0.0,1.0
1463845670285864595,536,1463845670147933616,,-1.6624699831,-12.6399421692,133.125244141,0.0203419998288,1.0,0.0,0.0,0.0,1.0,0.0,0.0,0.0,1.0,-3.47560977936,6.52439069748,28.7804889679,1.0,0.0,0.0,0.0,1.0,0.0,0.0,0.0,1.0,0.0526724365234,-4.82192243582,14.2407114746,1.0,0.0,0.0,0.0,1.0,0.0,0.0,0.0,1.0
1463845670286152507,537,1463845670168005342,,-1.4668816328,-12.6189212799,133.599639893,0.0204230006784,1.0,0.0,0.0,0.0,1.0,0.0,0.0,0.0,1.0,9.39024448395,4.51219558716,23.475610733,1.0,0.0,0.0,0.0,1.0,0.0,0.0,0.0,1.0,-0.00957680664062,-5.54497104492,15.0403748291,1.0,0.0,0.0,0.0,1.0,0.0,0.0,0.0,1.0
1463845670286520731,538,1463845670188320763,,-1.33388078213,-12.3152284622,133.927566528,0.0204169992357,1.0,0.0,0.0,0.0,1.0,0.0,0.0,0.0,1.0,21.6463432312,3.71951246262,16.0365848541,1.0,0.0,0.0,0.0,1.0,0.0,0.0,0.0,1.0,0.105344873047,-4.91769020996,14.4178823975,1.0,0.0,0.0,0.0,1.0,0.0,0.0,0.0,1.0
1463845670286571720,539,1463845670208868524,,-1.24340760708,-11.8440666199,134.073501587,0.020408000797,1.0,0.0,0.0,0.0,1.0,0.0,0.0,0.0,1.0,26.9512195587,6.21951246262,7.56097555161,1.0,0.0,0.0,0.0,1.0,0.0,0.0,0.0,1.0,0.723048901367,-3.84029946289,13.5655466064,1.0,0.0,0.0,0.0,1.0,0.0,0.0,0.0,1.0
1463845670287257699,540,1463845670229251288,,-1.11319768429,-11.3394002914,134.082641602,0.0204179994762,1.0,0.0,0.0,0.0,1.0,0.0,0.0,0.0,1.0,25.8536586761,8.17073154449,1.15853655338,1.0,0.0,0.0,0.0,1.0,0.0,0.0,0.0,1.0,0.349553442383,-3.04542451172,13.4889321533,1.0,0.0,0.0,0.0,1.0,0.0,0.0,0.0,1.0
1463845670287310823,541,1463845670249633582,,-1.03350448608,-10.905708313,134.050216675,0.0204089991748,1.0,0.0,0.0,0.0,1.0,0.0,0.0,0.0,1.0,22.682926178,4.75609779358,-1.64634156227,1.0,0.0,0.0,0.0,1.0,0.0,0.0,0.0,1.0,-0.0287304199219,-2.98796367187,13.4171061035,1.0,0.0,0.0,0.0,1.0,0.0,0.0,0.0,1.0
1463845670287629099,542,1463845670270115615,,-1.04232978821,-10.5634126663,134.071395874,0.0204179994762,1.0,0.0,0.0,0.0,1.0,0.0,0.0,0.0,1.0,19.9390239716,0.0,0.0609756112099,1.0,0.0,0.0,0.0,1.0,0.0,0.0,0.0,1.0,-0.0478840332031,-3.21780703125,13.0675526611,1.0,0.0,0.0,0.0,1.0,0.0,0.0,0.0,1.0
1463845670366705607,543,1463845670290474629,,-1.10002326965,-10.2581005096,134.148727417,0.0203959997743,1.0,0.0,0.0,0.0,1.0,0.0,0.0,0.0,1.0,19.5731716156,-4.08536577225,2.07317066193,1.0,0.0,0.0,0.0,1.0,0.0,0.0,0.0,1.0,-0.335188232422,-3.35188232422,12.6078659424,1.0,0.0,0.0,0.0,1.0,0.0,0.0,0.0,1.0
1463845670366760658,544,1463845670310934891,,-1.27567732334,-9.92403316498,134.27444458,0.0204039998353,1.0,0.0,0.0,0.0,1.0,0.0,0.0,0.0,1.0,19.9390239716,-12.2560977936,3.04878044128,1.0,0.0,0.0,0.0,1.0,0.0,0.0,0.0,1.0,-0.751779321289,-2.82515795898,11.7890489746,1.0,0.0,0.0,0.0,1.0,0.0,0.0,0.0,1.0
1463845670367072737,545,1463845670331584370,,-1.58517754078,-9.59678077698,134.391082764,0.0203939992934,1.0,0.0,0.0,0.0,1.0,0.0,0.0,0.0,1.0,17.5000019073,-18.475610733,1.64634156227,1.0,0.0,0.0,0.0,1.0,0.0,0.0,0.0,1.0,-0.651222851562,-2.22181914063,11.4490723389,1.0,0.0,0.0,0.0,1.0,0.0,0.0,0.0,1.0
1463845670367456012,546,1463845670351824844,,-1.98630058765,-9.34451293945,134.479217529,0.0203930009156,1.0,0.0,0.0,0.0,1.0,0.0,0.0,0.0,1.0,12.0731716156,-24.3902435303,-0.609756112099,1.0,0.0,0.0,0.0,1.0,0.0,0.0,0.0,1.0,-0.890643017578,-1.69509477539,10.8361567139,1.0,0.0,0.0,0.0,1.0,0.0,0.0,0.0,1.0
1463845670402706050,547,1463845670372209951,,-2.51445150375,-9.25673007965,134.513504028,0.0204920005053,1.0,0.0,0.0,0.0,1.0,0.0,0.0,0.0,1.0,6.40243911743,-29.6951236725,-4.14634132385,1.0,0.0,0.0,0.0,1.0,0.0,0.0,0.0,1.0,-0.737414111328,-2.06859023437,10.4866032715,1.0,0.0,0.0,0.0,1.0,0.0,0.0,0.0,1.0
1463845670403035316,548,1463845670392539173,,-3.10943388939,-9.22393608093,134.516159058,0.0203879997134,1.0,0.0,0.0,0.0,1.0,0.0,0.0,0.0,1.0,6.64634132385,-28.475610733,-5.60975599289,1.0,0.0,0.0,0.0,1.0,0.0,0.0,0.0,1.0,0.162805712891,-2.25533796387,8.98783303223,1.0,0.0,0.0,0.0,1.0,0.0,0.0,0.0,1.0
1463845670441871185,549,1463845670412911052,,-3.69491219521,-9.16896247864,134.409133911,0.0203750003129,1.0,0.0,0.0,0.0,1.0,0.0,0.0,0.0,1.0,7.74390268326,-23.4146347046,-10.2439022064,1.0,0.0,0.0,0.0,1.0,0.0,0.0,0.0,1.0,0.737414111328,-1.92493813477,7.48906279297,1.0,0.0,0.0,0.0,1.0,0.0,0.0,0.0,1.0
1463845670442185138,550,1463845670433400741,,-4.00593566895,-9.54966259003,134.191223145,0.0204620007426,1.0,0.0,0.0,0.0,1.0,0.0,0.0,0.0,1.0,10.8536586761,-5.60975599289,-14.5121955872,1.0,0.0,0.0,0.0,1.0,0.0,0.0,0.0,1.0,1.23061965332,-5.24809003906,5.92325490723,1.0,0.0,0.0,0.0,1.0,0.0,0.0,0.0,1.0
1463845670481363814,551,1463845670453676370,,-4.30437088013,-9.32873535156,133.805221558,0.0203520003706,1.0,0.0,0.0,0.0,1.0,0.0,0.0,0.0,1.0,15.2439022064,6.64634132385,-19.2073173523,1.0,0.0,0.0,0.0,1.0,0.0,0.0,0.0,1.0,1.99197578125,-1.40300217285,5.05655390625,1.0,0.0,0.0,0.0,1.0,0.0,0.0,0.0,1.0
1463845670481420532,552,1463845670474027572,,-3.93754196167,-9.11292266846,133.435699463,0.0203980002552,1.0,0.0,0.0,0.0,1.0,0.0,0.0,0.0,1.0,8.96341514587,30.7317066193,-14.0243902206,1.0,0.0,0.0,0.0,1.0,0.0,0.0,0.0,1.0,1.30244570312,-0.866701000977,5.65031591797,1.0,0.0,0.0,0.0,1.0,0.0,0.0,0.0,1.0
1463845670521212689,553,1463845670494370909,,-3.13765239716,-8.95669174194,133.069580078,0.0203959997743,1.0,0.0,0.0,0.0,1.0,0.0,0.0,0.0,1.0,0.0,39.2682914734,-12.1951217651,1.0,0.0,0.0,0.0,1.0,0.0,0.0,0.0,1.0,-0.0239420166016,-0.263362164351,6.88093557129,1.0,0.0,0.0,0.0,1.0,0.0,0.0,0.0,1.0
1463845670521479455,554,1463845670514920753,,-2.20429182053,-9.09722518921,132.756912231,0.0204130001366,1.0,0.0,0.0,0.0,1.0,0.0,0.0,0.0,1.0,-9.39024448395,47.5609779358,-8.59756088257,1.0,0.0,0.0,0.0,1.0,0.0,0.0,0.0,1.0,0.15801730957,-0.837970581055,6.94318481445,1.0,0.0,0.0,0.0,1.0,0.0,0.0,0.0,1.0
1463845670561183019,555,1463845670535376224,,-1.21035981178,-9.38198184967,132.418670654,0.0204269997776,1.0,0.0,0.0,0.0,1.0,0.0,0.0,0.0,1.0,-16.9512195587,50.182926178,-9.26829242706,1.0,0.0,0.0,0.0,1.0,0.0,0.0,0.0,1.0,-0.0191536132812,-0.723048901367,6.55532414551,1.0,0.0,0.0,0.0,1.0,0.0,0.0,0.0,1.0
1463845670561242185,556,1463845670555838934,,-0.186359271407,-9.8413105011,132.035614014,0.0204099994153,1.0,0.0,0.0,0.0,1.0,0.0,0.0,0.0,1.0,-25.0609760284,50.3048820496,-11.2195119858,1.0,0.0,0.0,0.0,1.0,0.0,0.0,0.0,1.0,-0.378283862305,-0.847547387695,7.12993254395,1.0,0.0,0.0,0.0,1.0,0.0,0.0,0.0,1.0
1463845670663910522,557,1463845670576075918,,0.797087013721,-10.429558754,131.653015137,0.0203990004957,1.0,0.0,0.0,0.0,1.0,0.0,0.0,0.0,1.0,-32.7439041138,48.0487823486,-11.2195119858,1.0,0.0,0.0,0.0,1.0,0.0,0.0,0.0,1.0,-0.646434448242,-0.794874951172,8.2025348877,1.0,0.0,0.0,0.0,1.0,0.0,0.0,0.0,1.0
1463845670667224951,558,1463845670596598732,,1.7028324604,-11.1991376877,131.303619385,0.0204029995948,1.0,0.0,0.0,0.0,1.0,0.0,0.0,0.0,1.0,-40.3048782349,43.5975608826,-9.93902492523,1.0,0.0,0.0,0.0,1.0,0.0,0.0,0.0,1.0,-0.933738647461,-1.11090957031,8.80108530273,1.0,0.0,0.0,0.0,1.0,0.0,0.0,0.0,1.0
1463845670667287815,559,1463845670616945298,,2.46235346794,-12.1684970856,131.016143799,0.0204230006784,1.0,0.0,0.0,0.0,1.0,0.0,0.0,0.0,1.0,-44.390247345,39.0243911743,-7.07317113876,1.0,0.0,0.0,0.0,1.0,0.0,0.0,0.0,1.0,-0.612915625,-2.14520483363,8.88248815918,1.0,0.0,0.0,0.0,1.0,0.0,0.0,0.0,1.0
1463845670668960133,560,1463845670637320197,,3.20245814323,-13.1181745529,130.803588867,0.0203959997743,1.0,0.0,0.0,0.0,1.0,0.0,0.0,0.0,1.0,-41.8902435303,36.3414611816,-3.23170733452,1.0,0.0,0.0,0.0,1.0,0.0,0.0,0.0,1.0,-0.986411083984,-2.74375510254,9.45230756977,1.0,0.0,0.0,0.0,1.0,0.0,0.0,0.0,1.0
1463845670922810446,561,1463845670657809469,,3.79073023796,-13.9289674759,130.668609619,0.0204249992967,1.0,0.0,0.0,0.0,1.0,0.0,0.0,0.0,1.0,-38.5365829468,27.4390258789,-1.09756100178,1.0,0.0,0.0,0.0,1.0,0.0,0.0,0.0,1.0,-1.26413847656,-2.33195227086,9.58159562847,1.0,0.0,0.0,0.0,1.0,0.0,0.0,0.0,1.0
1463845670923531841,562,1463845670678270877,,4.17286682129,-14.7056522369,130.641784668,0.0204179994762,1.0,0.0,0.0,0.0,1.0,0.0,0.0,0.0,1.0,-38.7804870605,13.7804880142,1.09756100178,1.0,0.0,0.0,0.0,1.0,0.0,0.0,0.0,1.0,-1.86747729492,-2.2170307373,9.71088193359,1.0,0.0,0.0,0.0,1.0,0.0,0.0,0.0,1.0
1463845670923741422,563,1463845670698570934,,4.2724981308,-15.4395017624,130.692550659,0.0203820001334,1.0,0.0,0.0,0.0,1.0,0.0,0.0,0.0,1.0,-37.317073822,-3.71951246262,0.426829278469,1.0,0.0,0.0,0.0,1.0,0.0,0.0,0.0,1.0,-2.48518132324,-2.24097275391,9.47146118306,1.0,0.0,0.0,0.0,1.0,0.0,0.0,0.0,1.0
1463845670924542087,564,1463845670719114997,,3.99495792389,-16.1139278412,130.81539917,0.0204140003771,1.0,0.0,0.0,0.0,1.0,0.0,0.0,0.0,1.0,-33.5975608826,-21.7073173523,-1.03658533096,1.0,0.0,0.0,0.0,1.0,0.0,0.0,0.0,1.0,-2.29364519043,-2.47081611328,9.16021555176,1.0,0.0,0.0,0.0,1.0,0.0,0.0,0.0,1.0
1463845670924892862,565,1463845670739346877,,3.42013573647,-16.6734848022,131.041610718,0.0204089991748,1.0,0.0,0.0,0.0,1.0,0.0,0.0,0.0,1.0,-29.3292694092,-32.2560958862,0.731707334518,1.0,0.0,0.0,0.0,1.0,0.0,0.0,0.0,1.0,-1.25456166992,-2.21224233398,8.44195446919,1.0,0.0,0.0,0.0,1.0,0.0,0.0,0.0,1.0
1463845670925175983,566,1463845670759819275,,2.87312054634,-17.1114749908,131.329818726,0.0204249992967,1.0,0.0,0.0,0.0,1.0,0.0,0.0,0.0,1.0,-26.7073173523,-30.975610733,3.7804877758,1.0,0.0,0.0,0.0,1.0,0.0,0.0,0.0,1.0,-0.986411083984,-1.71424838867,8.14507404785,1.0,0.0,0.0,0.0,1.0,0.0,0.0,0.0,1.0
1463845670928098751,567,1463845670780322193,,2.37335753441,-17.4743041992,131.677505493,0.0204160008579,1.0,0.0,0.0,0.0,1.0,0.0,0.0,0.0,1.0,-25.8536586761,-28.1707324982,7.37804937363,1.0,0.0,0.0,0.0,1.0,0.0,0.0,0.0,1.0,-0.656011254883,-1.33117612305,7.98226833496,1.0,0.0,0.0,0.0,1.0,0.0,0.0,0.0,1.0
1463845670929204307,568,1463845670800673707,,2.04987049103,-17.8409252167,132.064743042,0.0203649997711,1.0,0.0,0.0,0.0,1.0,0.0,0.0,0.0,1.0,-25.975610733,-23.1097564697,10.9756097794,1.0,0.0,0.0,0.0,1.0,0.0,0.0,0.0,1.0,-0.938527050781,-1.35990654297,7.81467421875,1.0,0.0,0.0,0.0,1.0,0.0,0.0,0.0,1.0
1463845670930905427,569,1463845670821413131,,1.77180981636,-18.2112102509,132.479568481,0.0204109996557,1.0,0.0,0.0,0.0,1.0,0.0,0.0,0.0,1.0,-23.5365848541,-18.7195110321,13.7804880142,1.0,0.0,0.0,0.0,1.0,0.0,0.0,0.0,1.0,-0.521935925381,-1.90099611816,8.3270327895,1.0,0.0,0.0,0.0,1.0,0.0,0.0,0.0,1.0
1463845670933375338,570,1463845670841540951,,1.67033529282,-18.5089225769,132.898117065,0.0204399991781,1.0,0.0,0.0,0.0,1.0,0.0,0.0,0.0,1.0,-17.8658542633,-11.8902444839,16.2195110321,1.0,0.0,0.0,0.0,1.0,0.0,0.0,0.0,1.0,-0.689530078125,-2.29364519043,8.38928203267,1.0,0.0,0.0,0.0,1.0,0.0,0.0,0.0,1.0
1463845670934928960,571,1463845670862250376,,1.60600137711,-18.6738014221,133.278442383,0.0203879997134,1.0,0.0,0.0,0.0,1.0,0.0,0.0,0.0,1.0,-9.93902492523,-9.32926845551,15.1829271317,1.0,0.0,0.0,0.0,1.0,0.0,0.0,0.0,1.0,-0.641646044922,-2.63841022949,8.64306857769,1.0,0.0,0.0,0.0,1.0,0.0,0.0,0.0,1.0
1463845670937687772,572,1463845670882751940,,1.57657372952,-18.6571826935,133.619522095,0.0204019993544,1.0,0.0,0.0,0.0,1.0,0.0,0.0,0.0,1.0,-0.243902444839,-7.68292665482,13.7195129395,1.0,0.0,0.0,0.0,1.0,0.0,0.0,0.0,1.0,-0.790086547852,-3.00711728516,9.32780908345,1.0,0.0,0.0,0.0,1.0,0.0,0.0,0.0,1.0
1463845670939402278,573,1463845670902600232,,1.488743186,-18.4611110687,133.913742065,0.0204060003161,1.0,0.0,0.0,0.0,1.0,0.0,0.0,0.0,1.0,10.1219511032,-10.2439022064,10.4878053665,1.0,0.0,0.0,0.0,1.0,0.0,0.0,0.0,1.0,-0.905008227539,-3.28963308105,9.36132790669,1.0,0.0,0.0,0.0,1.0,0.0,0.0,0.0,1.0
1463845671081903229,574,1463845670923077109,,1.31251978874,-18.0770778656,134.175888062,0.0204089991748,1.0,0.0,0.0,0.0,1.0,0.0,0.0,0.0,1.0,20.9146347046,-14.5121955872,7.50000047684,1.0,0.0,0.0,0.0,1.0,0.0,0.0,0.0,1.0,-1.08696755371,-3.74453139648,9.91199487305,1.0,0.0,0.0,0.0,1.0,0.0,0.0,0.0,1.0
1463845671086182903,575,1463845670943456747,,0.965447664261,-17.4465789795,134.370269775,0.0204249992967,1.0,0.0,0.0,0.0,1.0,0.0,0.0,0.0,1.0,37.3780517578,-20.4878044128,2.31707310677,1.0,0.0,0.0,0.0,1.0,0.0,0.0,0.0,1.0,-0.852335791016,-4.3382934082,9.45230756977,1.0,0.0,0.0,0.0,1.0,0.0,0.0,0.0,1.0
1463845671086237538,576,1463845670963798991,,0.534820973873,-16.5925598145,134.509536743,0.020408000797,1.0,0.0,0.0,0.0,1.0,0.0,0.0,0.0,1.0,51.7073173523,-20.7317085266,-0.243902444839,1.0,0.0,0.0,0.0,1.0,0.0,0.0,0.0,1.0,-0.239420166016,-4.8554409668,9.40442353657,1.0,0.0,0.0,0.0,1.0,0.0,0.0,0.0,1.0
1463845671086276079,577,1463845670984222430,,0.185225665569,-15.4462394714,134.60446167,0.020380999893,1.0,0.0,0.0,0.0,1.0,0.0,0.0,0.0,1.0,67.7439041138,-11.9512195587,0.426829278469,1.0,0.0,0.0,0.0,1.0,0.0,0.0,0.0,1.0,0.737414111328,-5.31512768555,9.95987890625,1.0,0.0,0.0,0.0,1.0,0.0,0.0,0.0,1.0
1463845671086678260,578,1463845671004608944,,0.0799059793353,-13.9449167252,134.623764038,0.020422000438,1.0,0.0,0.0,0.0,1.0,0.0,0.0,0.0,1.0,80.6707382202,2.25609779358,0.609756112099,1.0,0.0,0.0,0.0,1.0,0.0,0.0,0.0,1.0,1.09654436035,-4.14196887207,10.0221281494,1.0,0.0,0.0,0.0,1.0,0.0,0.0,0.0,1.0
1463845671086730238,579,1463845671024992226,,0.191570520401,-12.3379383087,134.558685303,0.0204039998353,1.0,0.0,0.0,0.0,1.0,0.0,0.0,0.0,1.0,83.1707305908,15.1219511032,-0.609756112099,1.0,0.0,0.0,0.0,1.0,0.0,0.0,0.0,1.0,1.31202250977,-3.10767375488,9.48103915874,1.0,0.0,0.0,0.0,1.0,0.0,0.0,0.0,1.0
1463845671086775967,580,1463845671045540713,,0.534995555878,-10.6837320328,134.406860352,0.0204160008579,1.0,0.0,0.0,0.0,1.0,0.0,0.0,0.0,1.0,79.207321167,25.4268302917,-3.23170733452,1.0,0.0,0.0,0.0,1.0,0.0,0.0,0.0,1.0,0.933738647461,-1.66157595215,9.28950185688,1.0,0.0,0.0,0.0,1.0,0.0,0.0,0.0,1.0
1463845671086814247,581,1463845671068212658,,1.04909586906,-9.14209365845,134.142654419,0.0215550009161,1.0,0.0,0.0,0.0,1.0,0.0,0.0,0.0,1.0,67.1951217651,32.5,-7.56097555161,1.0,0.0,0.0,0.0,1.0,0.0,0.0,0.0,1.0,0.756567724609,-0.938527050781,9.21288798828,1.0,0.0,0.0,0.0,1.0,0.0,0.0,0.0,1.0
1463845671129736194,582,1463845671088977600,,1.60011124611,-8.06739807129,133.807785034,0.019278999418,1.0,0.0,0.0,0.0,1.0,0.0,0.0,0.0,1.0,54.817073822,36.4024391174,-12.8048782349,1.0,0.0,0.0,0.0,1.0,0.0,0.0,0.0,1.0,0.45968671875,-1.2497732666,9.50019277202,1.0,0.0,0.0,0.0,1.0,0.0,0.0,0.0,1.0
1463845671129791089,583,1463845671106604205,,2.24350309372,-7.11881923676,133.315063477,0.020380999893,1.0,0.0,0.0,0.0,1.0,0.0,0.0,0.0,1.0,44.2073173523,36.0365867615,-20.3658542633,1.0,0.0,0.0,0.0,1.0,0.0,0.0,0.0,1.0,-0.325611425781,-0.780509741211,9.74440075684,1.0,0.0,0.0,0.0,1.0,0.0,0.0,0.0,1.0
1463845671161607007,584,1463845671127080662,,2.65523171425,-6.56244564056,132.715789795,0.0203990004957,1.0,0.0,0.0,0.0,1.0,0.0,0.0,0.0,1.0,30.4268321991,27.0731716156,-26.8902454376,1.0,0.0,0.0,0.0,1.0,0.0,0.0,0.0,1.0,-0.0957680664062,-1.64721074219,10.7116582275,1.0,0.0,0.0,0.0,1.0,0.0,0.0,0.0,1.0
1463845671162099448,585,1463845671147490609,,3.03549838066,-6.23652505875,132.049926758,0.020433999598,1.0,0.0,0.0,0.0,1.0,0.0,0.0,0.0,1.0,20.7317085266,28.1707324982,-30.0609760284,1.0,0.0,0.0,0.0,1.0,0.0,0.0,0.0,1.0,0.316034619141,-1.81001645508,10.8457335205,1.0,0.0,0.0,0.0,1.0,0.0,0.0,0.0,1.0
1463845671205314619,586,1463845671167831547,,3.46688389778,-6.09895277023,131.406478882,0.0203990004957,1.0,0.0,0.0,0.0,1.0,0.0,0.0,0.0,1.0,12.1341466904,30.7926845551,-28.7804889679,1.0,0.0,0.0,0.0,1.0,0.0,0.0,0.0,1.0,0.301669427446,-1.79565124512,10.6206785645,1.0,0.0,0.0,0.0,1.0,0.0,0.0,0.0,1.0
1463845671205356024,587,1463845671188515762,,3.99216628075,-6.11831331253,130.79574585,0.0206140000373,1.0,0.0,0.0,0.0,1.0,0.0,0.0,0.0,1.0,4.69512224197,32.134147644,-26.7073173523,1.0,0.0,0.0,0.0,1.0,0.0,0.0,0.0,1.0,-0.272938989258,-1.61848032227,9.59117243511,1.0,0.0,0.0,0.0,1.0,0.0,0.0,0.0,1.0
1463845671241560886,588,1463845671209302995,,4.47264814377,-6.23766994476,130.212356567,0.0207770001143,1.0,0.0,0.0,0.0,1.0,0.0,0.0,0.0,1.0,-3.04878044128,29.2682933807,-25.6097564697,1.0,0.0,0.0,0.0,1.0,0.0,0.0,0.0,1.0,-0.383072265625,-0.967257470703,8.52335849468,1.0,0.0,0.0,0.0,1.0,0.0,0.0,0.0,1.0
1463845671242330354,589,1463845671229041182,,4.73789930344,-6.42509698868,129.696640015,0.0198270007968,1.0,0.0,0.0,0.0,1.0,0.0,0.0,0.0,1.0,-9.75609779358,25.3658542633,-24.1463432312,1.0,0.0,0.0,0.0,1.0,0.0,0.0,0.0,1.0,0.392649072266,-0.45968671875,7.44117875977,1.0,0.0,0.0,0.0,1.0,0.0,0.0,0.0,1.0
1463845671281185852,590,1463845671249423995,,4.99460697174,-6.80028963089,129.258468628,0.0204300004989,1.0,0.0,0.0,0.0,1.0,0.0,0.0,0.0,1.0,-20.0609760284,26.158536911,-19.5121955872,1.0,0.0,0.0,0.0,1.0,0.0,0.0,0.0,1.0,0.61770402832,-0.330399829102,7.34062229004,1.0,0.0,0.0,0.0,1.0,0.0,0.0,0.0,1.0
1463845671281527045,591,1463845671270208312,,5.32947206497,-7.45251274109,128.880447388,0.0207170005888,1.0,0.0,0.0,0.0,1.0,0.0,0.0,0.0,1.0,-28.9024410248,27.682926178,-15.548781395,1.0,0.0,0.0,0.0,1.0,0.0,0.0,0.0,1.0,0.378283862305,-1.04387185076,7.92959589844,1.0,0.0,0.0,0.0,1.0,0.0,0.0,0.0,1.0
1463845671323600514,592,1463845671291456892,,5.67261123657,-8.21738433838,128.580657959,0.0200740005821,1.0,0.0,0.0,0.0,1.0,0.0,0.0,0.0,1.0,-32.5,25.182926178,-11.9512195587,1.0,0.0,0.0,0.0,1.0,0.0,0.0,0.0,1.0,-0.119710083008,-1.66636435547,8.23126530762,1.0,0.0,0.0,0.0,1.0,0.0,0.0,0.0,1.0
1463845671324832839,593,1463845671310941229,,5.9431810379,-9.02094268799,128.350372314,0.020646000281,1.0,0.0,0.0,0.0,1.0,0.0,0.0,0.0,1.0,-33.1707305908,21.5243911743,-8.35365867615,1.0,0.0,0.0,0.0,1.0,0.0,0.0,0.0,1.0,-0.067037651051,-1.92493813477,8.56166572124,1.0,0.0,0.0,0.0,1.0,0.0,0.0,0.0,1.0
1463845671362527366,594,1463845671331031182,,6.12442016602,-9.78560256958,128.195770264,0.0201580002904,1.0,0.0,0.0,0.0,1.0,0.0,0.0,0.0,1.0,-33.4756126404,19.6951236725,-5.0,1.0,0.0,0.0,0.0,1.0,0.0,0.0,0.0,1.0,0.330399829102,-2.00155258789,9.03092866211,1.0,0.0,0.0,0.0,1.0,0.0,0.0,0.0,1.0
1463845671362935953,595,1463845671351555867,,6.20384216309,-10.5183105469,128.117721558,0.0204109996557,1.0,0.0,0.0,0.0,1.0,0.0,0.0,0.0,1.0,-33.7804870605,16.0975608826,-1.76829278469,1.0,0.0,0.0,0.0,1.0,0.0,0.0,0.0,1.0,0.699106884766,-1.98718737793,9.95509050293,1.0,0.0,0.0,0.0,1.0,0.0,0.0,0.0,1.0
1463845671415014686,596,1463845671373839484,,6.37076950073,-11.2092123032,128.061691284,0.0209040008485,1.0,0.0,0.0,0.0,1.0,0.0,0.0,0.0,1.0,-31.7073192596,15.4268302917,-0.609756112099,1.0,0.0,0.0,0.0,1.0,0.0,0.0,0.0,1.0,-0.134075302102,-1.87226569824,9.32302068013,1.0,0.0,0.0,0.0,1.0,0.0,0.0,0.0,1.0
1463845671415058384,597,1463845671392507219,,6.43274307251,-11.8864345551,128.03237915,0.0199289992452,1.0,0.0,0.0,0.0,1.0,0.0,0.0,0.0,1.0,-32.6219520569,10.3658542633,-0.243902444839,1.0,0.0,0.0,0.0,1.0,0.0,0.0,0.0,1.0,-0.172382519531,-2.05901342773,9.52413478862,1.0,0.0,0.0,0.0,1.0,0.0,0.0,0.0,1.0
1463845671460822891,598,1463845671412788002,,6.41396665573,-12.5216760635,128.029876709,0.0204009991139,1.0,0.0,0.0,0.0,1.0,0.0,0.0,0.0,1.0,-31.9512214661,6.09756088257,0.0609756112099,1.0,0.0,0.0,0.0,1.0,0.0,0.0,0.0,1.0,-0.201112939453,-1.85311208496,9.69651672363,1.0,0.0,0.0,0.0,1.0,0.0,0.0,0.0,1.0
1463845671461116949,599,1463845671433165033,,6.31070184708,-13.1447429657,128.036132812,0.0204130001366,1.0,0.0,0.0,0.0,1.0,0.0,0.0,0.0,1.0,-33.1097564697,2.74390244484,-0.426829278469,1.0,0.0,0.0,0.0,1.0,0.0,0.0,0.0,1.0,-0.067037651051,-1.72861359863,10.1083194092,1.0,0.0,0.0,0.0,1.0,0.0,0.0,0.0,1.0
1463845671486175887,600,1463845671453753051,,6.19569396973,-13.7925882339,128.051116943,0.0203949995339,1.0,0.0,0.0,0.0,1.0,0.0,0.0,0.0,1.0,-34.9390258789,1.09756100178,-0.426829278469,1.0,0.0,0.0,0.0,1.0,0.0,0.0,0.0,1.0,-0.234631762695,-1.75255561523,10.165780249,1.0,0.0,0.0,0.0,1.0,0.0,0.0,0.0,1.0
1463845671486525622,601,1463845671474113260,,6.0165605545,-14.4502162933,128.060516357,0.0204240009189,1.0,0.0,0.0,0.0,1.0,0.0,0.0,0.0,1.0,-36.8292694092,-2.43902444839,-1.76829278469,1.0,0.0,0.0,0.0,1.0,0.0,0.0,0.0,1.0,-0.325611425781,-1.6041151123,10.2232410889,1.0,0.0,0.0,0.0,1.0,0.0,0.0,0.0,1.0
1463845671522208512,602,1463845671494516020,,5.77795743942,-15.148979187,128.073547363,0.0204230006784,1.0,0.0,0.0,0.0,1.0,0.0,0.0,0.0,1.0,-40.1829299927,-5.42682933807,-2.56097555161,1.0,0.0,0.0,0.0,1.0,0.0,0.0,0.0,1.0,-0.325611425781,-1.49398183594,10.3237975586,1.0,0.0,0.0,0.0,1.0,0.0,0.0,0.0,1.0
1463845671523025479,603,1463845671514834823,,5.49511289597,-15.9191761017,128.093963623,0.0204050000757,1.0,0.0,0.0,0.0,1.0,0.0,0.0,0.0,1.0,-42.8658561707,-7.25609779358,-2.68292689323,1.0,0.0,0.0,0.0,1.0,0.0,0.0,0.0,1.0,-0.215478149414,-1.80522805176,10.405200415,1.0,0.0,0.0,0.0,1.0,0.0,0.0,0.0,1.0
1463845671561273747,604,1463845671535248677,,5.17880105972,-16.7057151794,128.138046265,0.0203859992325,1.0,0.0,0.0,0.0,1.0,0.0,0.0,0.0,1.0,-43.2926864624,-8.65853691101,-1.95121955872,1.0,0.0,0.0,0.0,1.0,0.0,0.0,0.0,1.0,-0.067037651051,-2.05901342773,10.4530844482,1.0,0.0,0.0,0.0,1.0,0.0,0.0,0.0,1.0
1463845671561510045,605,1463845671555715395,,4.88708543777,-17.4743366241,128.158050537,0.0204269997776,1.0,0.0,0.0,0.0,1.0,0.0,0.0,0.0,1.0,-41.4634170532,-8.10975551605,-3.04878044128,1.0,0.0,0.0,0.0,1.0,0.0,0.0,0.0,1.0,-0.196324536133,-2.30322199707,10.2136642822,1.0,0.0,0.0,0.0,1.0,0.0,0.0,0.0,1.0
1463845671603752940,606,1463845671576098780,,4.5698800087,-18.1677513123,128.161270142,0.0203910004348,1.0,0.0,0.0,0.0,1.0,0.0,0.0,0.0,1.0,-38.4146347046,-10.2439022064,-4.75609779358,1.0,0.0,0.0,0.0,1.0,0.0,0.0,0.0,1.0,-0.383072265625,-2.36068269078,10.3716815918,1.0,0.0,0.0,0.0,1.0,0.0,0.0,0.0,1.0
1463845671604101632,607,1463845671596562269,,4.21630144119,-18.7952899933,128.124740601,0.0204019993544,1.0,0.0,0.0,0.0,1.0,0.0,0.0,0.0,1.0,-33.9024391174,-11.8902444839,-7.37804937363,1.0,0.0,0.0,0.0,1.0,0.0,0.0,0.0,1.0,-0.435744702148,-2.65277543945,10.1466266357,1.0,0.0,0.0,0.0,1.0,0.0,0.0,0.0,1.0
1463845671651973919,608,1463845671616903780,,3.83097290993,-19.307308197,128.045623779,0.0204210001975,1.0,0.0,0.0,0.0,1.0,0.0,0.0,0.0,1.0,-27.9878063202,-11.7073173523,-9.63414573669,1.0,0.0,0.0,0.0,1.0,0.0,0.0,0.0,1.0,-0.196324536133,-2.81079274902,10.2184526855,1.0,0.0,0.0,0.0,1.0,0.0,0.0,0.0,1.0
1463845671652212718,609,1463845671637204354,,3.48639059067,-19.6809368134,127.929466248,0.0203970000148,1.0,0.0,0.0,0.0,1.0,0.0,0.0,0.0,1.0,-22.5609760284,-10.548781395,-11.341463089,1.0,0.0,0.0,0.0,1.0,0.0,0.0,0.0,1.0,-0.402225878906,-2.64798703613,10.2759135254,1.0,0.0,0.0,0.0,1.0,0.0,0.0,0.0,1.0
1463845671683213701,610,1463845671657581646,,3.17491936684,-19.930223465,127.780548096,0.0204169992357,1.0,0.0,0.0,0.0,1.0,0.0,0.0,0.0,1.0,-17.0121955872,-10.0,-12.9268293381,1.0,0.0,0.0,0.0,1.0,0.0,0.0,0.0,1.0,-0.646434448242,-2.56658417969,10.1514150391,1.0,0.0,0.0,0.0,1.0,0.0,0.0,0.0,1.0
1463845671683550883,611,1463845671677921334,,2.83453536034,-20.086101532,127.611831665,0.0203949995339,1.0,0.0,0.0,0.0,1.0,0.0,0.0,0.0,1.0,-12.9878053665,-10.0,-14.0243902206,1.0,0.0,0.0,0.0,1.0,0.0,0.0,0.0,1.0,-0.397437475586,-2.50912333984,10.1514150391,1.0,0.0,0.0,0.0,1.0,0.0,0.0,0.0,1.0
1463845671767502097,612,1463845671699028094,,2.57814526558,-20.1498317719,127.466247559,0.0204290002584,1.0,0.0,0.0,0.0,1.0,0.0,0.0,0.0,1.0,-6.7682929039,-6.28048801422,-11.341463089,1.0,0.0,0.0,0.0,1.0,0.0,0.0,0.0,1.0,-0.292092584273,-2.88740720215,10.1609918457,1.0,0.0,0.0,0.0,1.0,0.0,0.0,0.0,1.0
1463845671767570950,613,1463845671719054037,,2.40328168869,-20.0878772736,127.343261719,0.0204809997231,1.0,0.0,0.0,0.0,1.0,0.0,0.0,0.0,1.0,0.609756112099,-1.95121955872,-8.47560977936,1.0,0.0,0.0,0.0,1.0,0.0,0.0,0.0,1.0,-0.0526724365234,-3.15555778809,10.1609918457,1.0,0.0,0.0,0.0,1.0,0.0,0.0,0.0,1.0
1463845671767611991,614,1463845671739649295,,2.37575697899,-19.8695201874,127.217002869,0.0203310009092,1.0,0.0,0.0,0.0,1.0,0.0,0.0,0.0,1.0,8.17073154449,3.10975623131,-6.82926845551,1.0,0.0,0.0,0.0,1.0,0.0,0.0,0.0,1.0,-0.378283862305,-3.20344182129,10.4578728516,1.0,0.0,0.0,0.0,1.0,0.0,0.0,0.0,1.0
1463845671767650428,615,1463845671759725445,,2.41291451454,-19.515247345,127.115791321,0.0203970000148,1.0,0.0,0.0,0.0,1.0,0.0,0.0,0.0,1.0,15.6097564697,4.75609779358,-4.87804889679,1.0,0.0,0.0,0.0,1.0,0.0,0.0,0.0,1.0,-0.574608398438,-3.4428619873,10.8026378906,1.0,0.0,0.0,0.0,1.0,0.0,0.0,0.0,1.0
1463845671803421911,616,1463845671780268099,,2.48303556442,-19.0016937256,127.047462463,0.0204819999635,1.0,0.0,0.0,0.0,1.0,0.0,0.0,0.0,1.0,22.8658542633,5.18292713165,-3.04878044128,1.0,0.0,0.0,0.0,1.0,0.0,0.0,0.0,1.0,-0.713472094727,-3.3949779541,11.1569797363,1.0,0.0,0.0,0.0,1.0,0.0,0.0,0.0,1.0
