%time,field.header.seq,field.header.stamp,field.header.frame_id,field.orientation.x,field.orientation.y,field.orientation.z,field.orientation.w,field.orientation_covariance0,field.orientation_covariance1,field.orientation_covariance2,field.orientation_covariance3,field.orientation_covariance4,field.orientation_covariance5,field.orientation_covariance6,field.orientation_covariance7,field.orientation_covariance8,field.angular_velocity.x,field.angular_velocity.y,field.angular_velocity.z,field.angular_velocity_covariance0,field.angular_velocity_covariance1,field.angular_velocity_covariance2,field.angular_velocity_covariance3,field.angular_velocity_covariance4,field.angular_velocity_covariance5,field.angular_velocity_covariance6,field.angular_velocity_covariance7,field.angular_velocity_covariance8,field.linear_acceleration.x,field.linear_acceleration.y,field.linear_acceleration.z,field.linear_acceleration_covariance0,field.linear_acceleration_covariance1,field.linear_acceleration_covariance2,field.linear_acceleration_covariance3,field.linear_acceleration_covariance4,field.linear_acceleration_covariance5,field.linear_acceleration_covariance6,field.linear_acceleration_covariance7,field.linear_acceleration_covariance8
1463846104450942602,219,1463846104447480780,,12.9107666016,-2.90050721169,-135.265914917,0.0219880007207,1.0,0.0,0.0,0.0,1.0,0.0,0.0,0.0,1.0,-5.12195110321,24.5121955872,-11.5853662491,1.0,0.0,0.0,0.0,1.0,0.0,0.0,0.0,1.0,-1.0534486574,-1.20188930646,12.4690022461,1.0,0.0,0.0,0.0,1.0,0.0,0.0,0.0,1.0
1463846104466478564,220,1463846104464869106,,13.3994216919,-2.9047999382,-135.143371582,0.0188400000334,1.0,0.0,0.0,0.0,1.0,0.0,0.0,0.0,1.0,-4.75609779358,22.0731716156,-8.29268264771,1.0,0.0,0.0,0.0,1.0,0.0,0.0,0.0,1.0,-1.48919343262,-1.32638771973,12.1864864502,1.0,0.0,0.0,0.0,1.0,0.0,0.0,0.0,1.0
1463846104491290824,221,1463846104485752690,,13.7827005386,-2.87620949745,-134.962692261,0.0206770002842,1.0,0.0,0.0,0.0,1.0,0.0,0.0,0.0,1.0,-2.43902444839,13.9634151459,-6.21951246262,1.0,0.0,0.0,0.0,1.0,0.0,0.0,0.0,1.0,-1.71903679199,-1.61369191895,12.1338140137,1.0,0.0,0.0,0.0,1.0,0.0,0.0,0.0,1.0
1463846104515647636,222,1463846104508676389,,13.9697637558,-2.75312948227,-134.69128418,0.0201389994472,1.0,0.0,0.0,0.0,1.0,0.0,0.0,0.0,1.0,0.12195122242,7.62195110321,-2.19512200356,1.0,0.0,0.0,0.0,1.0,0.0,0.0,0.0,1.0,-1.12527478027,-1.38863696289,12.2152168701,1.0,0.0,0.0,0.0,1.0,0.0,0.0,0.0,1.0
1463846104528904274,223,1463846104527289972,,14.1287336349,-2.5969581604,-134.347961426,0.0204409994185,1.0,0.0,0.0,0.0,1.0,0.0,0.0,0.0,1.0,1.95121955872,5.42682933807,1.15853655338,1.0,0.0,0.0,0.0,1.0,0.0,0.0,0.0,1.0,-1.28329208984,-1.61848032227,12.1769096436,1.0,0.0,0.0,0.0,1.0,0.0,0.0,0.0,1.0
1463846104551318622,224,1463846104546763047,,14.208070755,-2.36327910423,-133.932723999,0.0204419996589,1.0,0.0,0.0,0.0,1.0,0.0,0.0,0.0,1.0,6.0365858078,0.0,4.57317066193,1.0,0.0,0.0,0.0,1.0,0.0,0.0,0.0,1.0,-1.62326872559,-1.84832368164,12.1002951904,1.0,0.0,0.0,0.0,1.0,0.0,0.0,0.0,1.0
1463846104572646925,225,1463846104567251701,,14.1723527908,-2.0293598175,-133.430297852,0.0203409995884,1.0,0.0,0.0,0.0,1.0,0.0,0.0,0.0,1.0,9.26829242706,-4.87804889679,8.41463470459,1.0,0.0,0.0,0.0,1.0,0.0,0.0,0.0,1.0,-1.47003981934,-1.65199914551,12.1721212402,1.0,0.0,0.0,0.0,1.0,0.0,0.0,0.0,1.0
1463846104590038844,226,1463846104587468909,,14.0258922577,-1.63466894627,-132.855270386,0.0203900001943,1.0,0.0,0.0,0.0,1.0,0.0,0.0,0.0,1.0,11.6463422775,-9.02439117432,11.7073173523,1.0,0.0,0.0,0.0,1.0,0.0,0.0,0.0,1.0,-1.22583125,-1.68551796875,12.5647703125,1.0,0.0,0.0,0.0,1.0,0.0,0.0,0.0,1.0
1463846104609502441,227,1463846104608109691,,13.8321495056,-1.17480111122,-132.249694824,0.0204440001398,1.0,0.0,0.0,0.0,1.0,0.0,0.0,0.0,1.0,14.9390249252,-14.1463422775,13.048781395,1.0,0.0,0.0,0.0,1.0,0.0,0.0,0.0,1.0,-1.83395847168,-1.66157595215,12.2678893066,1.0,0.0,0.0,0.0,1.0,0.0,0.0,0.0,1.0
1463846104629890787,228,1463846104628514860,,13.4646463394,-0.657047152519,-131.637359619,0.020408000797,1.0,0.0,0.0,0.0,1.0,0.0,0.0,0.0,1.0,18.1707305908,-19.6951236725,13.4756097794,1.0,0.0,0.0,0.0,1.0,0.0,0.0,0.0,1.0,-1.19231249982,-1.64242233887,12.4306950195,1.0,0.0,0.0,0.0,1.0,0.0,0.0,0.0,1.0
1463846104658993060,229,1463846104648986171,,13.1272773743,-0.081981934607,-130.977844238,0.0204240009189,1.0,0.0,0.0,0.0,1.0,0.0,0.0,0.0,1.0,20.4878044128,-16.0975608826,15.7926826477,1.0,0.0,0.0,0.0,1.0,0.0,0.0,0.0,1.0,-0.699106884766,-1.49398183594,12.4450602295,1.0,0.0,0.0,0.0,1.0,0.0,0.0,0.0,1.0
1463846104671545512,230,1463846104669275719,,12.8783578873,0.525485754013,-130.294265747,0.0203910004348,1.0,0.0,0.0,0.0,1.0,0.0,0.0,0.0,1.0,20.8536586761,-10.9756097794,16.7682933807,1.0,0.0,0.0,0.0,1.0,0.0,0.0,0.0,1.0,-0.512359155273,-1.07260241682,12.1433908203,1.0,0.0,0.0,0.0,1.0,0.0,0.0,0.0,1.0
1463846104692255406,231,1463846104689838744,,12.7358512878,1.08742320538,-129.6668396,0.020386999473,1.0,0.0,0.0,0.0,1.0,0.0,0.0,0.0,1.0,20.0,-7.43902492523,14.2073173523,1.0,0.0,0.0,0.0,1.0,0.0,0.0,0.0,1.0,-0.91458503418,-1.11569797363,12.4402718262,1.0,0.0,0.0,0.0,1.0,0.0,0.0,0.0,1.0
1463846104715166918,232,1463846104709817838,,12.5911388397,1.60691320896,-129.128982544,0.0204029995948,1.0,0.0,0.0,0.0,1.0,0.0,0.0,0.0,1.0,19.0243911743,-7.92682981491,9.93902492523,1.0,0.0,0.0,0.0,1.0,0.0,0.0,0.0,1.0,-1.01514150391,-1.01514150391,12.4785790527,1.0,0.0,0.0,0.0,1.0,0.0,0.0,0.0,1.0
1463846104733703109,233,1463846104730218215,,12.4632234573,2.06695270538,-128.663864136,0.0204310007393,1.0,0.0,0.0,0.0,1.0,0.0,0.0,0.0,1.0,16.341463089,-7.37804937363,6.28048801422,1.0,0.0,0.0,0.0,1.0,0.0,0.0,0.0,1.0,-1.07739082014,-0.77093293457,12.5168862793,1.0,0.0,0.0,0.0,1.0,0.0,0.0,0.0,1.0
1463846104761701891,234,1463846104750702494,,12.3426942825,2.42170858383,-128.253646851,0.0204140003771,1.0,0.0,0.0,0.0,1.0,0.0,0.0,0.0,1.0,13.1097564697,-5.97560977936,3.90243911743,1.0,0.0,0.0,0.0,1.0,0.0,0.0,0.0,1.0,-0.833182177734,-0.972045874023,12.6413847656,1.0,0.0,0.0,0.0,1.0,0.0,0.0,0.0,1.0
1463846104795636289,235,1463846104771036520,,12.3122215271,2.73000979424,-127.877723694,0.0203920006752,1.0,0.0,0.0,0.0,1.0,0.0,0.0,0.0,1.0,13.048781395,-2.5,2.5,1.0,0.0,0.0,0.0,1.0,0.0,0.0,0.0,1.0,-1.01992990723,-1.31202250977,12.5887123291,1.0,0.0,0.0,0.0,1.0,0.0,0.0,0.0,1.0
1463846104795954660,236,1463846104791421741,,12.3323497772,3.05372047424,-127.495895386,0.0204210001975,1.0,0.0,0.0,0.0,1.0,0.0,0.0,0.0,1.0,13.9634151459,0.426829278469,2.62195134163,1.0,0.0,0.0,0.0,1.0,0.0,0.0,0.0,1.0,-0.92416184082,-1.27850368652,12.4115414062,1.0,0.0,0.0,0.0,1.0,0.0,0.0,0.0,1.0
1463846104817170625,237,1463846104814549129,,12.4563970566,3.45257496834,-127.026145935,0.0233180001378,1.0,0.0,0.0,0.0,1.0,0.0,0.0,0.0,1.0,14.5731706619,3.65853667259,3.71951246262,1.0,0.0,0.0,0.0,1.0,0.0,0.0,0.0,1.0,-1.23061965332,-1.14921679688,12.5168862793,1.0,0.0,0.0,0.0,1.0,0.0,0.0,0.0,1.0
1463846104838336383,238,1463846104835087104,,12.5696210861,3.74952507019,-126.645095825,0.0175529997796,1.0,0.0,0.0,0.0,1.0,0.0,0.0,0.0,1.0,14.1463422775,5.91463422775,5.06097555161,1.0,0.0,0.0,0.0,1.0,0.0,0.0,0.0,1.0,-1.03908344744,-1.07739082014,12.3540805664,1.0,0.0,0.0,0.0,1.0,0.0,0.0,0.0,1.0
1463846104857033140,239,1463846104852892338,,12.7473144531,4.08340167999,-126.174957275,0.0204540006816,1.0,0.0,0.0,0.0,1.0,0.0,0.0,0.0,1.0,12.4390249252,7.98780536652,5.91463422775,1.0,0.0,0.0,0.0,1.0,0.0,0.0,0.0,1.0,-1.11569797363,-0.814028564453,12.018892334,1.0,0.0,0.0,0.0,1.0,0.0,0.0,0.0,1.0
1463846104876409240,240,1463846104873398231,,12.9333057404,4.35309076309,-125.71937561,0.0203079991043,1.0,0.0,0.0,0.0,1.0,0.0,0.0,0.0,1.0,10.1829271317,7.68292665482,5.48780488968,1.0,0.0,0.0,0.0,1.0,0.0,0.0,0.0,1.0,-1.32159931641,-0.900219824219,11.8752402344,1.0,0.0,0.0,0.0,1.0,0.0,0.0,0.0,1.0
1463846104897477399,241,1463846104895235938,,13.0672969818,4.55786895752,-125.244293213,0.021027000621,1.0,0.0,0.0,0.0,1.0,0.0,0.0,0.0,1.0,6.58536624908,6.0365858078,5.73170757294,1.0,0.0,0.0,0.0,1.0,0.0,0.0,0.0,1.0,-1.17794714373,-0.881066210937,12.2774661133,1.0,0.0,0.0,0.0,1.0,0.0,0.0,0.0,1.0
1463846104915902813,242,1463846104913906237,,13.2383079529,4.68377637863,-124.760452271,0.0197969991714,1.0,0.0,0.0,0.0,1.0,0.0,0.0,0.0,1.0,2.56097555161,8.41463470459,7.25609779358,1.0,0.0,0.0,0.0,1.0,0.0,0.0,0.0,1.0,-1.22583125,-0.799663354492,12.2583125,1.0,0.0,0.0,0.0,1.0,0.0,0.0,0.0,1.0
1463846104938358305,243,1463846104934562383,,13.3916940689,4.72860717773,-124.28011322,0.0203949995339,1.0,0.0,0.0,0.0,1.0,0.0,0.0,0.0,1.0,-0.487804889679,7.19512224197,6.70731735229,1.0,0.0,0.0,0.0,1.0,0.0,0.0,0.0,1.0,-1.26892687988,-0.991199487305,12.1864864502,1.0,0.0,0.0,0.0,1.0,0.0,0.0,0.0,1.0
1463846104956827519,244,1463846104954884170,,13.5145492554,4.71684455872,-123.845481873,0.0203889999539,1.0,0.0,0.0,0.0,1.0,0.0,0.0,0.0,1.0,-3.53658556938,4.69512224197,4.57317066193,1.0,0.0,0.0,0.0,1.0,0.0,0.0,0.0,1.0,-1.4604630127,-0.804451757813,11.9566430908,1.0,0.0,0.0,0.0,1.0,0.0,0.0,0.0,1.0
1463846104985290655,245,1463846104975227205,,13.5913772583,4.63015890121,-123.438438416,0.0204119998962,1.0,0.0,0.0,0.0,1.0,0.0,0.0,0.0,1.0,-6.09756088257,2.98780488968,3.59756112099,1.0,0.0,0.0,0.0,1.0,0.0,0.0,0.0,1.0,-1.34075292969,-0.991199487305,11.9757967041,1.0,0.0,0.0,0.0,1.0,0.0,0.0,0.0,1.0
1463846104997578483,246,1463846104995816584,,13.6634902954,4.50048398972,-123.026382446,0.0204099994153,1.0,0.0,0.0,0.0,1.0,0.0,0.0,0.0,1.0,-6.34146356583,3.84146332741,4.2682929039,1.0,0.0,0.0,0.0,1.0,0.0,0.0,0.0,1.0,-1.10612116699,-1.43652099609,11.9183358643,1.0,0.0,0.0,0.0,1.0,0.0,0.0,0.0,1.0
1463846105028636657,247,1463846105015827238,,13.7685861588,4.40384483337,-122.602516174,0.0204019993544,1.0,0.0,0.0,0.0,1.0,0.0,0.0,0.0,1.0,-5.73170757294,5.0,4.57317066193,1.0,0.0,0.0,0.0,1.0,0.0,0.0,0.0,1.0,-1.19710090314,-1.2497732666,11.6549736816,1.0,0.0,0.0,0.0,1.0,0.0,0.0,0.0,1.0
1463846105043053711,248,1463846105036605879,,13.9139127731,4.30167579651,-122.142097473,0.0204610005021,1.0,0.0,0.0,0.0,1.0,0.0,0.0,0.0,1.0,-5.48780488968,7.25609779358,6.34146356583,1.0,0.0,0.0,0.0,1.0,0.0,0.0,0.0,1.0,-1.18273554705,-1.49877023926,11.7938373779,1.0,0.0,0.0,0.0,1.0,0.0,0.0,0.0,1.0
1463846105059542181,249,1463846105057055628,,14.0954961777,4.24156141281,-121.642684937,0.0204920005053,1.0,0.0,0.0,0.0,1.0,0.0,0.0,0.0,1.0,-3.47560977936,8.23170757294,8.23170757294,1.0,0.0,0.0,0.0,1.0,0.0,0.0,0.0,1.0,-1.37427175293,-1.59932670898,11.5687824219,1.0,0.0,0.0,0.0,1.0,0.0,0.0,0.0,1.0
1463846105079374406,250,1463846105077416370,,14.2563419342,4.2077870369,-121.150344849,0.0203559994698,1.0,0.0,0.0,0.0,1.0,0.0,0.0,0.0,1.0,-2.5,7.86585378647,8.04878044128,1.0,0.0,0.0,0.0,1.0,0.0,0.0,0.0,1.0,-1.23540805664,-1.49398183594,11.152191333,1.0,0.0,0.0,0.0,1.0,0.0,0.0,0.0,1.0
1463846105099867539,251,1463846105097840026,,14.4024553299,4.18198060989,-120.704185486,0.0203389991075,1.0,0.0,0.0,0.0,1.0,0.0,0.0,0.0,1.0,-2.74390244484,6.21951246262,5.73170757294,1.0,0.0,0.0,0.0,1.0,0.0,0.0,0.0,1.0,-1.44130939941,-1.28329208984,11.2814782227,1.0,0.0,0.0,0.0,1.0,0.0,0.0,0.0,1.0
1463846105121012777,252,1463846105117927969,,14.4818172455,4.12359428406,-120.380554199,0.0203980002552,1.0,0.0,0.0,0.0,1.0,0.0,0.0,0.0,1.0,-2.31707310677,1.70731711388,0.365853667259,1.0,0.0,0.0,0.0,1.0,0.0,0.0,0.0,1.0,-1.52750065918,-1.32159931641,10.5632177246,1.0,0.0,0.0,0.0,1.0,0.0,0.0,0.0,1.0
1463846105140354920,253,1463846105138799261,,14.4594526291,4.04257726669,-120.19707489,0.0204189997166,1.0,0.0,0.0,0.0,1.0,0.0,0.0,0.0,1.0,-1.8902438879,-2.80487799644,-5.97560977936,1.0,0.0,0.0,0.0,1.0,0.0,0.0,0.0,1.0,-1.31681091309,-1.25456166992,10.2423947021,1.0,0.0,0.0,0.0,1.0,0.0,0.0,0.0,1.0
1463846105161912535,254,1463846105158814915,,14.3736724854,3.95288872719,-120.132659912,0.0204009991139,1.0,0.0,0.0,0.0,1.0,0.0,0.0,0.0,1.0,-0.304878056049,-4.45121955872,-11.341463089,1.0,0.0,0.0,0.0,1.0,0.0,0.0,0.0,1.0,-0.933738647461,-1.33117612305,9.94551369629,1.0,0.0,0.0,0.0,1.0,0.0,0.0,0.0,1.0
1463846105182799295,255,1463846105179278518,,14.2952699661,3.87976932526,-120.154212952,0.0204150006175,1.0,0.0,0.0,0.0,1.0,0.0,0.0,0.0,1.0,1.58536589146,-3.41463422775,-15.4878053665,1.0,0.0,0.0,0.0,1.0,0.0,0.0,0.0,1.0,-0.708683691406,-1.28808049316,9.48582756206,1.0,0.0,0.0,0.0,1.0,0.0,0.0,0.0,1.0
1463846105202646207,256,1463846105199473174,,14.2496290207,3.79510688782,-120.274261475,0.0203920006752,1.0,0.0,0.0,0.0,1.0,0.0,0.0,0.0,1.0,2.86585378647,-2.5,-20.0609760284,1.0,0.0,0.0,0.0,1.0,0.0,0.0,0.0,1.0,-0.708683691406,-1.32159931641,8.84896933594,1.0,0.0,0.0,0.0,1.0,0.0,0.0,0.0,1.0
1463846105255756869,257,1463846105221445927,,14.2042741776,3.72806119919,-120.517127991,0.0215559992939,1.0,0.0,0.0,0.0,1.0,0.0,0.0,0.0,1.0,4.69512224197,-3.90243911743,-25.3048782349,1.0,0.0,0.0,0.0,1.0,0.0,0.0,0.0,1.0,-0.876277807617,-1.22104284668,8.64785698101,1.0,0.0,0.0,0.0,1.0,0.0,0.0,0.0,1.0
1463846105256305282,258,1463846105240417045,,14.1345443726,3.67191553116,-120.781936646,0.0192690007389,1.0,0.0,0.0,0.0,1.0,0.0,0.0,0.0,1.0,6.21951246262,-3.23170733452,-27.5609760284,1.0,0.0,0.0,0.0,1.0,0.0,0.0,0.0,1.0,-0.493205541992,-1.33117612305,8.5520889146,1.0,0.0,0.0,0.0,1.0,0.0,0.0,0.0,1.0
1463846105289273369,259,1463846105261177144,,14.1431074142,3.64730262756,-121.058044434,0.0204199999571,1.0,0.0,0.0,0.0,1.0,0.0,0.0,0.0,1.0,7.80487823486,0.609756112099,-27.6219520569,1.0,0.0,0.0,0.0,1.0,0.0,0.0,0.0,1.0,-0.517147558594,-1.33117612305,8.56645412456,1.0,0.0,0.0,0.0,1.0,0.0,0.0,0.0,1.0
1463846105289322794,260,1463846105281418101,,14.2135906219,3.68878269196,-121.272994995,0.0204060003161,1.0,0.0,0.0,0.0,1.0,0.0,0.0,0.0,1.0,7.25609779358,5.06097555161,-25.7926845551,1.0,0.0,0.0,0.0,1.0,0.0,0.0,0.0,1.0,-0.354341845703,-0.876277807617,8.96389101563,1.0,0.0,0.0,0.0,1.0,0.0,0.0,0.0,1.0
1463846105307389161,261,1463846105301989875,,14.3797416687,3.66576743126,-121.423965454,0.0204140003771,1.0,0.0,0.0,0.0,1.0,0.0,0.0,0.0,1.0,5.06097555161,11.7073173523,-22.7439041138,1.0,0.0,0.0,0.0,1.0,0.0,0.0,0.0,1.0,-0.067037651051,-1.13963999023,8.82502731934,1.0,0.0,0.0,0.0,1.0,0.0,0.0,0.0,1.0
1463846105335057541,262,1463846105322165470,,14.7156629562,3.64707922935,-121.518806458,0.0205099992454,1.0,0.0,0.0,0.0,1.0,0.0,0.0,0.0,1.0,5.79268312454,17.0121955872,-20.0609760284,1.0,0.0,0.0,0.0,1.0,0.0,0.0,0.0,1.0,-0.555454785156,-1.27850368652,8.3749168227,1.0,0.0,0.0,0.0,1.0,0.0,0.0,0.0,1.0
1463846105353977411,263,1463846105342482725,,15.1438236237,3.64024114609,-121.615318298,0.0202980004251,1.0,0.0,0.0,0.0,1.0,0.0,0.0,0.0,1.0,6.34146356583,15.0609760284,-20.0,1.0,0.0,0.0,0.0,1.0,0.0,0.0,0.0,1.0,-1.54665427246,-1.23540805664,7.95353791504,1.0,0.0,0.0,0.0,1.0,0.0,0.0,0.0,1.0
1463846105399137966,264,1463846105362925912,,15.3819160461,3.69784355164,-121.65184021,0.020428000018,1.0,0.0,0.0,0.0,1.0,0.0,0.0,0.0,1.0,4.32926845551,7.19512224197,-17.7439022064,1.0,0.0,0.0,0.0,1.0,0.0,0.0,0.0,1.0,-1.42694418945,-0.569819995117,8.0397291748,1.0,0.0,0.0,0.0,1.0,0.0,0.0,0.0,1.0
1463846105399404881,265,1463846105385465982,,15.4995269775,3.72571372986,-121.550361633,0.0203879997134,1.0,0.0,0.0,0.0,1.0,0.0,0.0,0.0,1.0,0.731707334518,6.70731735229,-11.2804880142,1.0,0.0,0.0,0.0,1.0,0.0,0.0,0.0,1.0,-0.732625708008,-0.497993945312,8.03015236816,1.0,0.0,0.0,0.0,1.0,0.0,0.0,0.0,1.0
1463846105411791662,266,1463846105404615790,,15.6056785583,3.73045229912,-121.321983337,0.0212489999831,1.0,0.0,0.0,0.0,1.0,0.0,0.0,0.0,1.0,0.0,6.7682929039,-5.18292713165,1.0,0.0,0.0,0.0,1.0,0.0,0.0,0.0,1.0,-0.656011254883,-0.76614453125,7.79073220215,1.0,0.0,0.0,0.0,1.0,0.0,0.0,0.0,1.0
1463846105426446154,267,1463846105424505721,,15.7331886292,3.77084040642,-121.021148682,0.0195560008287,1.0,0.0,0.0,0.0,1.0,0.0,0.0,0.0,1.0,3.04878044128,7.31707334518,-0.0609756112099,1.0,0.0,0.0,0.0,1.0,0.0,0.0,0.0,1.0,-0.814028564453,-1.09654436035,7.51779321289,1.0,0.0,0.0,0.0,1.0,0.0,0.0,0.0,1.0
1463846105450032010,268,1463846105444541947,,15.8077049255,3.96588397026,-120.590820312,0.0204109996557,1.0,0.0,0.0,0.0,1.0,0.0,0.0,0.0,1.0,5.06097555161,5.12195110321,4.45121955872,1.0,0.0,0.0,0.0,1.0,0.0,0.0,0.0,1.0,-0.799663354492,-0.531512805087,7.47469758301,1.0,0.0,0.0,0.0,1.0,0.0,0.0,0.0,1.0
1463846105466792656,269,1463846105464922532,,15.8600740433,4.2082233429,-120.049728394,0.0204000007361,1.0,0.0,0.0,0.0,1.0,0.0,0.0,0.0,1.0,5.06097555161,7.01219511032,9.26829242706,1.0,0.0,0.0,0.0,1.0,0.0,0.0,0.0,1.0,-0.478840332031,-0.397437475586,7.64708010254,1.0,0.0,0.0,0.0,1.0,0.0,0.0,0.0,1.0
1463846105496338919,270,1463846105485269734,,15.9309101105,4.44645881653,-119.445526123,0.020433999598,1.0,0.0,0.0,0.0,1.0,0.0,0.0,0.0,1.0,5.67073154449,4.39024400711,12.8048782349,1.0,0.0,0.0,0.0,1.0,0.0,0.0,0.0,1.0,-1.02471831055,-0.61770402832,7.69017573242,1.0,0.0,0.0,0.0,1.0,0.0,0.0,0.0,1.0
1463846105507946152,271,1463846105505963169,,15.8721132278,4.71579790115,-118.817474365,0.0203930009156,1.0,0.0,0.0,0.0,1.0,0.0,0.0,0.0,1.0,7.62195110321,-1.40243899822,14.6341466904,1.0,0.0,0.0,0.0,1.0,0.0,0.0,0.0,1.0,-1.02471831055,-0.718260498047,7.97269152832,1.0,0.0,0.0,0.0,1.0,0.0,0.0,0.0,1.0
1463846105529810368,272,1463846105526303392,,15.6851291656,5.07697153091,-118.123092651,0.0205140002072,1.0,0.0,0.0,0.0,1.0,0.0,0.0,0.0,1.0,9.75609779358,-2.01219511032,17.1951217651,1.0,0.0,0.0,0.0,1.0,0.0,0.0,0.0,1.0,-0.277727392578,-0.46447512207,8.30787917622,1.0,0.0,0.0,0.0,1.0,0.0,0.0,0.0,1.0
1463846105557113556,273,1463846105546295610,,15.4073133469,5.56951189041,-117.419593811,0.0202750004828,1.0,0.0,0.0,0.0,1.0,0.0,0.0,0.0,1.0,9.39024448395,3.59756112099,15.548781395,1.0,0.0,0.0,0.0,1.0,0.0,0.0,0.0,1.0,1.1875240965,0.593762048251,7.53694682617,1.0,0.0,0.0,0.0,1.0,0.0,0.0,0.0,1.0
1463846105567989469,274,1463846105566708381,,15.3686132431,6.24775791168,-116.801139832,0.020428000018,1.0,0.0,0.0,0.0,1.0,0.0,0.0,0.0,1.0,19.0853652954,14.0853662491,10.0,1.0,0.0,0.0,0.0,1.0,0.0,0.0,0.0,1.0,0.938527050781,0.651222851562,6.73728347168,1.0,0.0,0.0,0.0,1.0,0.0,0.0,0.0,1.0
1463846105589686974,275,1463846105587163026,,15.5699367523,6.59045553207,-116.476669312,0.0203920006752,1.0,0.0,0.0,0.0,1.0,0.0,0.0,0.0,1.0,12.1341466904,16.5853652954,-2.86585378647,1.0,0.0,0.0,0.0,1.0,0.0,0.0,0.0,1.0,-0.0861912597656,0.0335188255255,7.79552060547,1.0,0.0,0.0,0.0,1.0,0.0,0.0,0.0,1.0
1463846105609450556,276,1463846105607568922,,15.8548669815,6.78765535355,-116.267059326,0.0204130001366,1.0,0.0,0.0,0.0,1.0,0.0,0.0,0.0,1.0,7.86585378647,19.2073173523,-8.35365867615,1.0,0.0,0.0,0.0,1.0,0.0,0.0,0.0,1.0,-0.258573779297,-0.134075302102,8.40843564595,1.0,0.0,0.0,0.0,1.0,0.0,0.0,0.0,1.0
1463846105630963017,277,1463846105628257879,,16.1634616852,6.96076726913,-116.126625061,0.0204140003771,1.0,0.0,0.0,0.0,1.0,0.0,0.0,0.0,1.0,9.87804889679,15.7317075729,-10.6097564697,1.0,0.0,0.0,0.0,1.0,0.0,0.0,0.0,1.0,-1.00077629395,-0.497993945312,8.8154505127,1.0,0.0,0.0,0.0,1.0,0.0,0.0,0.0,1.0
1463846105660482667,278,1463846105649633263,,16.3605480194,7.1848025322,-115.946907043,0.0211149994284,1.0,0.0,0.0,0.0,1.0,0.0,0.0,0.0,1.0,10.7926826477,9.75609779358,-8.5365858078,1.0,0.0,0.0,0.0,1.0,0.0,0.0,0.0,1.0,-1.13485158691,-0.359130249023,8.91600698242,1.0,0.0,0.0,0.0,1.0,0.0,0.0,0.0,1.0
1463846105673992470,279,1463846105669348983,,16.3305397034,7.40846729279,-115.744293213,0.0198129992932,1.0,0.0,0.0,0.0,1.0,0.0,0.0,0.0,1.0,13.9634151459,4.20731735229,-5.30487823486,1.0,0.0,0.0,0.0,1.0,0.0,0.0,0.0,1.0,-0.359130249023,-0.852335791016,9.2942902602,1.0,0.0,0.0,0.0,1.0,0.0,0.0,0.0,1.0
1463846105697612492,280,1463846105691267051,,16.3915138245,7.75690793991,-115.399177551,0.0203189998865,1.0,0.0,0.0,0.0,1.0,0.0,0.0,0.0,1.0,15.0609760284,4.51219558716,0.243902444839,1.0,0.0,0.0,0.0,1.0,0.0,0.0,0.0,1.0,-1.23540805664,-0.330399829102,9.36611631001,1.0,0.0,0.0,0.0,1.0,0.0,0.0,0.0,1.0
1463846105711604148,281,1463846105709618093,,16.3395271301,7.92568826675,-114.973258972,0.0203859992325,1.0,0.0,0.0,0.0,1.0,0.0,0.0,0.0,1.0,6.58536624908,1.58536589146,4.81707286835,1.0,0.0,0.0,0.0,1.0,0.0,0.0,0.0,1.0,-1.01514150391,-0.593762048251,10.5009684814,1.0,0.0,0.0,0.0,1.0,0.0,0.0,0.0,1.0
1463846105751946797,282,1463846105731101024,,16.2482261658,8.16617488861,-114.443412781,0.0204140003771,1.0,0.0,0.0,0.0,1.0,0.0,0.0,0.0,1.0,7.80487823486,-2.13414645195,9.93902492523,1.0,0.0,0.0,0.0,1.0,0.0,0.0,0.0,1.0,-1.36469494629,-0.363918652344,9.56244201519,1.0,0.0,0.0,0.0,1.0,0.0,0.0,0.0,1.0
1463846105752454638,283,1463846105750727633,,16.0298862457,8.23304271698,-113.886795044,0.0204099994153,1.0,0.0,0.0,0.0,1.0,0.0,0.0,0.0,1.0,2.62195134163,-5.79268312454,12.8048782349,1.0,0.0,0.0,0.0,1.0,0.0,0.0,0.0,1.0,-0.861912597656,-0.881066210937,8.69095202637,1.0,0.0,0.0,0.0,1.0,0.0,0.0,0.0,1.0
1463846105772761425,284,1463846105770955778,,15.704577446,8.32996273041,-113.296089172,0.020408000797,1.0,0.0,0.0,0.0,1.0,0.0,0.0,0.0,1.0,-1.58536589146,-10.0609760284,13.4756097794,1.0,0.0,0.0,0.0,1.0,0.0,0.0,0.0,1.0,-0.837970581055,0.00957680664062,9.94551369629,1.0,0.0,0.0,0.0,1.0,0.0,0.0,0.0,1.0
1463846105793247005,285,1463846105791258450,,16.0739307404,8.00022697449,-112.79499054,0.0203970000148,1.0,0.0,0.0,0.0,1.0,0.0,0.0,0.0,1.0,-19.2682914734,1.03658533096,8.17073154449,1.0,0.0,0.0,0.0,1.0,0.0,0.0,0.0,1.0,-5.67904633789,-0.636857641602,11.1090957031,1.0,0.0,0.0,0.0,1.0,0.0,0.0,0.0,1.0
1463846105813763418,286,1463846105811629348,,15.7005138397,8.02063083649,-112.191703796,0.0204029995948,1.0,0.0,0.0,0.0,1.0,0.0,0.0,0.0,1.0,-13.658536911,-0.426829278469,10.3048782349,1.0,0.0,0.0,0.0,1.0,0.0,0.0,0.0,1.0,1.70945998535,1.72861359863,11.645396875,1.0,0.0,0.0,0.0,1.0,0.0,0.0,0.0,1.0
1463846105834069736,287,1463846105831940041,,15.7471704483,7.82933425903,-111.827896118,0.0204060003161,1.0,0.0,0.0,0.0,1.0,0.0,0.0,0.0,1.0,-4.32926845551,9.87804889679,2.19512200356,1.0,0.0,0.0,0.0,1.0,0.0,0.0,0.0,1.0,-0.114921679688,-1.77170922852,11.1186725098,1.0,0.0,0.0,0.0,1.0,0.0,0.0,0.0,1.0
1463846105854281787,288,1463846105852331511,,15.9161396027,7.87282085419,-111.507537842,0.0204009991139,1.0,0.0,0.0,0.0,1.0,0.0,0.0,0.0,1.0,1.8902438879,12.3780488968,-1.8292683363,1.0,0.0,0.0,0.0,1.0,0.0,0.0,0.0,1.0,-0.727837304687,-0.521935925381,10.1226846191,1.0,0.0,0.0,0.0,1.0,0.0,0.0,0.0,1.0
1463846105875167037,289,1463846105873005625,,16.1284370422,7.97599363327,-111.223731995,0.0204150006175,1.0,0.0,0.0,0.0,1.0,0.0,0.0,0.0,1.0,3.90243911743,8.84146404266,-3.47560977936,1.0,0.0,0.0,0.0,1.0,0.0,0.0,0.0,1.0,-1.68072956543,-0.268150604204,9.65342167827,1.0,0.0,0.0,0.0,1.0,0.0,0.0,0.0,1.0
1463846105898305414,290,1463846105893881032,,16.1730155945,8.08111286163,-110.916397095,0.0204450003803,1.0,0.0,0.0,0.0,1.0,0.0,0.0,0.0,1.0,4.20731735229,2.25609779358,-1.2804877758,1.0,0.0,0.0,0.0,1.0,0.0,0.0,0.0,1.0,-1.45088620605,-0.344765039063,9.5193463853,1.0,0.0,0.0,0.0,1.0,0.0,0.0,0.0,1.0
1463846105915285581,291,1463846105913574096,,16.1114730835,8.21669864655,-110.582542419,0.0203789994121,1.0,0.0,0.0,0.0,1.0,0.0,0.0,0.0,1.0,5.79268312454,-3.90243911743,1.03658533096,1.0,0.0,0.0,0.0,1.0,0.0,0.0,0.0,1.0,-1.69988317871,-0.421379492187,9.67257470703,1.0,0.0,0.0,0.0,1.0,0.0,0.0,0.0,1.0
1463846105940475011,292,1463846105934531635,,15.9167776108,8.42044258118,-110.156738281,0.0204130001366,1.0,0.0,0.0,0.0,1.0,0.0,0.0,0.0,1.0,7.92682981491,-6.34146356583,5.73170757294,1.0,0.0,0.0,0.0,1.0,0.0,0.0,0.0,1.0,-1.14442839355,-0.397437475586,10.0939541992,1.0,0.0,0.0,0.0,1.0,0.0,0.0,0.0,1.0
1463846105957211386,293,1463846105954940969,,15.7192564011,8.70404911041,-109.6171875,0.0204249992967,1.0,0.0,0.0,0.0,1.0,0.0,0.0,0.0,1.0,8.84146404266,-7.25609779358,10.7926826477,1.0,0.0,0.0,0.0,1.0,0.0,0.0,0.0,1.0,-1.40779057617,-0.0718260498047,10.0077629395,1.0,0.0,0.0,0.0,1.0,0.0,0.0,0.0,1.0
1463846106012627673,294,1463846105975118282,,15.4962663651,8.98416996002,-108.993133545,0.0203980002552,1.0,0.0,0.0,0.0,1.0,0.0,0.0,0.0,1.0,6.58536624908,-7.01219511032,14.5121955872,1.0,0.0,0.0,0.0,1.0,0.0,0.0,0.0,1.0,-1.23061965332,0.181959326172,9.95509050293,1.0,0.0,0.0,0.0,1.0,0.0,0.0,0.0,1.0
1463846106014232913,295,1463846105995470692,,15.2751426697,9.19886493683,-108.366424561,0.0204019993544,1.0,0.0,0.0,0.0,1.0,0.0,0.0,0.0,1.0,4.02439022064,-7.50000047684,14.8780498505,1.0,0.0,0.0,0.0,1.0,0.0,0.0,0.0,1.0,-1.32159931641,0.124498486328,9.92157167969,1.0,0.0,0.0,0.0,1.0,0.0,0.0,0.0,1.0
1463846106021813037,296,1463846106016140274,,15.0121889114,9.37875938416,-107.759941101,0.0204300004989,1.0,0.0,0.0,0.0,1.0,0.0,0.0,0.0,1.0,2.92682933807,-7.19512224197,13.9024391174,1.0,0.0,0.0,0.0,1.0,0.0,0.0,0.0,1.0,-0.857124194336,0.129286889648,9.95987890625,1.0,0.0,0.0,0.0,1.0,0.0,0.0,0.0,1.0
1463846106297304485,297,1463846106036603459,,14.8309783936,9.52410316467,-107.185333252,0.0204300004989,1.0,0.0,0.0,0.0,1.0,0.0,0.0,0.0,1.0,2.56097555161,-3.35365867615,11.9512195587,1.0,0.0,0.0,0.0,1.0,0.0,0.0,0.0,1.0,-0.818816967773,0.0143652099609,10.1562034424,1.0,0.0,0.0,0.0,1.0,0.0,0.0,0.0,1.0
1463846106297717851,298,1463846106056990711,,14.6857652664,9.74338245392,-106.560050964,0.0204450003803,1.0,0.0,0.0,0.0,1.0,0.0,0.0,0.0,1.0,4.39024400711,3.04878044128,12.9268293381,1.0,0.0,0.0,0.0,1.0,0.0,0.0,0.0,1.0,-0.00957680664062,0.296881024126,10.793061084,1.0,0.0,0.0,0.0,1.0,0.0,0.0,0.0,1.0
1463846106299528081,299,1463846106077450354,,14.8209323883,9.92501449585,-106.060050964,0.0203380007297,1.0,0.0,0.0,0.0,1.0,0.0,0.0,0.0,1.0,4.75609779358,10.9146347046,5.79268312454,1.0,0.0,0.0,0.0,1.0,0.0,0.0,0.0,1.0,-0.900219824219,0.201112939453,10.4004120117,1.0,0.0,0.0,0.0,1.0,0.0,0.0,0.0,1.0
1463846106299892909,300,1463846106097663968,,14.9982748032,10.0627975464,-105.578262329,0.0204009991139,1.0,0.0,0.0,0.0,1.0,0.0,0.0,0.0,1.0,3.23170733452,13.5975618362,4.45121955872,1.0,0.0,0.0,0.0,1.0,0.0,0.0,0.0,1.0,-0.775721337891,0.143652099609,10.3477395752,1.0,0.0,0.0,0.0,1.0,0.0,0.0,0.0,1.0
1463846106299964312,301,1463846106117917787,,15.2548160553,10.1631031036,-105.194190979,0.0204109996557,1.0,0.0,0.0,0.0,1.0,0.0,0.0,0.0,1.0,3.10975623131,16.6463413239,-0.670731723309,1.0,0.0,0.0,0.0,1.0,0.0,0.0,0.0,1.0,-0.823605371094,0.0622492431641,10.539275708,1.0,0.0,0.0,0.0,1.0,0.0,0.0,0.0,1.0
1463846106300006497,302,1463846106138566225,,15.5049514771,10.2408466339,-104.923370361,0.0204819999635,1.0,0.0,0.0,0.0,1.0,0.0,0.0,0.0,1.0,4.87804889679,12.2560977936,-4.93902444839,1.0,0.0,0.0,0.0,1.0,0.0,0.0,0.0,1.0,-1.48919343262,-0.229843359375,10.658985791,1.0,0.0,0.0,0.0,1.0,0.0,0.0,0.0,1.0
1463846106300111961,303,1463846106158944258,,15.6713237762,10.3741455078,-104.618484497,0.0203430000693,1.0,0.0,0.0,0.0,1.0,0.0,0.0,0.0,1.0,5.91463422775,11.5243911743,-3.41463422775,1.0,0.0,0.0,0.0,1.0,0.0,0.0,0.0,1.0,-0.967257470703,0.0335188255255,10.6637741943,1.0,0.0,0.0,0.0,1.0,0.0,0.0,0.0,1.0
1463846106300512151,304,1463846106179343227,,15.8858499527,10.5140142441,-104.322647095,0.0204850006849,1.0,0.0,0.0,0.0,1.0,0.0,0.0,0.0,1.0,6.70731735229,10.1219511032,-3.59756112099,1.0,0.0,0.0,0.0,1.0,0.0,0.0,0.0,1.0,-1.70467158203,-0.0430956298828,10.6637741943,1.0,0.0,0.0,0.0,1.0,0.0,0.0,0.0,1.0
1463846106300963798,305,1463846106199839171,,16.0495510101,10.6647911072,-103.934288025,0.0203380007297,1.0,0.0,0.0,0.0,1.0,0.0,0.0,0.0,1.0,7.92682981491,11.2804880142,1.2804877758,1.0,0.0,0.0,0.0,1.0,0.0,0.0,0.0,1.0,-1.23540805664,-0.407014282227,10.8313683105,1.0,0.0,0.0,0.0,1.0,0.0,0.0,0.0,1.0
1463846106301361540,306,1463846106220106740,,16.2511806488,10.93567276,-103.46635437,0.020428000018,1.0,0.0,0.0,0.0,1.0,0.0,0.0,0.0,1.0,10.548781395,12.2560977936,4.14634132385,1.0,0.0,0.0,0.0,1.0,0.0,0.0,0.0,1.0,-1.60890351563,0.0430956298828,11.0276928467,1.0,0.0,0.0,0.0,1.0,0.0,0.0,0.0,1.0
1463846106301757511,307,1463846106240342123,,16.4130439758,11.2529459,-102.958404541,0.0203680004925,1.0,0.0,0.0,0.0,1.0,0.0,0.0,0.0,1.0,11.6463422775,10.2439022064,6.28048801422,1.0,0.0,0.0,0.0,1.0,0.0,0.0,0.0,1.0,-1.73819040527,0.205901342773,10.8122146973,1.0,0.0,0.0,0.0,1.0,0.0,0.0,0.0,1.0
1463846106302256239,308,1463846106261023268,,16.5604114532,11.5773363113,-102.378578186,0.0204910002649,1.0,0.0,0.0,0.0,1.0,0.0,0.0,0.0,1.0,12.6829271317,12.1951217651,9.63414573669,1.0,0.0,0.0,0.0,1.0,0.0,0.0,0.0,1.0,-1.34554133301,-0.0909796630859,10.5057568848,1.0,0.0,0.0,0.0,1.0,0.0,0.0,0.0,1.0
1463846106943819238,309,1463846106281354688,,16.6959819794,11.956243515,-101.84841156,0.0203300006688,1.0,0.0,0.0,0.0,1.0,0.0,0.0,0.0,1.0,14.2073173523,7.43902492523,7.80487823486,1.0,0.0,0.0,0.0,1.0,0.0,0.0,0.0,1.0,-2.14520483363,0.31124621582,10.4818148682,1.0,0.0,0.0,0.0,1.0,0.0,0.0,0.0,1.0
1463846106943871892,310,1463846106301889485,,16.6927337646,12.3036327362,-101.332672119,0.0203970000148,1.0,0.0,0.0,0.0,1.0,0.0,0.0,0.0,1.0,13.048781395,3.71951246262,7.86585378647,1.0,0.0,0.0,0.0,1.0,0.0,0.0,0.0,1.0,-1.54186586914,0.335188232422,10.1609918457,1.0,0.0,0.0,0.0,1.0,0.0,0.0,0.0,1.0
1463846106943935431,311,1463846106321987426,,16.6700325012,12.6370277405,-100.805557251,0.0205179993063,1.0,0.0,0.0,0.0,1.0,0.0,0.0,0.0,1.0,13.2926826477,3.59756112099,8.59756088257,1.0,0.0,0.0,0.0,1.0,0.0,0.0,0.0,1.0,-1.44130939941,0.181959326172,10.2088758789,1.0,0.0,0.0,0.0,1.0,0.0,0.0,0.0,1.0
1463846106944049749,312,1463846106342344627,,16.6468009949,13.0241651535,-100.223434448,0.0202959999442,1.0,0.0,0.0,0.0,1.0,0.0,0.0,0.0,1.0,15.548781395,4.32926845551,11.4024391174,1.0,0.0,0.0,0.0,1.0,0.0,0.0,0.0,1.0,-1.43173259277,0.186747729492,10.1322614258,1.0,0.0,0.0,0.0,1.0,0.0,0.0,0.0,1.0
1463846106944112350,313,1463846106362789219,,16.6841716766,13.4973754883,-99.5101470947,0.0204249992967,1.0,0.0,0.0,0.0,1.0,0.0,0.0,0.0,1.0,16.6463413239,8.5365858078,16.0975608826,1.0,0.0,0.0,0.0,1.0,0.0,0.0,0.0,1.0,-1.44130939941,0.474051928711,9.88805285645,1.0,0.0,0.0,0.0,1.0,0.0,0.0,0.0,1.0
1463846106944170733,314,1463846106383252404,,16.7536182404,14.0035514832,-98.7473678589,0.0204089991748,1.0,0.0,0.0,0.0,1.0,0.0,0.0,0.0,1.0,17.8048782349,10.1219511032,18.1097564697,1.0,0.0,0.0,0.0,1.0,0.0,0.0,0.0,1.0,-1.55144267578,0.488417138672,9.62947966167,1.0,0.0,0.0,0.0,1.0,0.0,0.0,0.0,1.0
1463846106944283384,315,1463846106403597887,,16.7603187561,14.5358448029,-98.0021972656,0.0204019993544,1.0,0.0,0.0,0.0,1.0,0.0,0.0,0.0,1.0,18.3536586761,5.30487823486,18.1097564697,1.0,0.0,0.0,0.0,1.0,0.0,0.0,0.0,1.0,-1.85311208496,0.713472094727,9.29907866352,1.0,0.0,0.0,0.0,1.0,0.0,0.0,0.0,1.0
1463846106944347027,316,1463846106424045864,,16.6645812988,15.0460882187,-97.321647644,0.0204130001366,1.0,0.0,0.0,0.0,1.0,0.0,0.0,0.0,1.0,17.8658542633,-0.670731723309,16.4024391174,1.0,0.0,0.0,0.0,1.0,0.0,0.0,0.0,1.0,-1.93930334473,0.842758984375,9.13627353516,1.0,0.0,0.0,0.0,1.0,0.0,0.0,0.0,1.0
1463846106944387858,317,1463846106444610139,,16.4076690674,15.511929512,-96.6608963013,0.0204050000757,1.0,0.0,0.0,0.0,1.0,0.0,0.0,0.0,1.0,17.317073822,-5.24390268326,17.134147644,1.0,0.0,0.0,0.0,1.0,0.0,0.0,0.0,1.0,-1.38384855957,0.713472094727,8.99262143555,1.0,0.0,0.0,0.0,1.0,0.0,0.0,0.0,1.0
1463846106944434471,318,1463846106464991921,,16.147808075,15.9724855423,-95.95652771,0.0204409994185,1.0,0.0,0.0,0.0,1.0,0.0,0.0,0.0,1.0,17.8658542633,-4.81707286835,19.5121955872,1.0,0.0,0.0,0.0,1.0,0.0,0.0,0.0,1.0,-1.42215578613,0.579396801758,9.18894597168,1.0,0.0,0.0,0.0,1.0,0.0,0.0,0.0,1.0
1463846106944471969,319,1463846106485338497,,15.830956459,16.4463634491,-95.2466812134,0.020380999893,1.0,0.0,0.0,0.0,1.0,0.0,0.0,0.0,1.0,17.2560977936,-5.67073154449,19.7560977936,1.0,0.0,0.0,0.0,1.0,0.0,0.0,0.0,1.0,-1.13485158691,0.9193734375,9.30865547017,1.0,0.0,0.0,0.0,1.0,0.0,0.0,0.0,1.0
1463846106944527331,320,1463846106505689917,,15.4771566391,16.8944892883,-94.5578308105,0.0204329993576,1.0,0.0,0.0,0.0,1.0,0.0,0.0,0.0,1.0,17.8048782349,-4.57317066193,18.7804889679,1.0,0.0,0.0,0.0,1.0,0.0,0.0,0.0,1.0,-0.61770402832,0.799663354492,9.70130512695,1.0,0.0,0.0,0.0,1.0,0.0,0.0,0.0,1.0
1463846106944563319,321,1463846106526615894,,15.2457046509,17.3255062103,-93.9554290771,0.0203889999539,1.0,0.0,0.0,0.0,1.0,0.0,0.0,0.0,1.0,17.3780498505,-1.2195122242,13.2926826477,1.0,0.0,0.0,0.0,1.0,0.0,0.0,0.0,1.0,-0.804451757813,1.02471831055,9.52413478862,1.0,0.0,0.0,0.0,1.0,0.0,0.0,0.0,1.0
1463846106944634618,322,1463846106546568790,,15.0485134125,17.7331733704,-93.429397583,0.0203879997134,1.0,0.0,0.0,0.0,1.0,0.0,0.0,0.0,1.0,16.8292694092,-1.70731711388,9.51219558716,1.0,0.0,0.0,0.0,1.0,0.0,0.0,0.0,1.0,-0.995987890625,1.19710090314,9.61990285503,1.0,0.0,0.0,0.0,1.0,0.0,0.0,0.0,1.0
1463846106944675450,323,1463846106566896408,,14.8783369064,18.0779495239,-92.9005126953,0.0204290002584,1.0,0.0,0.0,0.0,1.0,0.0,0.0,0.0,1.0,15.4268302917,0.914634168148,9.20731735229,1.0,0.0,0.0,0.0,1.0,0.0,0.0,0.0,1.0,-0.775721337891,0.991199487305,9.82101520996,1.0,0.0,0.0,0.0,1.0,0.0,0.0,0.0,1.0
1463846106944709875,324,1463846106587426049,,14.7676849365,18.4095726013,-92.3521881104,0.0204370003194,1.0,0.0,0.0,0.0,1.0,0.0,0.0,0.0,1.0,14.4512205124,0.975609779358,10.0609760284,1.0,0.0,0.0,0.0,1.0,0.0,0.0,0.0,1.0,-1.30723410645,1.04387185076,9.61032604839,1.0,0.0,0.0,0.0,1.0,0.0,0.0,0.0,1.0
1463846106944752321,325,1463846106607965116,,14.5961265564,18.7102870941,-91.8165206909,0.0203660000116,1.0,0.0,0.0,0.0,1.0,0.0,0.0,0.0,1.0,12.8658542633,-1.64634156227,10.3048782349,1.0,0.0,0.0,0.0,1.0,0.0,0.0,0.0,1.0,-1.2497732666,1.16837033709,9.66299848491,1.0,0.0,0.0,0.0,1.0,0.0,0.0,0.0,1.0
1463846106944788205,326,1463846106628156959,,14.3916625977,18.9467544556,-91.2560348511,0.0204050000757,1.0,0.0,0.0,0.0,1.0,0.0,0.0,0.0,1.0,9.45121955872,-2.5,11.7682924271,1.0,0.0,0.0,0.0,1.0,0.0,0.0,0.0,1.0,-1.1875240965,1.22583125,9.64384487163,1.0,0.0,0.0,0.0,1.0,0.0,0.0,0.0,1.0
1463846106945055484,327,1463846106648998721,,14.1402616501,19.0960330963,-90.7083282471,0.0204590000212,1.0,0.0,0.0,0.0,1.0,0.0,0.0,0.0,1.0,6.0365858078,-4.63414621353,11.9512195587,1.0,0.0,0.0,0.0,1.0,0.0,0.0,0.0,1.0,-1.13006318359,1.15879360352,9.64384487163,1.0,0.0,0.0,0.0,1.0,0.0,0.0,0.0,1.0
1463846106945182041,328,1463846106669219209,,13.8389253616,19.1841773987,-90.2227935791,0.0203910004348,1.0,0.0,0.0,0.0,1.0,0.0,0.0,0.0,1.0,3.90243911743,-8.47560977936,10.2439022064,1.0,0.0,0.0,0.0,1.0,0.0,0.0,0.0,1.0,-1.22104284668,1.20667770978,9.81143840332,1.0,0.0,0.0,0.0,1.0,0.0,0.0,0.0,1.0
1463846106945253705,329,1463846106689585211,,13.4713659286,19.2224292755,-89.7798995972,0.0203740000725,1.0,0.0,0.0,0.0,1.0,0.0,0.0,0.0,1.0,1.70731711388,-10.7317075729,8.78048801422,1.0,0.0,0.0,0.0,1.0,0.0,0.0,0.0,1.0,-0.905008227539,1.32159931641,9.95509050293,1.0,0.0,0.0,0.0,1.0,0.0,0.0,0.0,1.0
1463846106945291255,330,1463846106709718255,,13.1002426147,19.1940250397,-89.3482131958,0.0204199999571,1.0,0.0,0.0,0.0,1.0,0.0,0.0,0.0,1.0,0.609756112099,-10.548781395,8.5365858078,1.0,0.0,0.0,0.0,1.0,0.0,0.0,0.0,1.0,-0.76135612793,0.991199487305,10.0939541992,1.0,0.0,0.0,0.0,1.0,0.0,0.0,0.0,1.0
1463846106953123295,331,1463846106730143786,,12.7649698257,19.1766834259,-88.8942565918,0.0204140003771,1.0,0.0,0.0,0.0,1.0,0.0,0.0,0.0,1.0,0.731707334518,-8.59756088257,8.84146404266,1.0,0.0,0.0,0.0,1.0,0.0,0.0,0.0,1.0,-0.694318481445,1.03908344744,10.0077629395,1.0,0.0,0.0,0.0,1.0,0.0,0.0,0.0,1.0
1463846106953200115,332,1463846106750684832,,12.4742002487,19.1760540009,-88.3899612427,0.0204060003161,1.0,0.0,0.0,0.0,1.0,0.0,0.0,0.0,1.0,0.12195122242,-5.12195110321,9.87804889679,1.0,0.0,0.0,0.0,1.0,0.0,0.0,0.0,1.0,-0.512359155273,1.24019645996,10.0748005859,1.0,0.0,0.0,0.0,1.0,0.0,0.0,0.0,1.0
1463846106953636918,333,1463846106770963078,,12.2863855362,19.169883728,-87.8487701416,0.0204249992967,1.0,0.0,0.0,0.0,1.0,0.0,0.0,0.0,1.0,0.792682945728,-0.548780500889,10.3658542633,1.0,0.0,0.0,0.0,1.0,0.0,0.0,0.0,1.0,-0.627280834961,1.03429511719,10.3094323486,1.0,0.0,0.0,0.0,1.0,0.0,0.0,0.0,1.0
1463846106953708893,334,1463846106791469230,,12.1771535873,19.2335338593,-87.2569656372,0.0204009991139,1.0,0.0,0.0,0.0,1.0,0.0,0.0,0.0,1.0,3.53658556938,5.24390268326,10.8536586761,1.0,0.0,0.0,0.0,1.0,0.0,0.0,0.0,1.0,-0.335188232422,1.10612116699,10.553640918,1.0,0.0,0.0,0.0,1.0,0.0,0.0,0.0,1.0
1463846106953916332,335,1463846106811870283,,12.2393569946,19.386554718,-86.6396179199,0.0203930009156,1.0,0.0,0.0,0.0,1.0,0.0,0.0,0.0,1.0,5.60975599289,12.3780488968,9.14634132385,1.0,0.0,0.0,0.0,1.0,0.0,0.0,0.0,1.0,-0.560243188477,1.52750065918,10.5727945312,1.0,0.0,0.0,0.0,1.0,0.0,0.0,0.0,1.0
1463846106953966798,336,1463846106832106343,,12.4258537292,19.5313930511,-86.0811157227,0.0203920006752,1.0,0.0,0.0,0.0,1.0,0.0,0.0,0.0,1.0,5.48780488968,15.3658533096,5.0,1.0,0.0,0.0,0.0,1.0,0.0,0.0,0.0,1.0,-0.952892260742,1.6041151123,10.5632177246,1.0,0.0,0.0,0.0,1.0,0.0,0.0,0.0,1.0
1463846106954100751,337,1463846106852606141,,12.6522026062,19.6360931396,-85.575088501,0.0204310007393,1.0,0.0,0.0,0.0,1.0,0.0,0.0,0.0,1.0,4.2682929039,15.2439022064,2.37804889679,1.0,0.0,0.0,0.0,1.0,0.0,0.0,0.0,1.0,-1.21146604004,1.5562310791,10.4866032715,1.0,0.0,0.0,0.0,1.0,0.0,0.0,0.0,1.0
1463846106954148196,338,1463846106873050161,,12.8704767227,19.7101402283,-85.0924682617,0.0203820001334,1.0,0.0,0.0,0.0,1.0,0.0,0.0,0.0,1.0,3.29268312454,13.5365858078,1.95121955872,1.0,0.0,0.0,0.0,1.0,0.0,0.0,0.0,1.0,-1.4604630127,1.48919343262,10.4530844482,1.0,0.0,0.0,0.0,1.0,0.0,0.0,0.0,1.0
1463846106954202934,339,1463846106893628445,,13.0468578339,19.7981395721,-84.5782928467,0.0204160008579,1.0,0.0,0.0,0.0,1.0,0.0,0.0,0.0,1.0,3.10975623131,12.5,3.7804877758,1.0,0.0,0.0,0.0,1.0,0.0,0.0,0.0,1.0,-1.42694418945,1.59453830566,10.4818148682,1.0,0.0,0.0,0.0,1.0,0.0,0.0,0.0,1.0
1463846106954352093,340,1463846106913907993,,13.2036733627,19.910320282,-84.0004348755,0.0204240009189,1.0,0.0,0.0,0.0,1.0,0.0,0.0,0.0,1.0,3.53658556938,14.6341466904,6.21951246262,1.0,0.0,0.0,0.0,1.0,0.0,0.0,0.0,1.0,-1.06781401349,1.62326872559,10.5440641113,1.0,0.0,0.0,0.0,1.0,0.0,0.0,0.0,1.0
1463846106954552136,341,1463846106936538111,,13.4404602051,20.0525608063,-83.4091491699,0.0206090006977,1.0,0.0,0.0,0.0,1.0,0.0,0.0,0.0,1.0,5.48780488968,17.1951217651,5.85365867615,1.0,0.0,0.0,0.0,1.0,0.0,0.0,0.0,1.0,-1.33596452637,1.47961662598,10.4626612549,1.0,0.0,0.0,0.0,1.0,0.0,0.0,0.0,1.0
1463846107104488919,342,1463846106954775095,,13.6989784241,20.2606315613,-82.8091049194,0.02024500072,1.0,0.0,0.0,0.0,1.0,0.0,0.0,0.0,1.0,8.47560977936,18.4146347046,6.34146356583,1.0,0.0,0.0,0.0,1.0,0.0,0.0,0.0,1.0,-1.42694418945,1.47961662598,10.2519715088,1.0,0.0,0.0,0.0,1.0,0.0,0.0,0.0,1.0
1463846107104652974,343,1463846106974981886,,13.9414234161,20.5387172699,-82.2108230591,0.0203559994698,1.0,0.0,0.0,0.0,1.0,0.0,0.0,0.0,1.0,12.6829271317,18.0487823486,6.40243911743,1.0,0.0,0.0,0.0,1.0,0.0,0.0,0.0,1.0,-1.41257897949,1.35990654297,10.3860468018,1.0,0.0,0.0,0.0,1.0,0.0,0.0,0.0,1.0
1463846107104737345,344,1463846106995488090,,14.2181310654,20.9400177002,-81.5655822754,0.0204169992357,1.0,0.0,0.0,0.0,1.0,0.0,0.0,0.0,1.0,18.4146347046,21.5853652954,7.37804937363,1.0,0.0,0.0,0.0,1.0,0.0,0.0,0.0,1.0,-1.18273554705,1.2737152832,9.92636008301,1.0,0.0,0.0,0.0,1.0,0.0,0.0,0.0,1.0
1463846107105081912,345,1463846107016205638,,14.5573816299,21.4653224945,-80.9222564697,0.0204060003161,1.0,0.0,0.0,0.0,1.0,0.0,0.0,0.0,1.0,23.1097564697,24.5121955872,5.67073154449,1.0,0.0,0.0,0.0,1.0,0.0,0.0,0.0,1.0,-1.26892687988,1.6041151123,10.0795889893,1.0,0.0,0.0,0.0,1.0,0.0,0.0,0.0,1.0
1463846107105133941,346,1463846107036413626,,14.9857273102,22.0159072876,-80.3422622681,0.0205380003899,1.0,0.0,0.0,0.0,1.0,0.0,0.0,0.0,1.0,24.3902435303,26.4024391174,1.15853655338,1.0,0.0,0.0,0.0,1.0,0.0,0.0,0.0,1.0,-1.5322890625,1.75734401855,10.0029745361,1.0,0.0,0.0,0.0,1.0,0.0,0.0,0.0,1.0
1463846107105193574,347,1463846107056748692,,15.4295721054,22.5318660736,-79.8501739502,0.0202869996428,1.0,0.0,0.0,0.0,1.0,0.0,0.0,0.0,1.0,23.2317085266,26.2804889679,-3.35365867615,1.0,0.0,0.0,0.0,1.0,0.0,0.0,0.0,1.0,-1.56580788574,1.97282216797,9.99818613281,1.0,0.0,0.0,0.0,1.0,0.0,0.0,0.0,1.0
1463846107140305676,348,1463846107077494728,,15.8933401108,23.0162143707,-79.3787078857,0.0203980002552,1.0,0.0,0.0,0.0,1.0,0.0,0.0,0.0,1.0,22.5609760284,27.317073822,-4.93902444839,1.0,0.0,0.0,0.0,1.0,0.0,0.0,0.0,1.0,-1.57059628906,1.92014973145,10.165780249,1.0,0.0,0.0,0.0,1.0,0.0,0.0,0.0,1.0
1463846107140704512,349,1463846107097511788,,16.3837509155,23.4976215363,-78.8283920288,0.0204009991139,1.0,0.0,0.0,0.0,1.0,0.0,0.0,0.0,1.0,20.9146347046,30.6097583771,-2.62195134163,1.0,0.0,0.0,0.0,1.0,0.0,0.0,0.0,1.0,-1.5083470459,1.99676418457,9.88805285645,1.0,0.0,0.0,0.0,1.0,0.0,0.0,0.0,1.0
1463846107173339384,350,1463846107117903621,,16.9364051819,23.9685554504,-78.2197341919,0.0204160008579,1.0,0.0,0.0,0.0,1.0,0.0,0.0,0.0,1.0,19.3902435303,33.4756126404,-1.15853655338,1.0,0.0,0.0,0.0,1.0,0.0,0.0,0.0,1.0,-1.78128603516,2.00634099121,9.64863327495,1.0,0.0,0.0,0.0,1.0,0.0,0.0,0.0,1.0
1463846107173725824,351,1463846107138387066,,17.4703388214,24.4346256256,-77.6358337402,0.0204019993544,1.0,0.0,0.0,0.0,1.0,0.0,0.0,0.0,1.0,18.2317085266,31.4024391174,-2.07317066193,1.0,0.0,0.0,0.0,1.0,0.0,0.0,0.0,1.0,-2.05422502441,2.26491477051,9.61990285503,1.0,0.0,0.0,0.0,1.0,0.0,0.0,0.0,1.0
1463846107224752829,352,1463846107158756192,,17.972661972,24.8438434601,-77.099067688,0.0204179994762,1.0,0.0,0.0,0.0,1.0,0.0,0.0,0.0,1.0,16.2195110321,28.3536586761,-3.23170733452,1.0,0.0,0.0,0.0,1.0,0.0,0.0,0.0,1.0,-2.31279880371,2.26012636719,9.59117243511,1.0,0.0,0.0,0.0,1.0,0.0,0.0,0.0,1.0
1463846107225175882,353,1463846107179134745,,18.3990898132,25.1947631836,-76.6133651733,0.0204089991748,1.0,0.0,0.0,0.0,1.0,0.0,0.0,0.0,1.0,14.5121955872,23.7804889679,-3.65853667259,1.0,0.0,0.0,0.0,1.0,0.0,0.0,0.0,1.0,-2.44208569336,2.17872351074,9.47146118306,1.0,0.0,0.0,0.0,1.0,0.0,0.0,0.0,1.0
1463846107271340764,354,1463846107199807452,,18.7407627106,25.5270900726,-76.0942001343,0.0206279996783,1.0,0.0,0.0,0.0,1.0,0.0,0.0,0.0,1.0,12.4390249252,19.4512195587,-0.426829278469,1.0,0.0,0.0,0.0,1.0,0.0,0.0,0.0,1.0,-2.75333190918,2.31279880371,9.52892319194,1.0,0.0,0.0,0.0,1.0,0.0,0.0,0.0,1.0
1463846107271767672,355,1463846107220428859,,18.9467582703,25.8002243042,-75.5890426636,0.0201890002936,1.0,0.0,0.0,0.0,1.0,0.0,0.0,0.0,1.0,10.4268293381,14.6951217651,1.8902438879,1.0,0.0,0.0,0.0,1.0,0.0,0.0,0.0,1.0,-2.59052619629,2.21224233398,9.39005832661,1.0,0.0,0.0,0.0,1.0,0.0,0.0,0.0,1.0
1463846107272024847,356,1463846107240399618,,19.0548171997,26.078540802,-75.0504989624,0.0203970000148,1.0,0.0,0.0,0.0,1.0,0.0,0.0,0.0,1.0,9.39024448395,11.341463089,4.69512224197,1.0,0.0,0.0,0.0,1.0,0.0,0.0,0.0,1.0,-2.51870014648,2.35589428746,9.27992563477,1.0,0.0,0.0,0.0,1.0,0.0,0.0,0.0,1.0
1463846107272368790,357,1463846107260712497,,19.0403633118,26.3509674072,-74.4941101074,0.0204130001366,1.0,0.0,0.0,0.0,1.0,0.0,0.0,0.0,1.0,8.17073154449,6.82926845551,7.56097555161,1.0,0.0,0.0,0.0,1.0,0.0,0.0,0.0,1.0,-2.46602770996,2.53785375977,9.31823227681,1.0,0.0,0.0,0.0,1.0,0.0,0.0,0.0,1.0
1463846107322311312,358,1463846107281047823,,18.9490566254,26.5546627045,-73.9244995117,0.0204099994153,1.0,0.0,0.0,0.0,1.0,0.0,0.0,0.0,1.0,5.60975599289,3.71951246262,10.1829271317,1.0,0.0,0.0,0.0,1.0,0.0,0.0,0.0,1.0,-2.53785375977,2.4277204834,9.47146118306,1.0,0.0,0.0,0.0,1.0,0.0,0.0,0.0,1.0
1463846107322684212,359,1463846107301517309,,18.7328186035,26.6951828003,-73.3810501099,0.0203850008547,1.0,0.0,0.0,0.0,1.0,0.0,0.0,0.0,1.0,1.76829278469,-0.792682945728,10.6707315445,1.0,0.0,0.0,0.0,1.0,0.0,0.0,0.0,1.0,-2.11647412145,2.59052619629,9.01177504883,1.0,0.0,0.0,0.0,1.0,0.0,0.0,0.0,1.0
1463846107351624928,360,1463846107321934507,,18.4946289062,26.7194805145,-72.9323806763,0.0204039998353,1.0,0.0,0.0,0.0,1.0,0.0,0.0,0.0,1.0,-0.853658556938,-4.63414621353,8.23170757294,1.0,0.0,0.0,0.0,1.0,0.0,0.0,0.0,1.0,-2.26491477051,2.31758720703,8.97825622559,1.0,0.0,0.0,0.0,1.0,0.0,0.0,0.0,1.0
1463846107351842731,361,1463846107342185930,,18.2215614319,26.6981964111,-72.5534515381,0.0204130001366,1.0,0.0,0.0,0.0,1.0,0.0,0.0,0.0,1.0,-3.53658556938,-6.09756088257,4.69512224197,1.0,0.0,0.0,0.0,1.0,0.0,0.0,0.0,1.0,-1.94409174805,2.68150585937,9.09796630859,1.0,0.0,0.0,0.0,1.0,0.0,0.0,0.0,1.0
1463846107391838882,362,1463846107363767137,,17.9259796143,26.5116958618,-72.2108306885,0.021420000121,1.0,0.0,0.0,0.0,1.0,0.0,0.0,0.0,1.0,-7.68292665482,-6.52439069748,3.10975623131,1.0,0.0,0.0,0.0,1.0,0.0,0.0,0.0,1.0,-1.76213242187,2.26491477051,9.39963513325,1.0,0.0,0.0,0.0,1.0,0.0,0.0,0.0,1.0
1463846107392196001,363,1463846107383022929,,17.6977577209,26.321805954,-71.8807144165,0.0194140002131,1.0,0.0,0.0,0.0,1.0,0.0,0.0,0.0,1.0,-8.71951198578,-5.30487823486,3.59756112099,1.0,0.0,0.0,0.0,1.0,0.0,0.0,0.0,1.0,-1.91536132812,2.1930887207,9.46667277974,1.0,0.0,0.0,0.0,1.0,0.0,0.0,0.0,1.0
1463846107433419441,364,1463846107403503404,,17.464756012,26.1246089935,-71.5101547241,0.0204259995371,1.0,0.0,0.0,0.0,1.0,0.0,0.0,0.0,1.0,-8.17073154449,-5.79268312454,5.24390268326,1.0,0.0,0.0,0.0,1.0,0.0,0.0,0.0,1.0,-2.10210891149,2.00155258789,9.39963513325,1.0,0.0,0.0,0.0,1.0,0.0,0.0,0.0,1.0
1463846107433470897,365,1463846107423765036,,17.2120685577,25.9710636139,-71.0951766968,0.0203690007329,1.0,0.0,0.0,0.0,1.0,0.0,0.0,0.0,1.0,-7.80487823486,-7.37804937363,7.92682981491,1.0,0.0,0.0,0.0,1.0,0.0,0.0,0.0,1.0,-2.36068269078,2.17872351074,9.39005832661,1.0,0.0,0.0,0.0,1.0,0.0,0.0,0.0,1.0
1463846107482459816,366,1463846107444559039,,16.8633174896,25.80103302,-70.7117233276,0.0204249992967,1.0,0.0,0.0,0.0,1.0,0.0,0.0,0.0,1.0,-9.20731735229,-12.1951217651,8.10975551605,1.0,0.0,0.0,0.0,1.0,0.0,0.0,0.0,1.0,-2.28885678711,2.39420180629,9.40921193989,1.0,0.0,0.0,0.0,1.0,0.0,0.0,0.0,1.0
1463846107482867142,367,1463846107464738955,,16.4291419983,25.5817050934,-70.4160003662,0.0204319991171,1.0,0.0,0.0,0.0,1.0,0.0,0.0,0.0,1.0,-9.39024448395,-17.6829280853,6.40243911743,1.0,0.0,0.0,0.0,1.0,0.0,0.0,0.0,1.0,-2.1691467041,2.17393510742,9.28950185688,1.0,0.0,0.0,0.0,1.0,0.0,0.0,0.0,1.0
1463846107511729528,368,1463846107485294115,,15.906703949,25.3506336212,-70.1850967407,0.0203820001334,1.0,0.0,0.0,0.0,1.0,0.0,0.0,0.0,1.0,-9.14634132385,-21.7682933807,4.81707286835,1.0,0.0,0.0,0.0,1.0,0.0,0.0,0.0,1.0,-1.82917006836,2.1691467041,9.22725319824,1.0,0.0,0.0,0.0,1.0,0.0,0.0,0.0,1.0
1463846107513015199,369,1463846107506124574,,15.3246536255,25.0876655579,-69.9822311401,0.0204559992999,1.0,0.0,0.0,0.0,1.0,0.0,0.0,0.0,1.0,-9.63414573669,-22.682926178,3.71951246262,1.0,0.0,0.0,0.0,1.0,0.0,0.0,0.0,1.0,-1.35032973633,2.14041643031,9.61032604839,1.0,0.0,0.0,0.0,1.0,0.0,0.0,0.0,1.0
1463846107553792252,370,1463846107526241056,,14.7851858139,24.8313503265,-69.7560501099,0.0204109996557,1.0,0.0,0.0,0.0,1.0,0.0,0.0,0.0,1.0,-9.39024448395,-19.5121955872,3.29268312454,1.0,0.0,0.0,0.0,1.0,0.0,0.0,0.0,1.0,-1.0534486574,2.07816689489,9.60553764507,1.0,0.0,0.0,0.0,1.0,0.0,0.0,0.0,1.0
1463846107554516282,371,1463846107546556227,,14.3425626755,24.5721054077,-69.5209350586,0.020380999893,1.0,0.0,0.0,0.0,1.0,0.0,0.0,0.0,1.0,-8.84146404266,-15.7926826477,2.07317066193,1.0,0.0,0.0,0.0,1.0,0.0,0.0,0.0,1.0,-1.09175595703,1.9105729248,9.65821008159,1.0,0.0,0.0,0.0,1.0,0.0,0.0,0.0,1.0
1463846107603276774,372,1463846107566962695,,13.9798793793,24.3542308807,-69.2478485107,0.0204399991781,1.0,0.0,0.0,0.0,1.0,0.0,0.0,0.0,1.0,-7.31707334518,-10.6707315445,1.46341466904,1.0,0.0,0.0,0.0,1.0,0.0,0.0,0.0,1.0,-0.823605371094,1.86747729492,9.4570959731,1.0,0.0,0.0,0.0,1.0,0.0,0.0,0.0,1.0
1463846107603334688,373,1463846107589075232,,13.7429084778,24.1799697876,-68.9412918091,0.0203770007938,1.0,0.0,0.0,0.0,1.0,0.0,0.0,0.0,1.0,-5.30487823486,-5.06097555161,0.670731723309,1.0,0.0,0.0,0.0,1.0,0.0,0.0,0.0,1.0,-0.871489404297,1.79565124512,9.49061596538,1.0,0.0,0.0,0.0,1.0,0.0,0.0,0.0,1.0
1463846107642974398,374,1463846107607755581,,13.6182613373,24.0525894165,-68.6593399048,0.0203910004348,1.0,0.0,0.0,0.0,1.0,0.0,0.0,0.0,1.0,-4.45121955872,-2.62195134163,-2.25609779358,1.0,0.0,0.0,0.0,1.0,0.0,0.0,0.0,1.0,-1.19710090314,2.06380183105,9.36611631001,1.0,0.0,0.0,0.0,1.0,0.0,0.0,0.0,1.0
1463846107643014240,375,1463846107627959403,,13.5735368729,23.9374046326,-68.3932800293,0.0204060003161,1.0,0.0,0.0,0.0,1.0,0.0,0.0,0.0,1.0,-4.02439022064,0.670731723309,-4.69512224197,1.0,0.0,0.0,0.0,1.0,0.0,0.0,0.0,1.0,-1.14442839355,2.08295529821,9.22725319824,1.0,0.0,0.0,0.0,1.0,0.0,0.0,0.0,1.0
1463846107680921892,376,1463846107648452274,,13.6358184814,23.7805652618,-68.1946182251,0.0204009991139,1.0,0.0,0.0,0.0,1.0,0.0,0.0,0.0,1.0,-1.76829278469,0.670731723309,-7.25609779358,1.0,0.0,0.0,0.0,1.0,0.0,0.0,0.0,1.0,-1.70467158203,1.33596452637,8.76277807617,1.0,0.0,0.0,0.0,1.0,0.0,0.0,0.0,1.0
1463846107681657379,377,1463846107675640570,,13.5620365143,23.6750450134,-68.0114059448,0.020422000438,1.0,0.0,0.0,0.0,1.0,0.0,0.0,0.0,1.0,0.304878056049,-5.60975599289,-5.42682933807,1.0,0.0,0.0,0.0,1.0,0.0,0.0,0.0,1.0,-1.65199914551,1.38863696289,8.5760309312,1.0,0.0,0.0,0.0,1.0,0.0,0.0,0.0,1.0
1463846107695509615,378,1463846107689342239,,13.4602060318,23.5447006226,-67.8037490845,0.0204360000789,1.0,0.0,0.0,0.0,1.0,0.0,0.0,0.0,1.0,-1.95121955872,-7.13414621353,-3.71951246262,1.0,0.0,0.0,0.0,1.0,0.0,0.0,0.0,1.0,-1.73340200195,1.47482822266,8.44195446919,1.0,0.0,0.0,0.0,1.0,0.0,0.0,0.0,1.0
1463846107716482984,379,1463846107709995779,,13.2265577316,23.3541355133,-67.585723877,0.020380999893,1.0,0.0,0.0,0.0,1.0,0.0,0.0,0.0,1.0,-4.39024400711,-10.4268293381,-1.58536589146,1.0,0.0,0.0,0.0,1.0,0.0,0.0,0.0,1.0,-1.33117612305,1.40779057617,8.66701059429,1.0,0.0,0.0,0.0,1.0,0.0,0.0,0.0,1.0
1463846107734505707,380,1463846107730149863,,12.9556732178,23.0604553223,-67.3756866455,0.0204150006175,1.0,0.0,0.0,0.0,1.0,0.0,0.0,0.0,1.0,-8.04878044128,-10.4878053665,-1.76829278469,1.0,0.0,0.0,0.0,1.0,0.0,0.0,0.0,1.0,-0.981622680664,1.18273554705,8.65743378765,1.0,0.0,0.0,0.0,1.0,0.0,0.0,0.0,1.0
1463846107752508118,381,1463846107750641120,,12.6899061203,22.7106781006,-67.1737365723,0.0204259995371,1.0,0.0,0.0,0.0,1.0,0.0,0.0,0.0,1.0,-11.341463089,-9.02439117432,-3.10975623131,1.0,0.0,0.0,0.0,1.0,0.0,0.0,0.0,1.0,-0.675164868164,1.24498486328,8.54251210796,1.0,0.0,0.0,0.0,1.0,0.0,0.0,0.0,1.0
1463846107779211905,382,1463846107771702715,,12.5014810562,22.2608966827,-66.9449157715,0.0207589995116,1.0,0.0,0.0,0.0,1.0,0.0,0.0,0.0,1.0,-15.8536596298,-4.08536577225,-4.02439022064,1.0,0.0,0.0,0.0,1.0,0.0,0.0,0.0,1.0,-0.469263525391,1.15879360352,8.54730051128,1.0,0.0,0.0,0.0,1.0,0.0,0.0,0.0,1.0
1463846107795077069,383,1463846107791416611,,12.449262619,21.7434883118,-66.7361068726,0.020046999678,1.0,0.0,0.0,0.0,1.0,0.0,0.0,0.0,1.0,-19.8780498505,-1.70731711388,-5.67073154449,1.0,0.0,0.0,0.0,1.0,0.0,0.0,0.0,1.0,-0.967257470703,1.06302561017,8.3749168227,1.0,0.0,0.0,0.0,1.0,0.0,0.0,0.0,1.0
1463846107813976836,384,1463846107812581743,,12.3366651535,21.1218852997,-66.5729598999,0.021207999438,1.0,0.0,0.0,0.0,1.0,0.0,0.0,0.0,1.0,-23.9634151459,-2.86585378647,-8.35365867615,1.0,0.0,0.0,0.0,1.0,0.0,0.0,0.0,1.0,-0.550666381836,1.17315874041,8.29830236958,1.0,0.0,0.0,0.0,1.0,0.0,0.0,0.0,1.0
1463846107834554755,385,1463846107833189504,,12.2136287689,20.4155597687,-66.4927597046,0.0204770006239,1.0,0.0,0.0,0.0,1.0,0.0,0.0,0.0,1.0,-28.6585388184,-5.54878091812,-11.341463089,1.0,0.0,0.0,0.0,1.0,0.0,0.0,0.0,1.0,-0.60812722168,1.09175595703,8.01099875488,1.0,0.0,0.0,0.0,1.0,0.0,0.0,0.0,1.0
1463846107859989380,386,1463846107857251796,,12.0482234955,19.4885864258,-66.5333557129,0.0234960000962,1.0,0.0,0.0,0.0,1.0,0.0,0.0,0.0,1.0,-32.5609779358,-8.23170757294,-16.2804889679,1.0,0.0,0.0,0.0,1.0,0.0,0.0,0.0,1.0,-0.526724328702,0.972045874023,7.6853873291,1.0,0.0,0.0,0.0,1.0,0.0,0.0,0.0,1.0
1463846107878800505,387,1463846107877021783,,11.9217557907,18.6763515472,-66.6373443604,0.0188580006361,1.0,0.0,0.0,0.0,1.0,0.0,0.0,0.0,1.0,-34.3292694092,-9.02439117432,-19.6951236725,1.0,0.0,0.0,0.0,1.0,0.0,0.0,0.0,1.0,-0.478840332031,0.679953271484,7.54652363281,1.0,0.0,0.0,0.0,1.0,0.0,0.0,0.0,1.0
1463846107908981008,388,1463846107900180887,,11.7970190048,17.6904125214,-66.8153762817,0.0213419999927,1.0,0.0,0.0,0.0,1.0,0.0,0.0,0.0,1.0,-35.1829299927,-8.29268264771,-22.5,1.0,0.0,0.0,0.0,1.0,0.0,0.0,0.0,1.0,-0.344765039063,0.320823022461,7.25443103027,1.0,0.0,0.0,0.0,1.0,0.0,0.0,0.0,1.0
1463846107915365926,389,1463846107913758395,,11.7289800644,16.9459705353,-66.9726715088,0.0170460008085,1.0,0.0,0.0,0.0,1.0,0.0,0.0,0.0,1.0,-35.6097564697,-10.4878053665,-23.3536586761,1.0,0.0,0.0,0.0,1.0,0.0,0.0,0.0,1.0,-0.866701000977,0.627280834961,7.46990917969,1.0,0.0,0.0,0.0,1.0,0.0,0.0,0.0,1.0
1463846107943442984,390,1463846107934361886,,11.5063362122,15.9924659729,-67.179397583,0.0204169992357,1.0,0.0,0.0,0.0,1.0,0.0,0.0,0.0,1.0,-37.682926178,-14.7560987473,-22.8658542633,1.0,0.0,0.0,0.0,1.0,0.0,0.0,0.0,1.0,-0.517147558594,0.435744702148,7.6614453125,1.0,0.0,0.0,0.0,1.0,0.0,0.0,0.0,1.0
1463846107958427147,391,1463846107956113919,,11.2745246887,14.9135456085,-67.4139328003,0.0217450000346,1.0,0.0,0.0,0.0,1.0,0.0,0.0,0.0,1.0,-38.1707305908,-15.6097564697,-22.9268302917,1.0,0.0,0.0,0.0,1.0,0.0,0.0,0.0,1.0,-0.627280834961,-0.0287304199219,7.60398447266,1.0,0.0,0.0,0.0,1.0,0.0,0.0,0.0,1.0
1463846107977276759,392,1463846107975168730,,11.0440721512,13.9944438934,-67.6491775513,0.01909000054,1.0,0.0,0.0,0.0,1.0,0.0,0.0,0.0,1.0,-35.9146347046,-15.9146347046,-24.4512195587,1.0,0.0,0.0,0.0,1.0,0.0,0.0,0.0,1.0,-0.402225878906,-0.239420166016,7.51779321289,1.0,0.0,0.0,0.0,1.0,0.0,0.0,0.0,1.0
1463846108001325145,393,1463846107995576813,,10.7982358932,13.0723762512,-67.9222259521,0.0203900001943,1.0,0.0,0.0,0.0,1.0,0.0,0.0,0.0,1.0,-31.341463089,-14.5121955872,-25.7317085266,1.0,0.0,0.0,0.0,1.0,0.0,0.0,0.0,1.0,-0.15322890625,-0.545877978516,7.22570061035,1.0,0.0,0.0,0.0,1.0,0.0,0.0,0.0,1.0
1463846108017569876,394,1463846108015996458,,10.6177492142,12.2689762115,-68.1993408203,0.020428000018,1.0,0.0,0.0,0.0,1.0,0.0,0.0,0.0,1.0,-27.682926178,-11.8292684555,-27.0731716156,1.0,0.0,0.0,0.0,1.0,0.0,0.0,0.0,1.0,-0.205901342773,-0.373495458984,7.50342800293,1.0,0.0,0.0,0.0,1.0,0.0,0.0,0.0,1.0
1463846108038513507,395,1463846108036904726,,10.5027551651,11.5240516663,-68.510887146,0.0204349998385,1.0,0.0,0.0,0.0,1.0,0.0,0.0,0.0,1.0,-26.8292694092,-12.8048782349,-29.0243911743,1.0,0.0,0.0,0.0,1.0,0.0,0.0,0.0,1.0,-0.77093293457,-0.177170922852,8.03015236816,1.0,0.0,0.0,0.0,1.0,0.0,0.0,0.0,1.0
1463846108063133950,396,1463846108058840395,,10.3526821136,10.7765626907,-68.8516159058,0.0203779991716,1.0,0.0,0.0,0.0,1.0,0.0,0.0,0.0,1.0,-26.8292694092,-14.6341466904,-30.1829280853,1.0,0.0,0.0,0.0,1.0,0.0,0.0,0.0,1.0,-0.804451757813,-0.296881024126,8.5520889146,1.0,0.0,0.0,0.0,1.0,0.0,0.0,0.0,1.0
1463846108084269083,397,1463846108077163416,,10.187620163,9.98069286346,-69.2338485718,0.0203910004348,1.0,0.0,0.0,0.0,1.0,0.0,0.0,0.0,1.0,-27.1951236725,-16.7073173523,-31.5853652954,1.0,0.0,0.0,0.0,1.0,0.0,0.0,0.0,1.0,-0.972045874023,-0.684741674805,8.62870336773,1.0,0.0,0.0,0.0,1.0,0.0,0.0,0.0,1.0
1463846108102111136,398,1463846108099446830,,9.9186372757,9.22817230225,-69.6182403564,0.0204179994762,1.0,0.0,0.0,0.0,1.0,0.0,0.0,0.0,1.0,-27.1341457367,-21.5243911743,-31.341463089,1.0,0.0,0.0,0.0,1.0,0.0,0.0,0.0,1.0,-0.9193734375,-0.45968671875,8.3749168227,1.0,0.0,0.0,0.0,1.0,0.0,0.0,0.0,1.0
1463846108128052196,399,1463846108118008486,,9.58727931976,8.51355075836,-69.9129333496,0.0204109996557,1.0,0.0,0.0,0.0,1.0,0.0,0.0,0.0,1.0,-31.5853652954,-21.4634151459,-28.1707324982,1.0,0.0,0.0,0.0,1.0,0.0,0.0,0.0,1.0,-0.579396801758,0.292092584273,8.9351605957,1.0,0.0,0.0,0.0,1.0,0.0,0.0,0.0,1.0
1463846108182958867,400,1463846108138389591,,9.32405281067,7.66460371017,-70.1046829224,0.0204029995948,1.0,0.0,0.0,0.0,1.0,0.0,0.0,0.0,1.0,-36.8902435303,-16.7682933807,-23.658536911,1.0,0.0,0.0,0.0,1.0,0.0,0.0,0.0,1.0,-0.435744702148,-0.172382519531,8.85375773926,1.0,0.0,0.0,0.0,1.0,0.0,0.0,0.0,1.0
1463846108183008083,401,1463846108158776945,,9.13106918335,6.71694946289,-70.2507858276,0.0204230006784,1.0,0.0,0.0,0.0,1.0,0.0,0.0,0.0,1.0,-38.9024391174,-16.2195110321,-21.0975627899,1.0,0.0,0.0,0.0,1.0,0.0,0.0,0.0,1.0,-0.890643017578,-0.809240161133,8.65264538433,1.0,0.0,0.0,0.0,1.0,0.0,0.0,0.0,1.0
1463846108183049539,402,1463846108179224505,,8.92346858978,5.7794470787,-70.3543701172,0.0203889999539,1.0,0.0,0.0,0.0,1.0,0.0,0.0,0.0,1.0,-37.9268302917,-14.8780498505,-19.2073173523,1.0,0.0,0.0,0.0,1.0,0.0,0.0,0.0,1.0,-0.603338854892,-1.13006318359,8.94473740234,1.0,0.0,0.0,0.0,1.0,0.0,0.0,0.0,1.0
1463846108203077379,403,1463846108200085432,,8.7880487442,4.8831744194,-70.362159729,0.0204230006784,1.0,0.0,0.0,0.0,1.0,0.0,0.0,0.0,1.0,-36.4634170532,-10.1219511032,-15.1219511032,1.0,0.0,0.0,0.0,1.0,0.0,0.0,0.0,1.0,-0.483628735352,-1.39821376953,9.63426806499,1.0,0.0,0.0,0.0,1.0,0.0,0.0,0.0,1.0
1463846108222474778,404,1463846108220302950,,8.7319726944,4.03353834152,-70.2428207397,0.0205179993063,1.0,0.0,0.0,0.0,1.0,0.0,0.0,0.0,1.0,-35.6097564697,-0.426829278469,-9.93902492523,1.0,0.0,0.0,0.0,1.0,0.0,0.0,0.0,1.0,0.517147558594,-1.57059628906,10.6158901611,1.0,0.0,0.0,0.0,1.0,0.0,0.0,0.0,1.0
1463846108251488563,405,1463846108240497084,,8.9647731781,3.24337482452,-70.0299682617,0.0202830005437,1.0,0.0,0.0,0.0,1.0,0.0,0.0,0.0,1.0,-34.5121955872,10.4878053665,-5.97560977936,1.0,0.0,0.0,0.0,1.0,0.0,0.0,0.0,1.0,-0.148440512063,-1.66636435547,11.01811604,1.0,0.0,0.0,0.0,1.0,0.0,0.0,0.0,1.0
1463846108263979558,406,1463846108261162082,,9.34756469727,2.40793895721,-69.8479003906,0.0205060001463,1.0,0.0,0.0,0.0,1.0,0.0,0.0,0.0,1.0,-34.0853691101,11.6463422775,-6.95121955872,1.0,0.0,0.0,0.0,1.0,0.0,0.0,0.0,1.0,-1.34554133301,-2.26970317383,11.0276928467,1.0,0.0,0.0,0.0,1.0,0.0,0.0,0.0,1.0
1463846108283777304,407,1463846108281465794,,9.53928565979,1.70378363132,-69.6964874268,0.0203089993447,1.0,0.0,0.0,0.0,1.0,0.0,0.0,0.0,1.0,-31.8902454376,3.17073178291,-8.35365867615,1.0,0.0,0.0,0.0,1.0,0.0,0.0,0.0,1.0,-1.22104284668,-1.5562310791,10.8361567139,1.0,0.0,0.0,0.0,1.0,0.0,0.0,0.0,1.0
1463846108306654909,408,1463846108301847419,,9.56986522675,0.977625668049,-69.5873794556,0.0204130001366,1.0,0.0,0.0,0.0,1.0,0.0,0.0,0.0,1.0,-32.4390220642,-2.43902444839,-10.1219511032,1.0,0.0,0.0,0.0,1.0,0.0,0.0,0.0,1.0,-0.76614453125,-1.67594116211,10.7451770508,1.0,0.0,0.0,0.0,1.0,0.0,0.0,0.0,1.0
1463846108344620266,409,1463846108322234930,,9.51404762268,0.287038832903,-69.4559936523,0.0205119997263,1.0,0.0,0.0,0.0,1.0,0.0,0.0,0.0,1.0,-32.2560958862,-6.15853643417,-9.20731735229,1.0,0.0,0.0,0.0,1.0,0.0,0.0,0.0,1.0,-0.694318481445,-1.57059628906,11.2000753662,1.0,0.0,0.0,0.0,1.0,0.0,0.0,0.0,1.0
1463846108344990979,410,1463846108342616451,,9.42546749115,-0.360825687647,-69.2926712036,0.020300000906,1.0,0.0,0.0,0.0,1.0,0.0,0.0,0.0,1.0,-31.0975627899,-6.34146356583,-7.62195110321,1.0,0.0,0.0,0.0,1.0,0.0,0.0,0.0,1.0,-0.368707055664,-1.61848032227,11.0707884766,1.0,0.0,0.0,0.0,1.0,0.0,0.0,0.0,1.0
1463846108388117403,411,1463846108363145778,,9.38782596588,-0.981582283974,-69.0631027222,0.0204160008579,1.0,0.0,0.0,0.0,1.0,0.0,0.0,0.0,1.0,-33.2317085266,-3.47560977936,-4.93902444839,1.0,0.0,0.0,0.0,1.0,0.0,0.0,0.0,1.0,-0.272938989258,-1.13963999023,11.3437274658,1.0,0.0,0.0,0.0,1.0,0.0,0.0,0.0,1.0
1463846108388498167,412,1463846108383689063,,9.37907981873,-1.6805409193,-68.811126709,0.0203879997134,1.0,0.0,0.0,0.0,1.0,0.0,0.0,0.0,1.0,-37.134147644,-5.54878091812,-3.7804877758,1.0,0.0,0.0,0.0,1.0,0.0,0.0,0.0,1.0,-0.986411083984,-1.36469494629,11.899182251,1.0,0.0,0.0,0.0,1.0,0.0,0.0,0.0,1.0
1463846108414392979,413,1463846108403908196,,9.24767398834,-2.39308524132,-68.5674819946,0.0204210001975,1.0,0.0,0.0,0.0,1.0,0.0,0.0,0.0,1.0,-40.0609741211,-11.4634151459,-4.75609779358,1.0,0.0,0.0,0.0,1.0,0.0,0.0,0.0,1.0,-0.928950244141,-0.981622680664,11.765106958,1.0,0.0,0.0,0.0,1.0,0.0,0.0,0.0,1.0
1463846108425638354,414,1463846108424245136,,9.06439113617,-3.18087482452,-68.309753418,0.0204460006207,1.0,0.0,0.0,0.0,1.0,0.0,0.0,0.0,1.0,-43.1097564697,-14.3902444839,-4.14634132385,1.0,0.0,0.0,0.0,1.0,0.0,0.0,0.0,1.0,-0.952892260742,-1.28329208984,11.8656634277,1.0,0.0,0.0,0.0,1.0,0.0,0.0,0.0,1.0
1463846108545660345,415,1463846108444704726,,8.85673046112,-3.97163558006,-68.0026702881,0.0203559994698,1.0,0.0,0.0,0.0,1.0,0.0,0.0,0.0,1.0,-42.2560958862,-15.4878053665,-1.58536589146,1.0,0.0,0.0,0.0,1.0,0.0,0.0,0.0,1.0,-0.833182177734,-1.82438166504,12.1769096436,1.0,0.0,0.0,0.0,1.0,0.0,0.0,0.0,1.0
1463846108545941790,416,1463846108465102184,,8.67011451721,-4.6565990448,-67.6039428711,0.0204240009189,1.0,0.0,0.0,0.0,1.0,0.0,0.0,0.0,1.0,-38.9634132385,-14.8780498505,2.56097555161,1.0,0.0,0.0,0.0,1.0,0.0,0.0,0.0,1.0,-0.775721337891,-1.68072956543,12.1481792236,1.0,0.0,0.0,0.0,1.0,0.0,0.0,0.0,1.0
1463846108546248599,417,1463846108486453714,,8.56411838531,-5.27167749405,-67.0999603271,0.0207160003483,1.0,0.0,0.0,0.0,1.0,0.0,0.0,0.0,1.0,-37.4390220642,-12.9878053665,7.19512224197,1.0,0.0,0.0,0.0,1.0,0.0,0.0,0.0,1.0,-1.10133276367,-1.51313544922,12.5551935059,1.0,0.0,0.0,0.0,1.0,0.0,0.0,0.0,1.0
1463846108549484442,418,1463846108505885903,,8.43181228638,-5.82068157196,-66.5533752441,0.0200929995626,1.0,0.0,0.0,0.0,1.0,0.0,0.0,0.0,1.0,-36.5243911743,-16.158536911,9.5731716156,1.0,0.0,0.0,0.0,1.0,0.0,0.0,0.0,1.0,-1.41736738281,-1.47482822266,13.1824743408,1.0,0.0,0.0,0.0,1.0,0.0,0.0,0.0,1.0
1463846108607122290,419,1463846108526116546,,8.23359489441,-6.33733558655,-65.9185028076,0.0204399991781,1.0,0.0,0.0,0.0,1.0,0.0,0.0,0.0,1.0,-34.5731735229,-19.2073173523,13.1097564697,1.0,0.0,0.0,0.0,1.0,0.0,0.0,0.0,1.0,-1.25456166992,-1.74297880859,13.5511813965,1.0,0.0,0.0,0.0,1.0,0.0,0.0,0.0,1.0
1463846108607399152,420,1463846108546398384,,8.04406261444,-6.76282930374,-65.212272644,0.0203699991107,1.0,0.0,0.0,0.0,1.0,0.0,0.0,0.0,1.0,-30.2439022064,-18.1707305908,16.8292694092,1.0,0.0,0.0,0.0,1.0,0.0,0.0,0.0,1.0,-0.861912597656,-1.89620771484,13.1585323242,1.0,0.0,0.0,0.0,1.0,0.0,0.0,0.0,1.0
1463846108607676119,421,1463846108566950314,,8.00041103363,-7.05098772049,-64.484336853,0.0204249992967,1.0,0.0,0.0,0.0,1.0,0.0,0.0,0.0,1.0,-20.5487823486,-14.4512205124,18.658536911,1.0,0.0,0.0,0.0,1.0,0.0,0.0,0.0,1.0,-1.49398183594,-2.62883342285,12.6940572021,1.0,0.0,0.0,0.0,1.0,0.0,0.0,0.0,1.0
1463846108607993448,422,1463846108587478183,,7.90799093246,-7.11140298843,-63.7107505798,0.0204099994153,1.0,0.0,0.0,0.0,1.0,0.0,0.0,0.0,1.0,-13.1707324982,-13.9024391174,20.4878044128,1.0,0.0,0.0,0.0,1.0,0.0,0.0,0.0,1.0,-0.756567724609,-1.94409174805,13.2064163574,1.0,0.0,0.0,0.0,1.0,0.0,0.0,0.0,1.0
1463846108666078932,423,1463846108607809290,,7.84898471832,-7.09825372696,-62.9241142273,0.0203889999539,1.0,0.0,0.0,0.0,1.0,0.0,0.0,0.0,1.0,-8.41463470459,-11.9512195587,21.5853652954,1.0,0.0,0.0,0.0,1.0,0.0,0.0,0.0,1.0,-0.636857641602,-2.27449157715,13.3740104736,1.0,0.0,0.0,0.0,1.0,0.0,0.0,0.0,1.0
1463846108666391366,424,1463846108628096909,,7.7913274765,-6.95214748383,-62.1619148254,0.0204130001366,1.0,0.0,0.0,0.0,1.0,0.0,0.0,0.0,1.0,-0.670731723309,-12.5,20.4268302917,1.0,0.0,0.0,0.0,1.0,0.0,0.0,0.0,1.0,-0.818816967773,-2.5234885498,13.378798877,1.0,0.0,0.0,0.0,1.0,0.0,0.0,0.0,1.0
1463846108682566099,425,1463846108648577853,,7.72449398041,-6.69447565079,-61.4141349792,0.0204429998994,1.0,0.0,0.0,0.0,1.0,0.0,0.0,0.0,1.0,3.71951246262,-11.9512195587,19.5731716156,1.0,0.0,0.0,0.0,1.0,0.0,0.0,0.0,1.0,-0.641646044922,-2.26012636719,13.8001783691,1.0,0.0,0.0,0.0,1.0,0.0,0.0,0.0,1.0
1463846108682839160,426,1463846108669289151,,7.59894561768,-6.39229726791,-60.6990432739,0.0203959997743,1.0,0.0,0.0,0.0,1.0,0.0,0.0,0.0,1.0,5.79268312454,-12.6829271317,17.9268302917,1.0,0.0,0.0,0.0,1.0,0.0,0.0,0.0,1.0,-0.181959326172,-2.11647412145,13.9486188721,1.0,0.0,0.0,0.0,1.0,0.0,0.0,0.0,1.0
1463846108721345430,427,1463846108689700254,,7.38111877441,-6.11934041977,-60.1408081055,0.0204039998353,1.0,0.0,0.0,0.0,1.0,0.0,0.0,0.0,1.0,6.28048801422,-17.6829280853,9.81707286835,1.0,0.0,0.0,0.0,1.0,0.0,0.0,0.0,1.0,-0.483628735352,-2.06380183105,12.7994020752,1.0,0.0,0.0,0.0,1.0,0.0,0.0,0.0,1.0
1463846108721408239,428,1463846108709750332,,7.20876932144,-5.82926416397,-59.6762619019,0.0203830003738,1.0,0.0,0.0,0.0,1.0,0.0,0.0,0.0,1.0,7.50000047684,-15.4268302917,5.48780488968,1.0,0.0,0.0,0.0,1.0,0.0,0.0,0.0,1.0,-0.612915625,-2.09253210485,13.8911580322,1.0,0.0,0.0,0.0,1.0,0.0,0.0,0.0,1.0
1463846108765204009,429,1463846108730234453,,7.02534627914,-5.56516551971,-59.2915992737,0.0204329993576,1.0,0.0,0.0,0.0,1.0,0.0,0.0,0.0,1.0,7.98780536652,-13.7195129395,1.8902438879,1.0,0.0,0.0,0.0,1.0,0.0,0.0,0.0,1.0,-0.134075302102,-2.37025978969,14.1210013916,1.0,0.0,0.0,0.0,1.0,0.0,0.0,0.0,1.0
1463846108765505766,430,1463846108750541759,,6.97692584991,-5.2919383049,-58.9280815125,0.020428000018,1.0,0.0,0.0,0.0,1.0,0.0,0.0,0.0,1.0,8.29268264771,-5.18292713165,1.64634156227,1.0,0.0,0.0,0.0,1.0,0.0,0.0,0.0,1.0,0.363918652344,-2.23139594727,14.1736738281,1.0,0.0,0.0,0.0,1.0,0.0,0.0,0.0,1.0
1463846108805871274,431,1463846108771287378,,7.1975069046,-5.04991912842,-58.5828475952,0.0205119997263,1.0,0.0,0.0,0.0,1.0,0.0,0.0,0.0,1.0,7.86585378647,8.41463470459,2.01219511032,1.0,0.0,0.0,0.0,1.0,0.0,0.0,0.0,1.0,0.478840332031,-2.47081611328,14.3747867676,1.0,0.0,0.0,0.0,1.0,0.0,0.0,0.0,1.0
1463846108805932886,432,1463846108791575518,,7.70897483826,-4.78527736664,-58.2801895142,0.0202629994601,1.0,0.0,0.0,0.0,1.0,0.0,0.0,0.0,1.0,11.0365858078,23.658536911,1.58536589146,1.0,0.0,0.0,0.0,1.0,0.0,0.0,0.0,1.0,0.584185168546,-2.89219560547,14.4418244141,1.0,0.0,0.0,0.0,1.0,0.0,0.0,0.0,1.0
1463846108849784382,433,1463846108812389780,,8.58275794983,-4.44069480896,-57.9777908325,0.0204310007393,1.0,0.0,0.0,0.0,1.0,0.0,0.0,0.0,1.0,14.8170728683,44.2073173523,2.98780488968,1.0,0.0,0.0,0.0,1.0,0.0,0.0,0.0,1.0,1.19231249982,-2.75333190918,13.8863696289,1.0,0.0,0.0,0.0,1.0,0.0,0.0,0.0,1.0
1463846108850457268,434,1463846108832694950,,9.94123649597,-4.03633594513,-57.7148895264,0.0205029994249,1.0,0.0,0.0,0.0,1.0,0.0,0.0,0.0,1.0,16.7682933807,70.792678833,2.56097555161,1.0,0.0,0.0,0.0,1.0,0.0,0.0,0.0,1.0,1.67115275879,-2.37983659633,13.5942770264,1.0,0.0,0.0,0.0,1.0,0.0,0.0,0.0,1.0
1463846108899576962,435,1463846108852888668,,11.8323049545,-3.65234518051,-57.5973587036,0.020306000486,1.0,0.0,0.0,0.0,1.0,0.0,0.0,0.0,1.0,18.9024391174,99.0243911743,-2.62195134163,1.0,0.0,0.0,0.0,1.0,0.0,0.0,0.0,1.0,1.50355864258,-2.66714064941,13.005303418,1.0,0.0,0.0,0.0,1.0,0.0,0.0,0.0,1.0
1463846108899630970,436,1463846108873262481,,14.2208681107,-3.26729297638,-57.7352485657,0.0203910004348,1.0,0.0,0.0,0.0,1.0,0.0,0.0,0.0,1.0,24.2682933807,123.475608826,-13.3536586761,1.0,0.0,0.0,0.0,1.0,0.0,0.0,0.0,1.0,0.943315454102,-3.0406361084,12.0811415771,1.0,0.0,0.0,0.0,1.0,0.0,0.0,0.0,1.0
1463846108923556548,437,1463846108894007163,,16.9955635071,-2.85736274719,-58.1513633728,0.0204089991748,1.0,0.0,0.0,0.0,1.0,0.0,0.0,0.0,1.0,28.1097564697,149.329269409,-25.8536586761,1.0,0.0,0.0,0.0,1.0,0.0,0.0,0.0,1.0,1.82438166504,-2.58094938965,11.6501852783,1.0,0.0,0.0,0.0,1.0,0.0,0.0,0.0,1.0
1463846108923860805,438,1463846108913956047,,20.4207248688,-2.51601910591,-58.8637046814,0.0204600002617,1.0,0.0,0.0,0.0,1.0,0.0,0.0,0.0,1.0,31.8902454376,178.292694092,-38.0487823486,1.0,0.0,0.0,0.0,1.0,0.0,0.0,0.0,1.0,0.545877978516,-2.74375510254,11.2766898193,1.0,0.0,0.0,0.0,1.0,0.0,0.0,0.0,1.0
1463846108964525207,439,1463846108934249604,,24.3362941742,-2.2797369957,-59.8461608887,0.0203620009124,1.0,0.0,0.0,0.0,1.0,0.0,0.0,0.0,1.0,38.2926864624,201.036590576,-47.5,1.0,0.0,0.0,0.0,1.0,0.0,0.0,0.0,1.0,-0.560243188477,-3.38540114746,10.2759135254,1.0,0.0,0.0,0.0,1.0,0.0,0.0,0.0,1.0
1463846108965200124,440,1463846108954733516,,28.7080783844,-2.02424192429,-60.9129295349,0.020408000797,1.0,0.0,0.0,0.0,1.0,0.0,0.0,0.0,1.0,44.6341438293,222.987808228,-48.4756126404,1.0,0.0,0.0,0.0,1.0,0.0,0.0,0.0,1.0,-1.18273554705,-3.31836350098,9.64384487163,1.0,0.0,0.0,0.0,1.0,0.0,0.0,0.0,1.0
1463846109022958435,441,1463846108975105403,,33.575302124,-1.62263917923,-61.8003501892,0.0204169992357,1.0,0.0,0.0,0.0,1.0,0.0,0.0,0.0,1.0,47.5,240.975616455,-40.3048782349,1.0,0.0,0.0,0.0,1.0,0.0,0.0,0.0,1.0,-3.21301862793,-2.77248552246,9.86411083984,1.0,0.0,0.0,0.0,1.0,0.0,0.0,0.0,1.0
1463846109023345344,442,1463846108995490361,,38.0666618347,-1.20460605621,-62.7170944214,0.0204249992967,1.0,0.0,0.0,0.0,1.0,0.0,0.0,0.0,1.0,48.4146347046,215.853668213,-43.1707305908,1.0,0.0,0.0,0.0,1.0,0.0,0.0,0.0,1.0,-5.36780012207,-1.99676418457,9.37090471333,1.0,0.0,0.0,0.0,1.0,0.0,0.0,0.0,1.0
1463846109041404367,443,1463846109015842248,,42.0051574707,-0.821696639061,-63.5044937134,0.0204050000757,1.0,0.0,0.0,0.0,1.0,0.0,0.0,0.0,1.0,44.6951217651,188.780502319,-37.9878044128,1.0,0.0,0.0,0.0,1.0,0.0,0.0,0.0,1.0,-5.62637390137,-1.72382519531,8.27914934082,1.0,0.0,0.0,0.0,1.0,0.0,0.0,0.0,1.0
1463846109041451760,444,1463846109036333295,,45.2726783752,-0.348584741354,-63.9967041016,0.0204150006175,1.0,0.0,0.0,0.0,1.0,0.0,0.0,0.0,1.0,39.6951217651,153.902450562,-28.0487804413,1.0,0.0,0.0,0.0,1.0,0.0,0.0,0.0,1.0,-7.50342800293,-1.69509477539,9.01177504883,1.0,0.0,0.0,0.0,1.0,0.0,0.0,0.0,1.0
1463846109083525419,445,1463846109057149744,,47.7027931213,0.30420139432,-64.0557327271,0.0203930009156,1.0,0.0,0.0,0.0,1.0,0.0,0.0,0.0,1.0,36.8902435303,113.048782349,-10.548781395,1.0,0.0,0.0,0.0,1.0,0.0,0.0,0.0,1.0,-7.78115539551,-2.56658417969,8.42758925923,1.0,0.0,0.0,0.0,1.0,0.0,0.0,0.0,1.0
1463846109083591926,446,1463846109077183520,,49.3630256653,1.6291012764,-63.2671737671,0.0203959997743,1.0,0.0,0.0,0.0,1.0,0.0,0.0,0.0,1.0,34.4512214661,70.9146347046,11.6463422775,1.0,0.0,0.0,0.0,1.0,0.0,0.0,0.0,1.0,-9.55765361187,-1.36948334961,8.03494077148,1.0,0.0,0.0,0.0,1.0,0.0,0.0,0.0,1.0
1463846109126239361,447,1463846109097782635,,49.7710723877,3.2650783062,-61.9711837769,0.0204189997166,1.0,0.0,0.0,0.0,1.0,0.0,0.0,0.0,1.0,29.0853672028,14.3902444839,26.9512195587,1.0,0.0,0.0,0.0,1.0,0.0,0.0,0.0,1.0,-9.2655604248,-0.900219824219,8.43237766255,1.0,0.0,0.0,0.0,1.0,0.0,0.0,0.0,1.0
1463846109126741526,448,1463846109117941978,,49.0353507996,5.10310125351,-60.2804527283,0.0203949995339,1.0,0.0,0.0,0.0,1.0,0.0,0.0,0.0,1.0,25.7317085266,-39.817073822,45.182926178,1.0,0.0,0.0,0.0,1.0,0.0,0.0,0.0,1.0,-8.82502731934,-1.14921679688,7.86255825195,1.0,0.0,0.0,0.0,1.0,0.0,0.0,0.0,1.0
1463846109176960335,449,1463846109138448233,,47.2477912903,7.05182218552,-58.3564414978,0.0204099994153,1.0,0.0,0.0,0.0,1.0,0.0,0.0,0.0,1.0,25.4878044128,-90.8536605835,63.0487861633,1.0,0.0,0.0,0.0,1.0,0.0,0.0,0.0,1.0,-8.67658681641,-1.45567460937,7.25443103027,1.0,0.0,0.0,0.0,1.0,0.0,0.0,0.0,1.0
1463846109177012937,450,1463846109158726165,,44.526386261,9.01525878906,-56.3498306274,0.0204060003161,1.0,0.0,0.0,0.0,1.0,0.0,0.0,0.0,1.0,29.1463413239,-132.317077637,81.1585388184,1.0,0.0,0.0,0.0,1.0,0.0,0.0,0.0,1.0,-7.34062229004,-1.90099611816,6.68461103516,1.0,0.0,0.0,0.0,1.0,0.0,0.0,0.0,1.0
1463846109209886337,451,1463846109179202369,,40.8685684204,10.9995107651,-54.2638473511,0.020408000797,1.0,0.0,0.0,0.0,1.0,0.0,0.0,0.0,1.0,31.9512214661,-169.207321167,99.0243911743,1.0,0.0,0.0,0.0,1.0,0.0,0.0,0.0,1.0,-5.88494768066,-1.40300217285,6.80910952148,1.0,0.0,0.0,0.0,1.0,0.0,0.0,0.0,1.0
1463846109209925658,452,1463846109199772214,,36.6068687439,12.8072395325,-52.1682395935,0.0204119998962,1.0,0.0,0.0,0.0,1.0,0.0,0.0,0.0,1.0,32.1951217651,-192.317077637,117.195121765,1.0,0.0,0.0,0.0,1.0,0.0,0.0,0.0,1.0,-5.02303508301,-1.69988317871,6.90008918457,1.0,0.0,0.0,0.0,1.0,0.0,0.0,0.0,1.0
1463846109262503371,453,1463846109220009366,,31.717628479,14.4373273849,-50.1789398193,0.020422000438,1.0,0.0,0.0,0.0,1.0,0.0,0.0,0.0,1.0,31.8902454376,-217.256103516,127.5,1.0,0.0,0.0,0.0,1.0,0.0,0.0,0.0,1.0,-4.21858303293,-0.91458503418,7.01979926758,1.0,0.0,0.0,0.0,1.0,0.0,0.0,0.0,1.0
1463846109262562014,454,1463846109240359534,,26.3867492676,15.6350269318,-48.4254417419,0.0203949995339,1.0,0.0,0.0,0.0,1.0,0.0,0.0,0.0,1.0,24.6341457367,-233.170730591,130.975616455,1.0,0.0,0.0,0.0,1.0,0.0,0.0,0.0,1.0,-3.05021291504,-0.545877978516,7.26879624023,1.0,0.0,0.0,0.0,1.0,0.0,0.0,0.0,1.0
1463846109262598158,455,1463846109260907245,,20.8739757538,16.4613285065,-46.7939147949,0.020433999598,1.0,0.0,0.0,0.0,1.0,0.0,0.0,0.0,1.0,17.9268302917,-234.329269409,132.926834106,1.0,0.0,0.0,0.0,1.0,0.0,0.0,0.0,1.0,-1.65199914551,-0.421379492187,7.67581052246,1.0,0.0,0.0,0.0,1.0,0.0,0.0,0.0,1.0
1463846109284572731,456,1463846109281381783,,15.3623800278,16.949848175,-45.2279319763,0.0204310007393,1.0,0.0,0.0,0.0,1.0,0.0,0.0,0.0,1.0,11.4024391174,-228.536590576,132.621948242,1.0,0.0,0.0,0.0,1.0,0.0,0.0,0.0,1.0,-0.253785375977,-0.411802685547,7.69496413574,1.0,0.0,0.0,0.0,1.0,0.0,0.0,0.0,1.0
1463846109304115019,457,1463846109301670651,,10.1442327499,17.1943454742,-43.7060241699,0.0203530006111,1.0,0.0,0.0,0.0,1.0,0.0,0.0,0.0,1.0,6.09756088257,-218.536590576,128.963424683,1.0,0.0,0.0,0.0,1.0,0.0,0.0,0.0,1.0,-0.0478840332031,-0.134075302102,7.64229169922,1.0,0.0,0.0,0.0,1.0,0.0,0.0,0.0,1.0
1463846109324160097,458,1463846109322197790,,5.2106347084,17.155632019,-42.0806999207,0.0205090008676,1.0,0.0,0.0,0.0,1.0,0.0,0.0,0.0,1.0,-1.8902438879,-201.463409424,128.17074585,1.0,0.0,0.0,0.0,1.0,0.0,0.0,0.0,1.0,0.746990917969,-0.0526724365234,8.3270327895,1.0,0.0,0.0,0.0,1.0,0.0,0.0,0.0,1.0
1463846109352171843,459,1463846109342393538,,0.526627361774,16.864107132,-40.4081916809,0.0203130003065,1.0,0.0,0.0,0.0,1.0,0.0,0.0,0.0,1.0,-5.91463422775,-194.817077637,127.865852356,1.0,0.0,0.0,0.0,1.0,0.0,0.0,0.0,1.0,1.16837033709,-0.411802685547,10.3429511719,1.0,0.0,0.0,0.0,1.0,0.0,0.0,0.0,1.0
1463846109367117049,460,1463846109363830480,,-3.9469575882,16.275806427,-38.489818573,0.0204419996589,1.0,0.0,0.0,0.0,1.0,0.0,0.0,0.0,1.0,-14.6341466904,-168.902435303,128.658538818,1.0,0.0,0.0,0.0,1.0,0.0,0.0,0.0,1.0,3.40455476074,-0.383072265625,7.18260498047,1.0,0.0,0.0,0.0,1.0,0.0,0.0,0.0,1.0
1463846109387174157,461,1463846109383966543,,-7.80470609665,15.4436845779,-36.3610992432,0.0210619997233,1.0,0.0,0.0,0.0,1.0,0.0,0.0,0.0,1.0,-14.8780498505,-142.073181152,123.841461182,1.0,0.0,0.0,0.0,1.0,0.0,0.0,0.0,1.0,3.29442148437,-0.943315454102,8.36534001606,1.0,0.0,0.0,0.0,1.0,0.0,0.0,0.0,1.0
1463846109412036099,462,1463846109403873971,,-10.7611665726,14.677986145,-34.3866157532,0.0197119992226,1.0,0.0,0.0,0.0,1.0,0.0,0.0,0.0,1.0,-9.20731735229,-114.939025879,111.036590576,1.0,0.0,0.0,0.0,1.0,0.0,0.0,0.0,1.0,3.38061274414,-0.943315454102,8.06845959473,1.0,0.0,0.0,0.0,1.0,0.0,0.0,0.0,1.0
1463846109427034844,463,1463846109423966598,,-13.1977729797,13.987282753,-32.5532341003,0.0204210001975,1.0,0.0,0.0,0.0,1.0,0.0,0.0,0.0,1.0,-4.51219558716,-91.4634170532,91.341468811,1.0,0.0,0.0,0.0,1.0,0.0,0.0,0.0,1.0,3.57214887695,-0.632069238281,8.13070883789,1.0,0.0,0.0,0.0,1.0,0.0,0.0,0.0,1.0
1463846109452802266,464,1463846109444344161,,-14.9858636856,13.4592266083,-30.9826564789,0.0203990004957,1.0,0.0,0.0,0.0,1.0,0.0,0.0,0.0,1.0,0.670731723309,-64.1463394165,69.8780517578,1.0,0.0,0.0,0.0,1.0,0.0,0.0,0.0,1.0,4.2999864739,-0.354341845703,8.40364724263,1.0,0.0,0.0,0.0,1.0,0.0,0.0,0.0,1.0
1463846109469771858,465,1463846109464767763,,-15.9524860382,13.0774765015,-29.6512355804,0.0204109996557,1.0,0.0,0.0,0.0,1.0,0.0,0.0,0.0,1.0,5.24390268326,-28.475610733,48.5975608826,1.0,0.0,0.0,0.0,1.0,0.0,0.0,0.0,1.0,4.8554409668,-0.272938989258,8.85854614258,1.0,0.0,0.0,0.0,1.0,0.0,0.0,0.0,1.0
1463846109495174869,466,1463846109485212666,,-16.0169277191,12.7984294891,-28.4964580536,0.0204199999571,1.0,0.0,0.0,0.0,1.0,0.0,0.0,0.0,1.0,7.31707334518,11.4024391174,30.6097583771,1.0,0.0,0.0,0.0,1.0,0.0,0.0,0.0,1.0,5.00388146973,-0.129286889648,9.14106193848,1.0,0.0,0.0,0.0,1.0,0.0,0.0,0.0,1.0
1463846109509929094,467,1463846109505660902,,-15.2208433151,12.6052932739,-27.5212059021,0.0203879997134,1.0,0.0,0.0,0.0,1.0,0.0,0.0,0.0,1.0,7.98780536652,47.134147644,14.3292694092,1.0,0.0,0.0,0.0,1.0,0.0,0.0,0.0,1.0,4.21858303293,0.0478840332031,8.98783303223,1.0,0.0,0.0,0.0,1.0,0.0,0.0,0.0,1.0
1463846109529947871,468,1463846109526116743,,-13.7008714676,12.4539403915,-26.6458835602,0.0204179994762,1.0,0.0,0.0,0.0,1.0,0.0,0.0,0.0,1.0,8.29268264771,75.6097564697,3.53658556938,1.0,0.0,0.0,0.0,1.0,0.0,0.0,0.0,1.0,3.03584770508,0.0335188255255,8.76756647949,1.0,0.0,0.0,0.0,1.0,0.0,0.0,0.0,1.0
1463846109552936460,469,1463846109546306814,,-11.7535209656,12.346411705,-25.8420391083,0.0203939992934,1.0,0.0,0.0,0.0,1.0,0.0,0.0,0.0,1.0,8.47560977936,94.8780517578,-3.35365867615,1.0,0.0,0.0,0.0,1.0,0.0,0.0,0.0,1.0,2.7581203125,0.0335188255255,9.06444748535,1.0,0.0,0.0,0.0,1.0,0.0,0.0,0.0,1.0
1463846109570009746,470,1463846109566919782,,-9.51200962067,12.263174057,-25.0777359009,0.0204150006175,1.0,0.0,0.0,0.0,1.0,0.0,0.0,0.0,1.0,8.78048801422,107.073173523,-7.31707334518,1.0,0.0,0.0,0.0,1.0,0.0,0.0,0.0,1.0,2.03028300781,-0.0814028564453,8.48983967144,1.0,0.0,0.0,0.0,1.0,0.0,0.0,0.0,1.0
1463846109589707131,471,1463846109587301876,,-7.07398462296,12.2788276672,-24.4014205933,0.0204160008579,1.0,0.0,0.0,0.0,1.0,0.0,0.0,0.0,1.0,10.3048782349,111.646347046,-11.6463422775,1.0,0.0,0.0,0.0,1.0,0.0,0.0,0.0,1.0,0.986411083984,0.134075302102,7.9918451416,1.0,0.0,0.0,0.0,1.0,0.0,0.0,0.0,1.0
1463846109612982791,472,1463846109608110044,,-4.57142925262,12.3330421448,-23.9130058289,0.0207460001111,1.0,0.0,0.0,0.0,1.0,0.0,0.0,0.0,1.0,8.96341514587,103.902442932,-19.0243911743,1.0,0.0,0.0,0.0,1.0,0.0,0.0,0.0,1.0,-0.378283862305,0.272938989258,8.0397291748,1.0,0.0,0.0,0.0,1.0,0.0,0.0,0.0,1.0
1463846109633393321,473,1463846109631285760,,-2.40606379509,12.375831604,-23.5267829895,0.0200689993799,1.0,0.0,0.0,0.0,1.0,0.0,0.0,0.0,1.0,6.64634132385,95.0,-20.975610733,1.0,0.0,0.0,0.0,1.0,0.0,0.0,0.0,1.0,-0.0909796630859,0.402225878906,8.528146898,1.0,0.0,0.0,0.0,1.0,0.0,0.0,0.0,1.0
1463846109653060030,474,1463846109650045272,,-0.336593449116,12.3812503815,-23.1940765381,0.0204329993576,1.0,0.0,0.0,0.0,1.0,0.0,0.0,0.0,1.0,3.7804877758,83.1707305908,-21.0365848541,1.0,0.0,0.0,0.0,1.0,0.0,0.0,0.0,1.0,-1.11569797363,0.411802685547,8.14986245117,1.0,0.0,0.0,0.0,1.0,0.0,0.0,0.0,1.0
1463846109671605228,475,1463846109669457774,,1.47032356262,12.3236179352,-22.9117870331,0.0209890007973,1.0,0.0,0.0,0.0,1.0,0.0,0.0,0.0,1.0,0.792682945728,68.9634170532,-20.4268302917,1.0,0.0,0.0,0.0,1.0,0.0,0.0,0.0,1.0,-1.23540805664,0.330399829102,8.15943925781,1.0,0.0,0.0,0.0,1.0,0.0,0.0,0.0,1.0
1463846109691436097,476,1463846109689109588,,2.82711982727,12.2259225845,-22.6593875885,0.0197950005531,1.0,0.0,0.0,0.0,1.0,0.0,0.0,0.0,1.0,-1.52439022064,53.6585388184,-17.3780498505,1.0,0.0,0.0,0.0,1.0,0.0,0.0,0.0,1.0,-1.24498486328,0.301669427446,8.45631967915,1.0,0.0,0.0,0.0,1.0,0.0,0.0,0.0,1.0
1463846109715166215,477,1463846109709675580,,3.93277263641,12.073548317,-22.2029933929,0.0204130001366,1.0,0.0,0.0,0.0,1.0,0.0,0.0,0.0,1.0,-5.67073154449,44.4512176514,-5.24390268326,1.0,0.0,0.0,0.0,1.0,0.0,0.0,0.0,1.0,-1.06302561017,0.430956298828,8.87769975586,1.0,0.0,0.0,0.0,1.0,0.0,0.0,0.0,1.0
1463846109734798864,478,1463846109730117098,,4.79241228104,11.8362073898,-21.6624240875,0.0204150006175,1.0,0.0,0.0,0.0,1.0,0.0,0.0,0.0,1.0,-9.69512176514,35.3658561707,1.2804877758,1.0,0.0,0.0,0.0,1.0,0.0,0.0,0.0,1.0,-0.900219824219,0.263362164351,8.5760309312,1.0,0.0,0.0,0.0,1.0,0.0,0.0,0.0,1.0
1463846109752629563,479,1463846109750750951,,5.44825410843,11.5775871277,-21.1946659088,0.020428000018,1.0,0.0,0.0,0.0,1.0,0.0,0.0,0.0,1.0,-12.0731716156,24.6341457367,0.0609756112099,1.0,0.0,0.0,0.0,1.0,0.0,0.0,0.0,1.0,-1.06302561017,0.430956298828,8.65743378765,1.0,0.0,0.0,0.0,1.0,0.0,0.0,0.0,1.0
1463846109781019261,480,1463846109774405343,,5.8672451973,11.2436218262,-20.698217392,0.0211839992553,1.0,0.0,0.0,0.0,1.0,0.0,0.0,0.0,1.0,-15.4878053665,14.6341466904,2.86585378647,1.0,0.0,0.0,0.0,1.0,0.0,0.0,0.0,1.0,-0.861912597656,0.411802685547,8.90164177246,1.0,0.0,0.0,0.0,1.0,0.0,0.0,0.0,1.0
1463846109793401510,481,1463846109791447537,,6.09872531891,10.8719854355,-20.1685161591,0.0195899996907,1.0,0.0,0.0,0.0,1.0,0.0,0.0,0.0,1.0,-18.0487823486,10.7926826477,7.56097555161,1.0,0.0,0.0,0.0,1.0,0.0,0.0,0.0,1.0,-0.387860668945,0.181959326172,9.08838950195,1.0,0.0,0.0,0.0,1.0,0.0,0.0,0.0,1.0
1463846109814287435,482,1463846109812239924,,6.3050775528,10.4722003937,-19.6057872772,0.0204119998962,1.0,0.0,0.0,0.0,1.0,0.0,0.0,0.0,1.0,-19.1463432312,9.93902492523,8.35365867615,1.0,0.0,0.0,0.0,1.0,0.0,0.0,0.0,1.0,-0.282515795898,0.177170922852,9.20809958496,1.0,0.0,0.0,0.0,1.0,0.0,0.0,0.0,1.0
1463846109834225174,483,1463846109832652798,,6.43996143341,10.075753212,-19.0647850037,0.0204409994185,1.0,0.0,0.0,0.0,1.0,0.0,0.0,0.0,1.0,-19.5121955872,6.82926845551,7.86585378647,1.0,0.0,0.0,0.0,1.0,0.0,0.0,0.0,1.0,-0.196324536133,0.210689746094,9.18415756836,1.0,0.0,0.0,0.0,1.0,0.0,0.0,0.0,1.0
1463846109854391184,484,1463846109852434189,,6.59339141846,9.67391395569,-18.5379161835,0.0203740000725,1.0,0.0,0.0,0.0,1.0,0.0,0.0,0.0,1.0,-18.9634151459,7.25609779358,7.37804937363,1.0,0.0,0.0,0.0,1.0,0.0,0.0,0.0,1.0,-0.258573779297,0.0,9.38526992329,1.0,0.0,0.0,0.0,1.0,0.0,0.0,0.0,1.0
1463846109875145969,485,1463846109873080906,,6.66026449203,9.29549026489,-17.9892921448,0.0204199999571,1.0,0.0,0.0,0.0,1.0,0.0,0.0,0.0,1.0,-17.317073822,5.60975599289,8.84146404266,1.0,0.0,0.0,0.0,1.0,0.0,0.0,0.0,1.0,0.148440512063,-0.172382519531,9.40921193989,1.0,0.0,0.0,0.0,1.0,0.0,0.0,0.0,1.0
1463846109895878515,486,1463846109893498623,,6.74498844147,8.96817493439,-17.4031620026,0.0204050000757,1.0,0.0,0.0,0.0,1.0,0.0,0.0,0.0,1.0,-13.9024391174,6.09756088257,10.8536586761,1.0,0.0,0.0,0.0,1.0,0.0,0.0,0.0,1.0,0.0526724365234,-0.445321508789,9.60074924175,1.0,0.0,0.0,0.0,1.0,0.0,0.0,0.0,1.0
1463846109916005099,487,1463846109913920507,,6.82853269577,8.75678443909,-16.761297226,0.0204039998353,1.0,0.0,0.0,0.0,1.0,0.0,0.0,0.0,1.0,-10.0,6.28048801422,13.4756097794,1.0,0.0,0.0,0.0,1.0,0.0,0.0,0.0,1.0,0.0287304199219,-0.253785375977,9.58159562847,1.0,0.0,0.0,0.0,1.0,0.0,0.0,0.0,1.0
1463846109938761877,488,1463846109934327339,,6.88632392883,8.60765647888,-16.0864486694,0.0204109996557,1.0,0.0,0.0,0.0,1.0,0.0,0.0,0.0,1.0,-7.56097555161,2.92682933807,15.6097564697,1.0,0.0,0.0,0.0,1.0,0.0,0.0,0.0,1.0,-0.383072265625,-0.229843359375,9.84016882324,1.0,0.0,0.0,0.0,1.0,0.0,0.0,0.0,1.0
1463846109956687311,489,1463846109954881352,,6.79230642319,8.48373508453,-15.3664102554,0.0205049999058,1.0,0.0,0.0,0.0,1.0,0.0,0.0,0.0,1.0,-5.48780488968,-4.57317066193,18.9634151459,1.0,0.0,0.0,0.0,1.0,0.0,0.0,0.0,1.0,-0.46447512207,-0.445321508789,9.90720646973,1.0,0.0,0.0,0.0,1.0,0.0,0.0,0.0,1.0
1463846109978838856,490,1463846109974869765,,6.52968740463,8.41861248016,-14.6044664383,0.0203089993447,1.0,0.0,0.0,0.0,1.0,0.0,0.0,0.0,1.0,-3.53658556938,-11.8902444839,22.3780498505,1.0,0.0,0.0,0.0,1.0,0.0,0.0,0.0,1.0,-0.330399829102,-0.335188232422,9.84016882324,1.0,0.0,0.0,0.0,1.0,0.0,0.0,0.0,1.0
1463846109998192142,491,1463846109995368312,,6.15609359741,8.34826850891,-13.7767391205,0.0203970000148,1.0,0.0,0.0,0.0,1.0,0.0,0.0,0.0,1.0,-3.04878044128,-15.3658533096,26.0365848541,1.0,0.0,0.0,0.0,1.0,0.0,0.0,0.0,1.0,-0.0287304199219,-0.507570751953,10.0556469727,1.0,0.0,0.0,0.0,1.0,0.0,0.0,0.0,1.0
1463846110018008271,492,1463846110016081328,,5.71024799347,8.3152551651,-12.8682327271,0.020408000797,1.0,0.0,0.0,0.0,1.0,0.0,0.0,0.0,1.0,-2.68292689323,-16.341463089,29.9390258789,1.0,0.0,0.0,0.0,1.0,0.0,0.0,0.0,1.0,0.392649072266,-0.272938989258,9.95987890625,1.0,0.0,0.0,0.0,1.0,0.0,0.0,0.0,1.0
1463846110038635197,493,1463846110036022764,,5.3277888298,8.27091312408,-11.9035177231,0.0204029995948,1.0,0.0,0.0,0.0,1.0,0.0,0.0,0.0,1.0,-3.53658556938,-13.3536586761,32.1951217651,1.0,0.0,0.0,0.0,1.0,0.0,0.0,0.0,1.0,0.392649072266,-0.215478149414,10.046070166,1.0,0.0,0.0,0.0,1.0,0.0,0.0,0.0,1.0
1463846110061946375,494,1463846110056639169,,4.96159315109,8.20034408569,-10.9053926468,0.0204089991748,1.0,0.0,0.0,0.0,1.0,0.0,0.0,0.0,1.0,-5.0,-11.8902444839,33.5365867615,1.0,0.0,0.0,0.0,1.0,0.0,0.0,0.0,1.0,0.531512805087,-0.15801730957,9.71567033691,1.0,0.0,0.0,0.0,1.0,0.0,0.0,0.0,1.0
1463846110081086963,495,1463846110077002357,,4.64281415939,8.07908344269,-9.94392681122,0.0204150006175,1.0,0.0,0.0,0.0,1.0,0.0,0.0,0.0,1.0,-8.17073154449,-10.3658542633,31.341463089,1.0,0.0,0.0,0.0,1.0,0.0,0.0,0.0,1.0,0.521935925381,0.0287304199219,9.81622680664,1.0,0.0,0.0,0.0,1.0,0.0,0.0,0.0,1.0
1463846110102558225,496,1463846110097511944,,4.33389282227,7.8743391037,-9.01741218567,0.0204199999571,1.0,0.0,0.0,0.0,1.0,0.0,0.0,0.0,1.0,-10.7926826477,-9.87804889679,29.5731697083,1.0,0.0,0.0,0.0,1.0,0.0,0.0,0.0,1.0,0.646434448242,-0.181959326172,9.83538041992,1.0,0.0,0.0,0.0,1.0,0.0,0.0,0.0,1.0
1463846110122783867,497,1463846110118507915,,4.10070323944,7.5870218277,-8.11618804932,0.0204639993608,1.0,0.0,0.0,0.0,1.0,0.0,0.0,0.0,1.0,-13.4756097794,-5.36585378647,27.6219520569,1.0,0.0,0.0,0.0,1.0,0.0,0.0,0.0,1.0,0.905008227539,-0.397437475586,9.7348239502,1.0,0.0,0.0,0.0,1.0,0.0,0.0,0.0,1.0
1463846110144574958,498,1463846110138760171,,3.98103475571,7.25163841248,-7.27864360809,0.0203750003129,1.0,0.0,0.0,0.0,1.0,0.0,0.0,0.0,1.0,-15.4878053665,-1.64634156227,24.1463432312,1.0,0.0,0.0,0.0,1.0,0.0,0.0,0.0,1.0,0.727837304687,-0.445321508789,9.5193463853,1.0,0.0,0.0,0.0,1.0,0.0,0.0,0.0,1.0
1463846110163157706,499,1463846110158796915,,3.93397092819,6.86101818085,-6.48834943771,0.0203770007938,1.0,0.0,0.0,0.0,1.0,0.0,0.0,0.0,1.0,-17.317073822,1.95121955872,21.4024391174,1.0,0.0,0.0,0.0,1.0,0.0,0.0,0.0,1.0,0.895431420898,-0.646434448242,9.99818613281,1.0,0.0,0.0,0.0,1.0,0.0,0.0,0.0,1.0
1463846110189055381,500,1463846110179075211,,4.04373025894,6.41147518158,-5.70102071762,0.0204150006175,1.0,0.0,0.0,0.0,1.0,0.0,0.0,0.0,1.0,-18.5975627899,8.65853691101,20.5487823486,1.0,0.0,0.0,0.0,1.0,0.0,0.0,0.0,1.0,0.828393774414,-1.04387185076,10.4387192383,1.0,0.0,0.0,0.0,1.0,0.0,0.0,0.0,1.0
1463846110206040962,501,1463846110199731770,,4.27395820618,5.95349264145,-4.90964174271,0.0204319991171,1.0,0.0,0.0,0.0,1.0,0.0,0.0,0.0,1.0,-18.0487823486,12.6829271317,20.4878044128,1.0,0.0,0.0,0.0,1.0,0.0,0.0,0.0,1.0,0.517147558594,-1.32638771973,10.419565625,1.0,0.0,0.0,0.0,1.0,0.0,0.0,0.0,1.0
1463846110224686989,502,1463846110220274221,,4.5791554451,5.53220653534,-4.11312627792,0.0204029995948,1.0,0.0,0.0,0.0,1.0,0.0,0.0,0.0,1.0,-17.6219520569,16.0975608826,20.5487823486,1.0,0.0,0.0,0.0,1.0,0.0,0.0,0.0,1.0,0.488417138672,-1.23540805664,10.7834842773,1.0,0.0,0.0,0.0,1.0,0.0,0.0,0.0,1.0
1463846110241616999,503,1463846110240377993,,4.91826868057,5.13921451569,-3.32532978058,0.0204000007361,1.0,0.0,0.0,0.0,1.0,0.0,0.0,0.0,1.0,-16.5243911743,15.7317075729,20.3658542633,1.0,0.0,0.0,0.0,1.0,0.0,0.0,0.0,1.0,0.100556469727,-1.32159931641,11.0037508301,1.0,0.0,0.0,0.0,1.0,0.0,0.0,0.0,1.0
1463846110267321663,504,1463846110261053979,,5.2169713974,4.7878537178,-2.55418372154,0.0205199997872,1.0,0.0,0.0,0.0,1.0,0.0,0.0,0.0,1.0,-16.0975608826,12.9268293381,19.6341457367,1.0,0.0,0.0,0.0,1.0,0.0,0.0,0.0,1.0,-0.0478840332031,-1.0534486574,10.7451770508,1.0,0.0,0.0,0.0,1.0,0.0,0.0,0.0,1.0
1463846110294246583,505,1463846110281672207,,5.43436145782,4.42406225204,-1.79419088364,0.0203029997647,1.0,0.0,0.0,0.0,1.0,0.0,0.0,0.0,1.0,-17.7439022064,9.26829242706,19.8780498505,1.0,0.0,0.0,0.0,1.0,0.0,0.0,0.0,1.0,-0.0239420166016,-0.962469067383,10.4913916748,1.0,0.0,0.0,0.0,1.0,0.0,0.0,0.0,1.0
1463846110329534560,506,1463846110302424648,,5.6038403511,4.03196907043,-1.00531923771,0.0204029995948,1.0,0.0,0.0,0.0,1.0,0.0,0.0,0.0,1.0,-18.3536586761,10.548781395,21.2195129395,1.0,0.0,0.0,0.0,1.0,0.0,0.0,0.0,1.0,0.665588061523,-1.22583125,10.5967365479,1.0,0.0,0.0,0.0,1.0,0.0,0.0,0.0,1.0
1463846110330067140,507,1463846110322456445,,5.90288972855,3.6522629261,-0.202917218208,0.0205269996077,1.0,0.0,0.0,0.0,1.0,0.0,0.0,0.0,1.0,-17.5609760284,13.1097564697,21.6463432312,1.0,0.0,0.0,0.0,1.0,0.0,0.0,0.0,1.0,-0.0239420166016,-1.35990654297,10.6781394043,1.0,0.0,0.0,0.0,1.0,0.0,0.0,0.0,1.0
1463846110356549789,508,1463846110343709384,,6.16304779053,3.32163357735,0.582489967346,0.0202699992806,1.0,0.0,0.0,0.0,1.0,0.0,0.0,0.0,1.0,-15.3658533096,10.548781395,21.6463432312,1.0,0.0,0.0,0.0,1.0,0.0,0.0,0.0,1.0,-0.186747729492,-1.45567460937,10.6063133545,1.0,0.0,0.0,0.0,1.0,0.0,0.0,0.0,1.0
1463846110365631198,509,1463846110363189955,,6.34921741486,3.02865481377,1.35711789131,0.0204639993608,1.0,0.0,0.0,0.0,1.0,0.0,0.0,0.0,1.0,-11.8292684555,6.64634132385,21.2804889679,1.0,0.0,0.0,0.0,1.0,0.0,0.0,0.0,1.0,-0.210689746094,-1.81001645508,10.4674496582,1.0,0.0,0.0,0.0,1.0,0.0,0.0,0.0,1.0
1463846110399137590,510,1463846110384026819,,6.50738668442,2.87047052383,2.12494325638,0.020707000047,1.0,0.0,0.0,0.0,1.0,0.0,0.0,0.0,1.0,-6.82926845551,6.40243911743,20.4268302917,1.0,0.0,0.0,0.0,1.0,0.0,0.0,0.0,1.0,0.0143652099609,-1.54665427246,10.4913916748,1.0,0.0,0.0,0.0,1.0,0.0,0.0,0.0,1.0
1463846110415628089,511,1463846110404595414,,6.66792201996,2.79680991173,2.82872438431,0.0201719999313,1.0,0.0,0.0,0.0,1.0,0.0,0.0,0.0,1.0,-2.92682933807,5.97560977936,18.2926826477,1.0,0.0,0.0,0.0,1.0,0.0,0.0,0.0,1.0,-0.119710083008,-1.51313544922,10.3668931885,1.0,0.0,0.0,0.0,1.0,0.0,0.0,0.0,1.0
1463846110445198670,512,1463846110424606326,,6.85619401932,2.79312181473,3.5174882412,0.020361000672,1.0,0.0,0.0,0.0,1.0,0.0,0.0,0.0,1.0,1.03658533096,4.87804889679,17.3780498505,1.0,0.0,0.0,0.0,1.0,0.0,0.0,0.0,1.0,-0.560243188477,-1.57538469238,10.0700121826,1.0,0.0,0.0,0.0,1.0,0.0,0.0,0.0,1.0
1463846110450280626,513,1463846110444669215,,6.96596193314,2.8268866539,4.20869779587,0.0203750003129,1.0,0.0,0.0,0.0,1.0,0.0,0.0,0.0,1.0,4.57317066193,3.10975623131,17.8048782349,1.0,0.0,0.0,0.0,1.0,0.0,0.0,0.0,1.0,-0.210689746094,-1.89620771484,9.97903251953,1.0,0.0,0.0,0.0,1.0,0.0,0.0,0.0,1.0
1463846110467753946,514,1463846110465071880,,7.09758758545,2.94829106331,4.91557312012,0.0204450003803,1.0,0.0,0.0,0.0,1.0,0.0,0.0,0.0,1.0,10.0609760284,7.31707334518,18.4146347046,1.0,0.0,0.0,0.0,1.0,0.0,0.0,0.0,1.0,0.330399829102,-2.12126281703,9.84495722656,1.0,0.0,0.0,0.0,1.0,0.0,0.0,0.0,1.0
1463846110488929544,515,1463846110485276533,,7.3738951683,3.18384385109,5.59113454819,0.0203510001302,1.0,0.0,0.0,0.0,1.0,0.0,0.0,0.0,1.0,15.3048791885,10.9146347046,16.7682933807,1.0,0.0,0.0,0.0,1.0,0.0,0.0,0.0,1.0,-0.330399829102,-1.99676418457,9.74918916016,1.0,0.0,0.0,0.0,1.0,0.0,0.0,0.0,1.0
1463846110508847596,516,1463846110505876690,,7.57951498032,3.17780923843,6.13789653778,0.0204140003771,1.0,0.0,0.0,0.0,1.0,0.0,0.0,0.0,1.0,16.8292694092,6.28048801422,12.3170728683,1.0,0.0,0.0,0.0,1.0,0.0,0.0,0.0,1.0,-0.426167895508,-4.2329482429,8.94473740234,1.0,0.0,0.0,0.0,1.0,0.0,0.0,0.0,1.0
1463846110527987350,517,1463846110526311489,,7.82760000229,3.52378225327,6.80989074707,0.020422000438,1.0,0.0,0.0,0.0,1.0,0.0,0.0,0.0,1.0,21.8292694092,5.85365867615,16.9512195587,1.0,0.0,0.0,0.0,1.0,0.0,0.0,0.0,1.0,-1.07260241682,-2.2170307373,9.67257470703,1.0,0.0,0.0,0.0,1.0,0.0,0.0,0.0,1.0
1463846110552739921,518,1463846110547045857,,7.91243982315,3.90321159363,7.53847742081,0.0203949995339,1.0,0.0,0.0,0.0,1.0,0.0,0.0,0.0,1.0,22.0121955872,5.42682933807,19.6341457367,1.0,0.0,0.0,0.0,1.0,0.0,0.0,0.0,1.0,0.143652099609,-1.94409174805,9.61511445171,1.0,0.0,0.0,0.0,1.0,0.0,0.0,0.0,1.0
1463846110571208351,519,1463846110567000105,,8.06951904297,4.28918218613,8.27107143402,0.0204029995948,1.0,0.0,0.0,0.0,1.0,0.0,0.0,0.0,1.0,22.0121955872,9.08536529541,19.4512195587,1.0,0.0,0.0,0.0,1.0,0.0,0.0,0.0,1.0,0.105344873047,-1.84832368164,9.66778688823,1.0,0.0,0.0,0.0,1.0,0.0,0.0,0.0,1.0
1463846110591510083,520,1463846110587752338,,8.21499919891,4.71106529236,8.94719982147,0.0204029995948,1.0,0.0,0.0,0.0,1.0,0.0,0.0,0.0,1.0,17.7439022064,4.81707286835,16.0365848541,1.0,0.0,0.0,0.0,1.0,0.0,0.0,0.0,1.0,-0.493205541992,-0.545877978516,8.09719001465,1.0,0.0,0.0,0.0,1.0,0.0,0.0,0.0,1.0
1463846110611368346,521,1463846110608231926,,8.41249847412,4.99928426743,9.74457550049,0.0204240009189,1.0,0.0,0.0,0.0,1.0,0.0,0.0,0.0,1.0,13.1707324982,9.20731735229,21.8902435303,1.0,0.0,0.0,0.0,1.0,0.0,0.0,0.0,1.0,-0.402225878906,-1.08217922346,9.50976957866,1.0,0.0,0.0,0.0,1.0,0.0,0.0,0.0,1.0
1463846110630825638,522,1463846110629111705,,8.52259540558,5.11276626587,10.5577068329,0.0204259995371,1.0,0.0,0.0,0.0,1.0,0.0,0.0,0.0,1.0,8.41463470459,8.35365867615,23.2926845551,1.0,0.0,0.0,0.0,1.0,0.0,0.0,0.0,1.0,0.134075302102,-1.81959326172,9.90241806641,1.0,0.0,0.0,0.0,1.0,0.0,0.0,0.0,1.0
1463846110650370425,523,1463846110648997258,,8.67894172668,5.1869931221,11.2899827957,0.0203910004348,1.0,0.0,0.0,0.0,1.0,0.0,0.0,0.0,1.0,5.91463422775,7.43902492523,19.3292694092,1.0,0.0,0.0,0.0,1.0,0.0,0.0,0.0,1.0,-0.402225878906,-1.57059628906,9.71088193359,1.0,0.0,0.0,0.0,1.0,0.0,0.0,0.0,1.0
1463846110684101754,524,1463846110668943382,,8.74814987183,5.21267747879,11.9249725342,0.0204169992357,1.0,0.0,0.0,0.0,1.0,0.0,0.0,0.0,1.0,2.07317066193,0.426829278469,14.8780498505,1.0,0.0,0.0,0.0,1.0,0.0,0.0,0.0,1.0,-0.833182177734,-1.16358193377,9.57680722515,1.0,0.0,0.0,0.0,1.0,0.0,0.0,0.0,1.0
1463846110702234262,525,1463846110690165697,,8.68707180023,5.08639192581,12.5194835663,0.0203799996525,1.0,0.0,0.0,0.0,1.0,0.0,0.0,0.0,1.0,-4.69512224197,-2.43902444839,13.2926826477,1.0,0.0,0.0,0.0,1.0,0.0,0.0,0.0,1.0,-0.205901342773,-1.22104284668,9.55765361187,1.0,0.0,0.0,0.0,1.0,0.0,0.0,0.0,1.0
1463846110718724501,526,1463846110709991878,,8.59648609161,4.79653644562,13.0840196609,0.0204860009253,1.0,0.0,0.0,0.0,1.0,0.0,0.0,0.0,1.0,-9.75609779358,-4.32926845551,12.2560977936,1.0,0.0,0.0,0.0,1.0,0.0,0.0,0.0,1.0,-0.225054956055,-1.71424838867,9.56244201519,1.0,0.0,0.0,0.0,1.0,0.0,0.0,0.0,1.0
1463846110737355580,527,1463846110730276371,,8.53654193878,4.41948318481,13.6331186295,0.020331999287,1.0,0.0,0.0,0.0,1.0,0.0,0.0,0.0,1.0,-12.5,-0.12195122242,11.5853662491,1.0,0.0,0.0,0.0,1.0,0.0,0.0,0.0,1.0,0.320823022461,-2.09732050817,9.80186159668,1.0,0.0,0.0,0.0,1.0,0.0,0.0,0.0,1.0
1463846110755249505,528,1463846110750774188,,8.55539226532,4.04546356201,14.1328105927,0.0204240009189,1.0,0.0,0.0,0.0,1.0,0.0,0.0,0.0,1.0,-13.5975618362,1.52439022064,8.71951198578,1.0,0.0,0.0,0.0,1.0,0.0,0.0,0.0,1.0,-0.00957680664062,-1.83395847168,9.77791958008,1.0,0.0,0.0,0.0,1.0,0.0,0.0,0.0,1.0
1463846110784691655,529,1463846110771060556,,8.58341407776,3.59314036369,14.5429830551,0.0203930009156,1.0,0.0,0.0,0.0,1.0,0.0,0.0,0.0,1.0,-18.1097564697,-0.12195122242,4.39024400711,1.0,0.0,0.0,0.0,1.0,0.0,0.0,0.0,1.0,-0.292092584273,-1.58974990234,9.33738589009,1.0,0.0,0.0,0.0,1.0,0.0,0.0,0.0,1.0
1463846110808721134,530,1463846110791522438,,8.58916473389,3.01656985283,14.8422822952,0.0204150006175,1.0,0.0,0.0,0.0,1.0,0.0,0.0,0.0,1.0,-23.0487823486,-4.75609779358,-0.609756112099,1.0,0.0,0.0,0.0,1.0,0.0,0.0,0.0,1.0,-0.818816967773,-1.74776721191,9.43315395649,1.0,0.0,0.0,0.0,1.0,0.0,0.0,0.0,1.0
1463846110822547484,531,1463846110813313581,,8.4423789978,2.33205270767,15.0386638641,0.0204210001975,1.0,0.0,0.0,0.0,1.0,0.0,0.0,0.0,1.0,-25.9146347046,-10.4268293381,-5.06097555161,1.0,0.0,0.0,0.0,1.0,0.0,0.0,0.0,1.0,-0.46447512207,-2.26491477051,9.99818613281,1.0,0.0,0.0,0.0,1.0,0.0,0.0,0.0,1.0
1463846110852551535,532,1463846110832928417,,8.26658630371,1.60414600372,15.1766700745,0.020428000018,1.0,0.0,0.0,0.0,1.0,0.0,0.0,0.0,1.0,-27.4390258789,-9.26829242706,-7.98780536652,1.0,0.0,0.0,0.0,1.0,0.0,0.0,0.0,1.0,0.076614453125,-2.39899020961,9.92636008301,1.0,0.0,0.0,0.0,1.0,0.0,0.0,0.0,1.0
1463846110864352872,533,1463846110853532532,,8.18796539307,0.871251821518,15.3257427216,0.0205039996654,1.0,0.0,0.0,0.0,1.0,0.0,0.0,0.0,1.0,-29.8780498505,-3.53658556938,-7.98780536652,1.0,0.0,0.0,0.0,1.0,0.0,0.0,0.0,1.0,0.277727392578,-2.03028300781,9.60074924175,1.0,0.0,0.0,0.0,1.0,0.0,0.0,0.0,1.0
1463846110878083914,534,1463846110873579327,,8.21486473083,0.086685039103,15.4650535583,0.0202890001237,1.0,0.0,0.0,0.0,1.0,0.0,0.0,0.0,1.0,-33.1097564697,0.670731723309,-8.41463470459,1.0,0.0,0.0,0.0,1.0,0.0,0.0,0.0,1.0,0.143652099609,-2.12605122035,9.76834277344,1.0,0.0,0.0,0.0,1.0,0.0,0.0,0.0,1.0
1463846110898580585,535,1463846110893750076,,8.28507995605,-0.772692918777,15.5677146912,0.0204109996557,1.0,0.0,0.0,0.0,1.0,0.0,0.0,0.0,1.0,-34.9390258789,1.95121955872,-9.87804889679,1.0,0.0,0.0,0.0,1.0,0.0,0.0,0.0,1.0,0.0191536132812,-2.46123930664,9.5193463853,1.0,0.0,0.0,0.0,1.0,0.0,0.0,0.0,1.0
1463846110937700003,536,1463846110914290026,,8.35411834717,-1.62654232979,15.61997509,0.0203900001943,1.0,0.0,0.0,0.0,1.0,0.0,0.0,0.0,1.0,-36.0365867615,1.8902438879,-12.3780488968,1.0,0.0,0.0,0.0,1.0,0.0,0.0,0.0,1.0,0.00478840332031,-2.22181914063,9.18415756836,1.0,0.0,0.0,0.0,1.0,0.0,0.0,0.0,1.0
1463846110940861317,537,1463846110934346197,,8.40928840637,-2.53501772881,15.6221055984,0.0204019993544,1.0,0.0,0.0,0.0,1.0,0.0,0.0,0.0,1.0,-38.9634132385,0.731707334518,-14.7560987473,1.0,0.0,0.0,0.0,1.0,0.0,0.0,0.0,1.0,-0.0909796630859,-2.14041643031,8.72447084961,1.0,0.0,0.0,0.0,1.0,0.0,0.0,0.0,1.0
1463846111022020070,538,1463846110954852191,,8.4426279068,-3.48844051361,15.5787181854,0.0205019991845,1.0,0.0,0.0,0.0,1.0,0.0,0.0,0.0,1.0,-40.7317085266,-1.15853655338,-16.8902435303,1.0,0.0,0.0,0.0,1.0,0.0,0.0,0.0,1.0,-0.244208569336,-2.27449157715,8.74362446289,1.0,0.0,0.0,0.0,1.0,0.0,0.0,0.0,1.0
1463846111022877011,539,1463846110975193452,,8.38655853271,-4.45469999313,15.4934015274,0.0203290004283,1.0,0.0,0.0,0.0,1.0,0.0,0.0,0.0,1.0,-42.0731697083,-4.57317066193,-19.1463432312,1.0,0.0,0.0,0.0,1.0,0.0,0.0,0.0,1.0,-0.119710083008,-2.29364519043,8.6239149644,1.0,0.0,0.0,0.0,1.0,0.0,0.0,0.0,1.0
1463846111023355843,540,1463846110995735226,,8.26744174957,-5.44786453247,15.3911447525,0.0204140003771,1.0,0.0,0.0,0.0,1.0,0.0,0.0,0.0,1.0,-44.0853652954,-7.68292665482,-20.3048782349,1.0,0.0,0.0,0.0,1.0,0.0,0.0,0.0,1.0,-0.138863696289,-2.24576115723,8.48505126812,1.0,0.0,0.0,0.0,1.0,0.0,0.0,0.0,1.0
1463846111023739159,541,1463846111016365328,,8.13717746735,-6.48380422592,15.3086147308,0.0204269997776,1.0,0.0,0.0,0.0,1.0,0.0,0.0,0.0,1.0,-45.0,-5.06097555161,-18.9024391174,1.0,0.0,0.0,0.0,1.0,0.0,0.0,0.0,1.0,0.411802685547,-2.72460148926,8.81066210937,1.0,0.0,0.0,0.0,1.0,0.0,0.0,0.0,1.0
1463846111523687899,542,1463846111036539826,,8.10903549194,-7.4820394516,15.2580385208,0.0204130001366,1.0,0.0,0.0,0.0,1.0,0.0,0.0,0.0,1.0,-44.7560997009,-1.2804877758,-17.0121955872,1.0,0.0,0.0,0.0,1.0,0.0,0.0,0.0,1.0,0.253785375977,-2.69587106934,8.91600698242,1.0,0.0,0.0,0.0,1.0,0.0,0.0,0.0,1.0
1463846111523988667,543,1463846111057000613,,8.14539813995,-8.42294883728,15.2397537231,0.0205099992454,1.0,0.0,0.0,0.0,1.0,0.0,0.0,0.0,1.0,-46.0365867615,1.95121955872,-15.4268302917,1.0,0.0,0.0,0.0,1.0,0.0,0.0,0.0,1.0,0.272938989258,-2.09732050817,8.66222219097,1.0,0.0,0.0,0.0,1.0,0.0,0.0,0.0,1.0
1463846111524250374,544,1463846111077205213,,8.19076156616,-9.38597297668,15.2310800552,0.0202920008451,1.0,0.0,0.0,0.0,1.0,0.0,0.0,0.0,1.0,-51.7682952881,1.8902438879,-15.3658533096,1.0,0.0,0.0,0.0,1.0,0.0,0.0,0.0,1.0,0.172382519531,-1.53707746582,8.38928203267,1.0,0.0,0.0,0.0,1.0,0.0,0.0,0.0,1.0
1463846111524524320,545,1463846111097891979,,8.23924922943,-10.4605636597,15.2535533905,0.0203970000148,1.0,0.0,0.0,0.0,1.0,0.0,0.0,0.0,1.0,-60.1219520569,-1.58536589146,-14.6341466904,1.0,0.0,0.0,0.0,1.0,0.0,0.0,0.0,1.0,-0.344765039063,-1.20188930646,8.15465085449,1.0,0.0,0.0,0.0,1.0,0.0,0.0,0.0,1.0
1463846111524817171,546,1463846111117925234,,8.17964458466,-11.6996707916,15.3081636429,0.0203910004348,1.0,0.0,0.0,0.0,1.0,0.0,0.0,0.0,1.0,-66.3414611816,-5.79268312454,-13.4146347046,1.0,0.0,0.0,0.0,1.0,0.0,0.0,0.0,1.0,-0.148440512063,-1.71424838867,8.34618640278,1.0,0.0,0.0,0.0,1.0,0.0,0.0,0.0,1.0
1463846111525136948,547,1463846111138666789,,8.04536247253,-13.0167369843,15.4124851227,0.0204019993544,1.0,0.0,0.0,0.0,1.0,0.0,0.0,0.0,1.0,-70.2439041138,-11.5853662491,-12.0731716156,1.0,0.0,0.0,0.0,1.0,0.0,0.0,0.0,1.0,-0.416591088867,-2.06380183105,8.87769975586,1.0,0.0,0.0,0.0,1.0,0.0,0.0,0.0,1.0
1463846111525462506,548,1463846111159080026,,7.82736825943,-14.3721046448,15.5513563156,0.0205579996109,1.0,0.0,0.0,0.0,1.0,0.0,0.0,0.0,1.0,-71.2195129395,-17.2560977936,-11.7073173523,1.0,0.0,0.0,0.0,1.0,0.0,0.0,0.0,1.0,-0.651222851562,-2.56658417969,9.55286520855,1.0,0.0,0.0,0.0,1.0,0.0,0.0,0.0,1.0
1463846111526081436,549,1463846111179446182,,7.47282218933,-15.670794487,15.7533416748,0.0202859994024,1.0,0.0,0.0,0.0,1.0,0.0,0.0,0.0,1.0,-70.792678833,-24.6951236725,-10.7317075729,1.0,0.0,0.0,0.0,1.0,0.0,0.0,0.0,1.0,-0.622492431641,-2.72938989258,9.98860932617,1.0,0.0,0.0,0.0,1.0,0.0,0.0,0.0,1.0
1463846111526510479,550,1463846111199894834,,7.0189166069,-16.9093551636,16.020324707,0.0204210001975,1.0,0.0,0.0,0.0,1.0,0.0,0.0,0.0,1.0,-70.4268264771,-26.6463432312,-8.78048801422,1.0,0.0,0.0,0.0,1.0,0.0,0.0,0.0,1.0,0.119710083008,-2.58573779297,10.4818148682,1.0,0.0,0.0,0.0,1.0,0.0,0.0,0.0,1.0
1463846111526806247,551,1463846111219914703,,6.67101383209,-18.0871543884,16.3724842072,0.0203970000148,1.0,0.0,0.0,0.0,1.0,0.0,0.0,0.0,1.0,-71.341468811,-23.5365848541,-4.14634132385,1.0,0.0,0.0,0.0,1.0,0.0,0.0,0.0,1.0,0.105344873047,-2.13083962367,10.3573163818,1.0,0.0,0.0,0.0,1.0,0.0,0.0,0.0,1.0
1463846111527116285,552,1463846111241183943,,6.40112876892,-19.2878055573,16.7668876648,0.0204210001975,1.0,0.0,0.0,0.0,1.0,0.0,0.0,0.0,1.0,-76.1585388184,-22.7439041138,-2.31707310677,1.0,0.0,0.0,0.0,1.0,0.0,0.0,0.0,1.0,-0.205901342773,-1.54186586914,9.64384487163,1.0,0.0,0.0,0.0,1.0,0.0,0.0,0.0,1.0
1463846111527405647,553,1463846111261131784,,6.18467903137,-20.5762939453,17.1927871704,0.0203930009156,1.0,0.0,0.0,0.0,1.0,0.0,0.0,0.0,1.0,-79.3902435303,-22.5609760284,-0.548780500889,1.0,0.0,0.0,0.0,1.0,0.0,0.0,0.0,1.0,-0.368707055664,-1.75255561523,8.54730051128,1.0,0.0,0.0,0.0,1.0,0.0,0.0,0.0,1.0
1463846111527736465,554,1463846111282393785,,5.94674491882,-21.8788871765,17.6385955811,0.0203990004957,1.0,0.0,0.0,0.0,1.0,0.0,0.0,0.0,1.0,-79.3292694092,-23.7195129395,0.0,1.0,0.0,0.0,0.0,1.0,0.0,0.0,0.0,1.0,-0.220266552734,-1.8866309082,7.76679018555,1.0,0.0,0.0,0.0,1.0,0.0,0.0,0.0,1.0
1463846111528058325,555,1463846111302351261,,5.74985408783,-23.1199436188,18.0972366333,0.0204130001366,1.0,0.0,0.0,0.0,1.0,0.0,0.0,0.0,1.0,-76.2804946899,-21.158536911,1.58536589146,1.0,0.0,0.0,0.0,1.0,0.0,0.0,0.0,1.0,0.0143652099609,-2.11168571813,7.91523068848,1.0,0.0,0.0,0.0,1.0,0.0,0.0,0.0,1.0
1463846111528564761,556,1463846111323179167,,5.71093320847,-24.2620620728,18.6171226501,0.0208749994636,1.0,0.0,0.0,0.0,1.0,0.0,0.0,0.0,1.0,-71.7682952881,-14.8170728683,6.82926845551,1.0,0.0,0.0,0.0,1.0,0.0,0.0,0.0,1.0,0.134075302102,-2.1691467041,8.22168850098,1.0,0.0,0.0,0.0,1.0,0.0,0.0,0.0,1.0
1463846111529152078,557,1463846111343114665,,5.86289548874,-25.214389801,19.1556835175,0.0199360009283,1.0,0.0,0.0,0.0,1.0,0.0,0.0,0.0,1.0,-64.5121917725,-11.0365858078,11.0975618362,1.0,0.0,0.0,0.0,1.0,0.0,0.0,0.0,1.0,-0.474051928711,-2.60489140625,8.80108530273,1.0,0.0,0.0,0.0,1.0,0.0,0.0,0.0,1.0
1463846111529456439,558,1463846111363386034,,6.06984043121,-25.9410552979,19.7984085083,0.0203959997743,1.0,0.0,0.0,0.0,1.0,0.0,0.0,0.0,1.0,-56.2804870605,-12.2560977936,15.2439022064,1.0,0.0,0.0,0.0,1.0,0.0,0.0,0.0,1.0,-0.76614453125,-2.3415290775,9.43315395649,1.0,0.0,0.0,0.0,1.0,0.0,0.0,0.0,1.0
1463846111529738978,559,1463846111384137797,,6.25555753708,-26.4185161591,20.5690288544,0.0205010008067,1.0,0.0,0.0,0.0,1.0,0.0,0.0,0.0,1.0,-51.8902435303,-14.8170728683,19.9390239716,1.0,0.0,0.0,0.0,1.0,0.0,0.0,0.0,1.0,-0.569819995117,-1.22104284668,9.80665,1.0,0.0,0.0,0.0,1.0,0.0,0.0,0.0,1.0
1463846111530016934,560,1463846111404249225,,6.46558904648,-26.852519989,21.4290294647,0.0203239992261,1.0,0.0,0.0,0.0,1.0,0.0,0.0,0.0,1.0,-53.3536605835,-15.7926826477,24.3902435303,1.0,0.0,0.0,0.0,1.0,0.0,0.0,0.0,1.0,-0.593762048251,-0.847547387695,10.4913916748,1.0,0.0,0.0,0.0,1.0,0.0,0.0,0.0,1.0
1463846111530261923,561,1463846111424271334,,6.73098564148,-27.2720165253,22.3377838135,0.0203939992934,1.0,0.0,0.0,0.0,1.0,0.0,0.0,0.0,1.0,-51.7682952881,-17.317073822,26.2804889679,1.0,0.0,0.0,0.0,1.0,0.0,0.0,0.0,1.0,-1.1875240965,-1.16358193377,10.5488525146,1.0,0.0,0.0,0.0,1.0,0.0,0.0,0.0,1.0
1463846111530535869,562,1463846111444786701,,6.89983129501,-27.5747699738,23.3646011353,0.0204329993576,1.0,0.0,0.0,0.0,1.0,0.0,0.0,0.0,1.0,-48.5365867615,-23.9024391174,28.9634151459,1.0,0.0,0.0,0.0,1.0,0.0,0.0,0.0,1.0,-1.11569797363,-0.881066210937,10.3429511719,1.0,0.0,0.0,0.0,1.0,0.0,0.0,0.0,1.0
1463846111531921118,563,1463846111465155565,,6.99690437317,-27.7691020966,24.4672813416,0.0204029995948,1.0,0.0,0.0,0.0,1.0,0.0,0.0,0.0,1.0,-44.6951217651,-25.0609760284,32.4390220642,1.0,0.0,0.0,0.0,1.0,0.0,0.0,0.0,1.0,-0.368707055664,-0.837970581055,11.1090957031,1.0,0.0,0.0,0.0,1.0,0.0,0.0,0.0,1.0
1463846111532996850,564,1463846111485352354,,7.14493083954,-28.2626895905,25.7102088928,0.0203980002552,1.0,0.0,0.0,0.0,1.0,0.0,0.0,0.0,1.0,-31.5853652954,-24.817073822,44.3292694092,1.0,0.0,0.0,0.0,1.0,0.0,0.0,0.0,1.0,0.316034619141,-8.77235488281,12.7946136719,1.0,0.0,0.0,0.0,1.0,0.0,0.0,0.0,1.0
1463846111571004599,565,1463846111505580235,,7.53266477585,-27.8405475616,26.8907756805,0.0204039998353,1.0,0.0,0.0,0.0,1.0,0.0,0.0,0.0,1.0,-5.85365867615,-11.8292684555,45.1219520569,1.0,0.0,0.0,0.0,1.0,0.0,0.0,0.0,1.0,0.244208569336,-2.90656081543,10.7164466309,1.0,0.0,0.0,0.0,1.0,0.0,0.0,0.0,1.0
1463846111571566604,566,1463846111526316217,,7.97666311264,-26.8817062378,28.0932731628,0.0204540006816,1.0,0.0,0.0,0.0,1.0,0.0,0.0,0.0,1.0,14.6341466904,-11.341463089,45.1219520569,1.0,0.0,0.0,0.0,1.0,0.0,0.0,0.0,1.0,-0.45968671875,-2.18830031738,13.4362597168,1.0,0.0,0.0,0.0,1.0,0.0,0.0,0.0,1.0
1463846111651972317,567,1463846111547008087,,8.7231836319,-25.5975856781,29.3393287659,0.0204179994762,1.0,0.0,0.0,0.0,1.0,0.0,0.0,0.0,1.0,31.4634151459,4.87804889679,55.1219520569,1.0,0.0,0.0,0.0,1.0,0.0,0.0,0.0,1.0,0.138863696289,-2.25533796387,12.6270195557,1.0,0.0,0.0,0.0,1.0,0.0,0.0,0.0,1.0
1463846111652635360,568,1463846111567192585,,9.77201080322,-23.8573513031,30.52302742,0.020372999832,1.0,0.0,0.0,0.0,1.0,0.0,0.0,0.0,1.0,48.2926864624,15.4268302917,54.1463432312,1.0,0.0,0.0,0.0,1.0,0.0,0.0,0.0,1.0,-1.89141931152,-0.756567724609,14.8248966797,1.0,0.0,0.0,0.0,1.0,0.0,0.0,0.0,1.0
1463846111652984823,569,1463846111587716390,,10.5528793335,-21.7877750397,31.7567996979,0.0205039996654,1.0,0.0,0.0,0.0,1.0,0.0,0.0,0.0,1.0,62.317073822,5.85365867615,49.817073822,1.0,0.0,0.0,0.0,1.0,0.0,0.0,0.0,1.0,-2.03507141113,-0.239420166016,16.2279000216,1.0,0.0,0.0,0.0,1.0,0.0,0.0,0.0,1.0
1463846111653278508,570,1463846111607803027,,11.0587816238,-19.5547447205,32.9291534424,0.0203040000051,1.0,0.0,0.0,0.0,1.0,0.0,0.0,0.0,1.0,76.3414611816,-0.853658556938,43.7804870605,1.0,0.0,0.0,0.0,1.0,0.0,0.0,0.0,1.0,-1.34554133301,-1.08696755371,13.8145435791,1.0,0.0,0.0,0.0,1.0,0.0,0.0,0.0,1.0
1463846111678315024,571,1463846111628645880,,11.4369487762,-17.2138004303,34.1300354004,0.0204199999571,1.0,0.0,0.0,0.0,1.0,0.0,0.0,0.0,1.0,82.3170700073,-4.69512224197,42.5609779358,1.0,0.0,0.0,0.0,1.0,0.0,0.0,0.0,1.0,-1.67594116211,-1.20667770978,16.0794583496,1.0,0.0,0.0,0.0,1.0,0.0,0.0,0.0,1.0
1463846111678713808,572,1463846111648718299,,11.6494045258,-14.6527061462,35.4048042297,0.0204039998353,1.0,0.0,0.0,0.0,1.0,0.0,0.0,0.0,1.0,92.7439041138,-14.2682924271,42.4390258789,1.0,0.0,0.0,0.0,1.0,0.0,0.0,0.0,1.0,-2.97838686523,-0.713472094727,17.0850242159,1.0,0.0,0.0,0.0,1.0,0.0,0.0,0.0,1.0
1463846111701701146,573,1463846111669122942,,11.4969301224,-11.9755363464,36.6856613159,0.0203889999539,1.0,0.0,0.0,0.0,1.0,0.0,0.0,0.0,1.0,103.536590576,-16.2804889679,43.1707305908,1.0,0.0,0.0,0.0,1.0,0.0,0.0,0.0,1.0,1.03908344744,-1.61848032227,17.1807922823,1.0,0.0,0.0,0.0,1.0,0.0,0.0,0.0,1.0
1463846111702314868,574,1463846111690330935,,11.0981845856,-9.0323009491,38.041557312,0.0205840002745,1.0,0.0,0.0,0.0,1.0,0.0,0.0,0.0,1.0,112.987808228,-24.1463432312,44.2073173523,1.0,0.0,0.0,0.0,1.0,0.0,0.0,0.0,1.0,1.39342536621,-0.162805712891,15.4473891113,1.0,0.0,0.0,0.0,1.0,0.0,0.0,0.0,1.0
1463846112065388070,575,1463846111709896398,,10.701128006,-5.9417681694,39.229221344,0.02024500072,1.0,0.0,0.0,0.0,1.0,0.0,0.0,0.0,1.0,118.902435303,-21.5243911743,36.7073173523,1.0,0.0,0.0,0.0,1.0,0.0,0.0,0.0,1.0,1.23540805664,2.37983659633,16.3332448946,1.0,0.0,0.0,0.0,1.0,0.0,0.0,0.0,1.0
1463846112065448901,576,1463846111730475148,,10.6146430969,-3.06227421761,40.3305244446,0.0204099994153,1.0,0.0,0.0,0.0,1.0,0.0,0.0,0.0,1.0,105.853660583,-7.98780536652,32.9878044128,1.0,0.0,0.0,0.0,1.0,0.0,0.0,0.0,1.0,-0.100556469727,3.35667072754,13.3548568604,1.0,0.0,0.0,0.0,1.0,0.0,0.0,0.0,1.0
1463846112065922213,577,1463846111750964215,,10.6806936264,-0.442551016808,41.2812728882,0.0204099994153,1.0,0.0,0.0,0.0,1.0,0.0,0.0,0.0,1.0,96.9512252808,6.0365858078,26.5243911743,1.0,0.0,0.0,0.0,1.0,0.0,0.0,0.0,1.0,1.11090957031,4.38617744141,17.1329082491,1.0,0.0,0.0,0.0,1.0,0.0,0.0,0.0,1.0
1463846112065982366,578,1463846111771510467,,10.6095714569,1.90530121326,41.8846969604,0.0203970000148,1.0,0.0,0.0,0.0,1.0,0.0,0.0,0.0,1.0,97.134147644,2.56097555161,11.0975618362,1.0,0.0,0.0,0.0,1.0,0.0,0.0,0.0,1.0,0.636857641602,0.814028564453,7.52737001953,1.0,0.0,0.0,0.0,1.0,0.0,0.0,0.0,1.0
1463846112066347662,579,1463846111791866988,,10.3879737854,4.06650018692,42.2554473877,0.020422000438,1.0,0.0,0.0,0.0,1.0,0.0,0.0,0.0,1.0,85.9756088257,-12.4390249252,-0.731707334518,1.0,0.0,0.0,0.0,1.0,0.0,0.0,0.0,1.0,-0.555454785156,2.06380183105,9.14106193848,1.0,0.0,0.0,0.0,1.0,0.0,0.0,0.0,1.0
1463846112066390004,580,1463846111813169871,,9.19162559509,10.7864322662,42.1264686584,0.0205109994859,1.0,0.0,0.0,0.0,1.0,0.0,0.0,0.0,1.0,279.207336426,-50.9756088257,-24.8780498505,1.0,0.0,0.0,0.0,1.0,0.0,0.0,0.0,1.0,4.22337143625,16.2662072481,10.2136642822,1.0,0.0,0.0,0.0,1.0,0.0,0.0,0.0,1.0
1463846112066681241,581,1463846111832593101,,7.86713314056,14.0504560471,42.0420417786,0.0203089993447,1.0,0.0,0.0,0.0,1.0,0.0,0.0,0.0,1.0,140.000015259,-21.4024391174,-19.5121955872,1.0,0.0,0.0,0.0,1.0,0.0,0.0,0.0,1.0,3.64397492676,1.04866025408,-0.0335188255255,1.0,0.0,0.0,0.0,1.0,0.0,0.0,0.0,1.0
1463846112067053776,582,1463846111853285492,,8.27478218079,16.750202179,41.9175682068,0.0205550007522,1.0,0.0,0.0,0.0,1.0,0.0,0.0,0.0,1.0,156.280487061,12.9268293381,-24.8780498505,1.0,0.0,0.0,0.0,1.0,0.0,0.0,0.0,1.0,-0.76135612793,-5.12837995605,15.4042934814,1.0,0.0,0.0,0.0,1.0,0.0,0.0,0.0,1.0
1463846112067105961,583,1463846111873519779,,8.61594581604,19.7054195404,41.55493927,0.0202939994633,1.0,0.0,0.0,0.0,1.0,0.0,0.0,0.0,1.0,166.524383545,22.2560977936,-41.7073173523,1.0,0.0,0.0,0.0,1.0,0.0,0.0,0.0,1.0,4.30956328054,-2.82515795898,16.4338001953,1.0,0.0,0.0,0.0,1.0,0.0,0.0,0.0,1.0
1463846112067145386,584,1463846111893410123,,6.70700836182,22.4378700256,40.2089538574,0.0203540008515,1.0,0.0,0.0,0.0,1.0,0.0,0.0,0.0,1.0,108.048782349,-127.5,-46.4634170532,1.0,0.0,0.0,0.0,1.0,0.0,0.0,0.0,1.0,-7.43639035645,25.1343290283,19.7425868896,1.0,0.0,0.0,0.0,1.0,0.0,0.0,0.0,1.0
1463846112067233663,585,1463846111914127826,,2.36509537697,23.0840110779,37.8841819763,0.0204230006784,1.0,0.0,0.0,0.0,1.0,0.0,0.0,0.0,1.0,60.4268302917,-202.987808228,-55.1219520569,1.0,0.0,0.0,0.0,1.0,0.0,0.0,0.0,1.0,30.7080304932,-15.7586353271,3.73974299316,1.0,0.0,0.0,0.0,1.0,0.0,0.0,0.0,1.0
1463846112073214901,586,1463846111934298001,,1.52687442303,21.6100444794,38.1992645264,0.0204070005566,1.0,0.0,0.0,0.0,1.0,0.0,0.0,0.0,1.0,-103.841468811,-51.9512214661,16.341463089,1.0,0.0,0.0,0.0,1.0,0.0,0.0,0.0,1.0,-3.48595761719,11.4299187256,9.58638403179,1.0,0.0,0.0,0.0,1.0,0.0,0.0,0.0,1.0
1463846112073276982,587,1463846111955061899,,-0.380456715822,22.360956192,38.2650794983,0.0204440001398,1.0,0.0,0.0,0.0,1.0,0.0,0.0,0.0,1.0,-22.1951236725,-113.353660583,27.0121955872,1.0,0.0,0.0,0.0,1.0,0.0,0.0,0.0,1.0,-3.68707055664,9.72524714355,-2.35110588414,1.0,0.0,0.0,0.0,1.0,0.0,0.0,0.0,1.0
1463846112073637226,588,1463846111975254677,,-3.80689430237,25.5072193146,36.9695739746,0.0203760005534,1.0,0.0,0.0,0.0,1.0,0.0,0.0,0.0,1.0,196.707321167,-169.146347046,-15.1219511032,1.0,0.0,0.0,0.0,1.0,0.0,0.0,0.0,1.0,10.285490332,-24.5932394531,3.41413156738,1.0,0.0,0.0,0.0,1.0,0.0,0.0,0.0,1.0
1463846112073690713,589,1463846111995775878,,-4.61358261108,22.1160678864,38.0833816528,0.0204109996557,1.0,0.0,0.0,0.0,1.0,0.0,0.0,0.0,1.0,-131.524398804,-32.6219520569,50.4878082275,1.0,0.0,0.0,0.0,1.0,0.0,0.0,0.0,1.0,-6.00465776367,-14.8967227295,54.4728761719,1.0,0.0,0.0,0.0,1.0,0.0,0.0,0.0,1.0
1463846112073974971,590,1463846112016175001,,-5.51669979095,23.3330936432,38.3702812195,0.0204140003771,1.0,0.0,0.0,0.0,1.0,0.0,0.0,0.0,1.0,4.75609779358,-66.5243911743,26.4024391174,1.0,0.0,0.0,0.0,1.0,0.0,0.0,0.0,1.0,-6.75643708496,13.9965029053,-2.57137258301,1.0,0.0,0.0,0.0,1.0,0.0,0.0,0.0,1.0
1463846112076225806,591,1463846112038575021,,-7.08631134033,26.8441371918,39.0089454651,0.0203949995339,1.0,0.0,0.0,0.0,1.0,0.0,0.0,0.0,1.0,168.353668213,-64.4512252808,43.5365867615,1.0,0.0,0.0,0.0,1.0,0.0,0.0,0.0,1.0,3.24653745117,10.8122146973,23.4966950928,1.0,0.0,0.0,0.0,1.0,0.0,0.0,0.0,1.0
1463846112076659901,592,1463846112057561656,,-7.00264930725,22.026971817,40.6668548584,0.020488999784,1.0,0.0,0.0,0.0,1.0,0.0,0.0,0.0,1.0,-187.743911743,20.6707324982,51.8902435303,1.0,0.0,0.0,0.0,1.0,0.0,0.0,0.0,1.0,-0.742202514648,-30.1717293213,67.5069100098,1.0,0.0,0.0,0.0,1.0,0.0,0.0,0.0,1.0
1463846112186004449,593,1463846112077058060,,-9.94034671783,24.7077636719,41.2933578491,0.0203300006688,1.0,0.0,0.0,0.0,1.0,0.0,0.0,0.0,1.0,130.243911743,-88.4146347046,51.7073173523,1.0,0.0,0.0,0.0,1.0,0.0,0.0,0.0,1.0,23.5350023193,5.28639726562,12.8424977051,1.0,0.0,0.0,0.0,1.0,0.0,0.0,0.0,1.0
1463846112186042989,594,1463846112097594936,,-11.5571994781,23.016122818,41.168674469,0.0204160008579,1.0,0.0,0.0,0.0,1.0,0.0,0.0,0.0,1.0,-71.5243911743,-87.5,7.62195110321,1.0,0.0,0.0,0.0,1.0,0.0,0.0,0.0,1.0,-9.42836555317,-32.9968872803,-33.174055865,1.0,0.0,0.0,0.0,1.0,0.0,0.0,0.0,1.0
1463846112186079706,595,1463846112118993805,,-11.7466564178,24.6762657166,42.2368125916,0.0213430002332,1.0,0.0,0.0,0.0,1.0,0.0,0.0,0.0,1.0,30.5487804413,-3.47560977936,45.4268302917,1.0,0.0,0.0,0.0,1.0,0.0,0.0,0.0,1.0,-1.93930334473,16.2135336426,-0.416591088867,1.0,0.0,0.0,0.0,1.0,0.0,0.0,0.0,1.0
1463846112186331674,596,1463846112139227883,,-10.0749549866,23.9805450439,44.9144897461,0.0195140000433,1.0,0.0,0.0,0.0,1.0,0.0,0.0,0.0,1.0,34.5121955872,107.621955872,66.4024353027,1.0,0.0,0.0,0.0,1.0,0.0,0.0,0.0,1.0,-7.66623371582,-31.3305229248,34.8499993652,1.0,0.0,0.0,0.0,1.0,0.0,0.0,0.0,1.0
1463846112194666658,597,1463846112158801939,,-7.91553688049,24.6757831573,48.4970016479,0.0203510001302,1.0,0.0,0.0,0.0,1.0,0.0,0.0,0.0,1.0,20.5487823486,151.036590576,107.987808228,1.0,0.0,0.0,0.0,1.0,0.0,0.0,0.0,1.0,-0.861912597656,10.9558667969,5.54975944824,1.0,0.0,0.0,0.0,1.0,0.0,0.0,0.0,1.0
1463846112194707698,598,1463846112179030496,,-6.03819274902,22.6333885193,51.3750953674,0.020408000797,1.0,0.0,0.0,0.0,1.0,0.0,0.0,0.0,1.0,-68.5365905762,127.134147644,72.8048782349,1.0,0.0,0.0,0.0,1.0,0.0,0.0,0.0,1.0,1.37427175293,1.03908344744,18.2917006836,1.0,0.0,0.0,0.0,1.0,0.0,0.0,0.0,1.0
1463846112234696293,599,1463846112199306187,,-4.81768846512,25.1103153229,53.7634277344,0.0203939992934,1.0,0.0,0.0,0.0,1.0,0.0,0.0,0.0,1.0,87.9878082275,91.341468811,70.2439041138,1.0,0.0,0.0,0.0,1.0,0.0,0.0,0.0,1.0,-3.59609089355,9.56244201519,-25.3976912109,1.0,0.0,0.0,0.0,1.0,0.0,0.0,0.0,1.0
1463846112234755144,600,1463846112220016962,,-1.99671137333,23.6720924377,57.279624939,0.020422000438,1.0,0.0,0.0,0.0,1.0,0.0,0.0,0.0,1.0,-10.9756097794,175.67074585,82.6219482422,1.0,0.0,0.0,0.0,1.0,0.0,0.0,0.0,1.0,-6.59841977539,-30.2627089844,13.6277958496,1.0,0.0,0.0,0.0,1.0,0.0,0.0,0.0,1.0
1463846112273729670,601,1463846112242171004,,0.71367675066,22.5372638702,60.2456970215,0.0210059992969,1.0,0.0,0.0,0.0,1.0,0.0,0.0,0.0,1.0,-102.804878235,166.646347046,62.865852356,1.0,0.0,0.0,0.0,1.0,0.0,0.0,0.0,1.0,0.857124194336,18.3156438692,4.87459458008,1.0,0.0,0.0,0.0,1.0,0.0,0.0,0.0,1.0
1463846112273801125,602,1463846112260770052,,3.47282266617,25.1105690002,62.3634757996,0.0198049992323,1.0,0.0,0.0,0.0,1.0,0.0,0.0,0.0,1.0,159.024398804,162.682937622,24.2073173523,1.0,0.0,0.0,0.0,1.0,0.0,0.0,0.0,1.0,0.167594116211,-4.5968671875,11.9949503174,1.0,0.0,0.0,0.0,1.0,0.0,0.0,0.0,1.0
1463846112320695551,603,1463846112281082252,,5.76352787018,26.0068244934,63.8911323547,0.0204450003803,1.0,0.0,0.0,0.0,1.0,0.0,0.0,0.0,1.0,39.634147644,117.256103516,5.30487823486,1.0,0.0,0.0,0.0,1.0,0.0,0.0,0.0,1.0,-2.74375510254,4.09887324219,13.4075292969,1.0,0.0,0.0,0.0,1.0,0.0,0.0,0.0,1.0
1463846112320975590,604,1463846112301472677,,8.05944442749,27.1467990875,65.0598754883,0.0203750003129,1.0,0.0,0.0,0.0,1.0,0.0,0.0,0.0,1.0,87.5609741211,104.817070007,-5.67073154449,1.0,0.0,0.0,0.0,1.0,0.0,0.0,0.0,1.0,-4.39096584473,-19.2158625244,-3.23217224121,1.0,0.0,0.0,0.0,1.0,0.0,0.0,0.0,1.0
1463846112353156467,605,1463846112322279333,,10.1757717133,28.7300376892,66.4392318726,0.0203959997743,1.0,0.0,0.0,0.0,1.0,0.0,0.0,0.0,1.0,30.7926845551,108.231712341,-8.84146404266,1.0,0.0,0.0,0.0,1.0,0.0,0.0,0.0,1.0,-2.98796367187,13.7187755127,7.85298144531,1.0,0.0,0.0,0.0,1.0,0.0,0.0,0.0,1.0
1463846112353229433,606,1463846112342452424,,12.3334064484,31.0037937164,68.0520172119,0.0204039998353,1.0,0.0,0.0,0.0,1.0,0.0,0.0,0.0,1.0,35.9146347046,103.963417053,-4.39024400711,1.0,0.0,0.0,0.0,1.0,0.0,0.0,0.0,1.0,-5.8226984375,19.4840131104,-9.86889924316,1.0,0.0,0.0,0.0,1.0,0.0,0.0,0.0,1.0
1463846112414052703,607,1463846112362970760,,14.3673696518,30.8579998016,68.1772384644,0.0204409994185,1.0,0.0,0.0,0.0,1.0,0.0,0.0,0.0,1.0,35.8536605835,65.5487823486,-41.9512214661,1.0,0.0,0.0,0.0,1.0,0.0,0.0,0.0,1.0,-3.3949779541,-8.16422766113,2.93050283203,1.0,0.0,0.0,0.0,1.0,0.0,0.0,0.0,1.0
1463846112414349304,608,1463846112383728251,,15.5056495667,32.0783233643,68.6663208008,0.0204329993576,1.0,0.0,0.0,0.0,1.0,0.0,0.0,0.0,1.0,43.9634170532,52.8048782349,-29.0243911743,1.0,0.0,0.0,0.0,1.0,0.0,0.0,0.0,1.0,-3.23696064453,9.67736311035,13.9821376953,1.0,0.0,0.0,0.0,1.0,0.0,0.0,0.0,1.0
1463846112433329272,609,1463846112403959517,,16.0451164246,31.2176170349,68.5357208252,0.020361000672,1.0,0.0,0.0,0.0,1.0,0.0,0.0,0.0,1.0,5.91463422775,27.4390258789,-29.8170719147,1.0,0.0,0.0,0.0,1.0,0.0,0.0,0.0,1.0,3.50032282715,-16.4002813721,16.5678754883,1.0,0.0,0.0,0.0,1.0,0.0,0.0,0.0,1.0
1463846112433390832,610,1463846112424255936,,16.7349395752,31.4061946869,68.6596832275,0.0204269997776,1.0,0.0,0.0,0.0,1.0,0.0,0.0,0.0,1.0,-0.12195122242,25.5487804413,-31.9512214661,1.0,0.0,0.0,0.0,1.0,0.0,0.0,0.0,1.0,-2.78685073242,7.0245876709,10.8217915039,1.0,0.0,0.0,0.0,1.0,0.0,0.0,0.0,1.0
1463846112480300101,611,1463846112444787344,,17.3256454468,28.8227653503,68.1353683472,0.0205760002136,1.0,0.0,0.0,0.0,1.0,0.0,0.0,0.0,1.0,-85.6707305908,19.817073822,-48.9024391174,1.0,0.0,0.0,0.0,1.0,0.0,0.0,0.0,1.0,0.684741674805,-10.7834842773,44.024580127,1.0,0.0,0.0,0.0,1.0,0.0,0.0,0.0,1.0
1463846112480350150,612,1463846112464702582,,17.9939365387,28.2470912933,68.3027038574,0.0202500000596,1.0,0.0,0.0,0.0,1.0,0.0,0.0,0.0,1.0,-15.6707315445,27.3780498505,-20.3658542633,1.0,0.0,0.0,0.0,1.0,0.0,0.0,0.0,1.0,-13.7187755127,4.22815983957,50.8193244385,1.0,0.0,0.0,0.0,1.0,0.0,0.0,0.0,1.0
1463846112527283428,613,1463846112485324090,,18.1846675873,24.6046466827,68.1459884644,0.0204109996557,1.0,0.0,0.0,0.0,1.0,0.0,0.0,0.0,1.0,-177.56098938,-3.90243911743,-26.0365848541,1.0,0.0,0.0,0.0,1.0,0.0,0.0,0.0,1.0,-8.49462807476,9.97424411621,23.4966950928,1.0,0.0,0.0,0.0,1.0,0.0,0.0,0.0,1.0
1463846112527946471,614,1463846112507018154,,18.2668819427,23.3627529144,67.8629379272,0.0203850008547,1.0,0.0,0.0,0.0,1.0,0.0,0.0,0.0,1.0,-55.6097564697,-9.39024448395,-28.7804889679,1.0,0.0,0.0,0.0,1.0,0.0,0.0,0.0,1.0,-4.70221176829,4.34787021484,14.470554834,1.0,0.0,0.0,0.0,1.0,0.0,0.0,0.0,1.0
1463846112560042821,615,1463846112527377487,,17.0479507446,19.6007919312,67.5983963013,0.0213830005378,1.0,0.0,0.0,0.0,1.0,0.0,0.0,0.0,1.0,-203.658538818,-24.2073173523,-34.634147644,1.0,0.0,0.0,0.0,1.0,0.0,0.0,0.0,1.0,2.86346518555,1.85790048828,0.268150604204,1.0,0.0,0.0,0.0,1.0,0.0,0.0,0.0,1.0
1463846112560082090,616,1463846112546854776,,16.7270374298,23.0348796844,67.0176391602,0.0194540005177,1.0,0.0,0.0,0.0,1.0,0.0,0.0,0.0,1.0,131.463409424,-64.3902435303,-42.682926178,1.0,0.0,0.0,0.0,1.0,0.0,0.0,0.0,1.0,-8.0397291748,15.2223341553,-11.4825911621,1.0,0.0,0.0,0.0,1.0,0.0,0.0,0.0,1.0
