%time,field.header.seq,field.header.stamp,field.header.frame_id,field.orientation.x,field.orientation.y,field.orientation.z,field.orientation.w,field.orientation_covariance0,field.orientation_covariance1,field.orientation_covariance2,field.orientation_covariance3,field.orientation_covariance4,field.orientation_covariance5,field.orientation_covariance6,field.orientation_covariance7,field.orientation_covariance8,field.angular_velocity.x,field.angular_velocity.y,field.angular_velocity.z,field.angular_velocity_covariance0,field.angular_velocity_covariance1,field.angular_velocity_covariance2,field.angular_velocity_covariance3,field.angular_velocity_covariance4,field.angular_velocity_covariance5,field.angular_velocity_covariance6,field.angular_velocity_covariance7,field.angular_velocity_covariance8,field.linear_acceleration.x,field.linear_acceleration.y,field.linear_acceleration.z,field.linear_acceleration_covariance0,field.linear_acceleration_covariance1,field.linear_acceleration_covariance2,field.linear_acceleration_covariance3,field.linear_acceleration_covariance4,field.linear_acceleration_covariance5,field.linear_acceleration_covariance6,field.linear_acceleration_covariance7,field.linear_acceleration_covariance8
1446040936985851495,3423,1446040936844918966,robocape,11.5787892146,18.4857612944,-5.3661841093,0.0,10.0,0.0,0.0,0.0,10.0,0.0,0.0,0.0,10.0,0.0270310850643,0.0282295075548,0.0135821215594,1.0,0.0,0.0,0.0,1.0,0.0,0.0,0.0,1.0,-2.20222045898,2.83690063477,9.89981323242,0.1,0.0,0.0,0.0,0.1,0.0,0.0,0.0,0.1
1446040936989161411,3424,1446040936903894901,robocape,11.6510773354,18.4912925239,-5.31680657715,0.0,10.0,0.0,0.0,0.0,10.0,0.0,0.0,0.0,10.0,0.0435426838228,0.0278300333913,0.0154463343225,1.0,0.0,0.0,0.0,1.0,0.0,0.0,0.0,1.0,-2.16629516602,3.22609130859,9.86029541016,0.1,0.0,0.0,0.0,0.1,0.0,0.0,0.0,0.1
1446040937011486578,3425,1446040936943943023,robocape,11.6487447259,18.5008973153,-5.28751271443,0.0,10.0,0.0,0.0,0.0,10.0,0.0,0.0,0.0,10.0,0.00745685105222,0.0274305592278,0.00545948023466,1.0,0.0,0.0,0.0,1.0,0.0,0.0,0.0,1.0,-2.16988769531,3.28836181641,9.84592529297,0.1,0.0,0.0,0.0,0.1,0.0,0.0,0.0,0.1
1446040937020792578,3426,1446040936990032911,robocape,10.6023635457,17.5014313904,-5.57667952965,0.0,10.0,0.0,0.0,0.0,10.0,0.0,0.0,0.0,10.0,-0.502538497698,-0.543418020431,-0.0394147841332,1.0,0.0,0.0,0.0,1.0,0.0,0.0,0.0,1.0,-12.661270752,3.07760009766,7.43294311523,0.1,0.0,0.0,0.0,0.1,0.0,0.0,0.0,0.1
1446040937047516161,3427,1446040937044398069,robocape,9.86557694458,19.0500070405,-5.5969894422,0.0,10.0,0.0,0.0,0.0,10.0,0.0,0.0,0.0,10.0,-0.362722540469,0.830373627887,-0.167779148675,1.0,0.0,0.0,0.0,1.0,0.0,0.0,0.0,1.0,-12.4121887207,-0.0730480957031,7.49281860352,0.1,0.0,0.0,0.0,0.1,0.0,0.0,0.0,0.1
1446040937080661620,3428,1446040937077615976,robocape,10.2251157197,20.4859730228,-4.82478177386,0.0,10.0,0.0,0.0,0.0,10.0,0.0,0.0,0.0,10.0,0.0748348266312,0.850081019953,0.229031853747,1.0,0.0,0.0,0.0,1.0,0.0,0.0,0.0,1.0,-12.7391088867,0.529299316406,6.05939941406,0.1,0.0,0.0,0.0,0.1,0.0,0.0,0.0,0.1
1446040937123124078,3429,1446040937110313892,robocape,11.1193943729,20.6609011145,-3.67796764922,0.0,10.0,0.0,0.0,0.0,10.0,0.0,0.0,0.0,10.0,0.272974011733,0.222107634913,0.527838528054,1.0,0.0,0.0,0.0,1.0,0.0,0.0,0.0,1.0,-12.9247229004,1.93996582031,5.31454833984,0.1,0.0,0.0,0.0,0.1,0.0,0.0,0.0,0.1
1446040937156340661,3430,1446040937153213977,robocape,11.5695389127,19.709552513,-2.40846334287,0.0,10.0,0.0,0.0,0.0,10.0,0.0,0.0,0.0,10.0,0.00918790576077,-0.360858327706,0.70866716607,1.0,0.0,0.0,0.0,1.0,0.0,0.0,0.0,1.0,-13.4456396484,1.80823974609,5.14929199219,0.1,0.0,0.0,0.0,0.1,0.0,0.0,0.0,0.1
1446040937193933328,3431,1446040937190532922,robocape,11.7125226831,18.3288752532,-1.30059454582,0.0,10.0,0.0,0.0,0.0,10.0,0.0,0.0,0.0,10.0,-0.115847507418,-0.600010193595,0.683500293769,1.0,0.0,0.0,0.0,1.0,0.0,0.0,0.0,1.0,-14.4204125977,1.62142822266,4.84392700195,0.1,0.0,0.0,0.0,0.1,0.0,0.0,0.0,0.1
1446040937238648495,3432,1446040937230041980,robocape,9.0424449419,19.5807986918,1.24050227729,0.0,10.0,0.0,0.0,0.0,10.0,0.0,0.0,0.0,10.0,-1.82812693028,0.878443685563,1.12012555449,1.0,0.0,0.0,0.0,1.0,0.0,0.0,0.0,1.0,-19.62,2.23575073242,14.2216259766,0.1,0.0,0.0,0.0,0.1,0.0,0.0,0.0,0.1
1446040937271133745,3433,1446040937267921924,robocape,4.65396413842,18.7556730869,1.26654032583,0.0,10.0,0.0,0.0,0.0,10.0,0.0,0.0,0.0,10.0,-2.30856119094,-0.449807908114,0.0645816564344,1.0,0.0,0.0,0.0,1.0,0.0,0.0,0.0,1.0,-9.4998449707,3.62126953125,4.291875,0.1,0.0,0.0,0.0,0.1,0.0,0.0,0.0,0.1
1446040937304895370,3434,1446040937301628112,robocape,-0.528175146076,18.2716230545,0.051420390882,0.0,10.0,0.0,0.0,0.0,10.0,0.0,0.0,0.0,10.0,-2.51269248849,-0.280697178894,-0.594151239197,1.0,0.0,0.0,0.0,1.0,0.0,0.0,0.0,1.0,-10.0411193848,-0.1916015625,3.5218762207,0.1,0.0,0.0,0.0,0.1,0.0,0.0,0.0,0.1
1446040937340837286,3435,1446040937337727069,robocape,-5.85459225385,16.7529847244,-2.17144973229,0.0,10.0,0.0,0.0,0.0,10.0,0.0,0.0,0.0,10.0,-2.43998819073,-0.732635615881,-1.15368138422,1.0,0.0,0.0,0.0,1.0,0.0,0.0,0.0,1.0,-8.48675170898,0.925675048828,3.00814453125,0.1,0.0,0.0,0.0,0.1,0.0,0.0,0.0,0.1
1446040937376828203,3436,1446040937372308969,robocape,-8.27112566376,17.322651683,-5.79005547189,0.0,10.0,0.0,0.0,0.0,10.0,0.0,0.0,0.0,10.0,-0.724379816502,0.556334351718,-1.77153475712,1.0,0.0,0.0,0.0,1.0,0.0,0.0,0.0,1.0,-19.62,-9.06395141602,11.4242431641,0.1,0.0,0.0,0.0,0.1,0.0,0.0,0.0,0.1
1446040937406460786,3437,1446040937403202056,robocape,-6.3486603676,16.578431831,-8.29029083687,0.0,10.0,0.0,0.0,0.0,10.0,0.0,0.0,0.0,10.0,1.38697429571,-0.221308686586,-1.29456260589,1.0,0.0,0.0,0.0,1.0,0.0,0.0,0.0,1.0,-11.4817236328,-1.55197265625,5.79115722656,0.1,0.0,0.0,0.0,0.1,0.0,0.0,0.0,0.1
1446040937441808620,3438,1446040937438678026,robocape,-2.69045676462,16.9642888838,-10.463740373,0.0,10.0,0.0,0.0,0.0,10.0,0.0,0.0,0.0,10.0,2.2439795345,0.306396683414,-1.08124340257,1.0,0.0,0.0,0.0,1.0,0.0,0.0,0.0,1.0,-12.4864343262,-2.90156616211,6.78748535156,0.1,0.0,0.0,0.0,0.1,0.0,0.0,0.0,0.1
1446040937480507578,3439,1446040937476816892,robocape,3.16110308048,17.9341903778,-11.2599494998,0.0,10.0,0.0,0.0,0.0,10.0,0.0,0.0,0.0,10.0,3.20032068195,0.537958540196,-0.418782081415,1.0,0.0,0.0,0.0,1.0,0.0,0.0,0.0,1.0,-19.62,-4.66549804688,1.06698120117,0.1,0.0,0.0,0.0,0.1,0.0,0.0,0.0,0.1
1446040937515555328,3440,1446040937512234926,robocape,9.0137428387,17.5044396921,-10.3446280102,0.0,10.0,0.0,0.0,0.0,10.0,0.0,0.0,0.0,10.0,2.93640141792,-0.149802811317,0.462324765238,1.0,0.0,0.0,0.0,1.0,0.0,0.0,0.0,1.0,-12.4888293457,-0.190404052734,3.59731933594,0.1,0.0,0.0,0.0,0.1,0.0,0.0,0.0,0.1
1446040937550328412,3441,1446040937547137975,robocape,13.7033712412,18.8746944405,-7.88841026426,0.0,10.0,0.0,0.0,0.0,10.0,0.0,0.0,0.0,10.0,2.09870409704,1.00094909571,1.02798018077,1.0,0.0,0.0,0.0,1.0,0.0,0.0,0.0,1.0,-1.48131958008,7.76704833984,15.4370983887,0.1,0.0,0.0,0.0,0.1,0.0,0.0,0.0,0.1
1446040937586843662,3442,1446040937583081007,robocape,14.0293447918,18.7560237766,-5.61254106136,0.0,10.0,0.0,0.0,0.0,10.0,0.0,0.0,0.0,10.0,-0.208658671408,0.216381838569,1.10734238125,1.0,0.0,0.0,0.0,1.0,0.0,0.0,0.0,1.0,-17.0657116699,5.49058227539,12.1176013184,0.1,0.0,0.0,0.0,0.1,0.0,0.0,0.0,0.1
1446040937621748995,3443,1446040937618355035,robocape,11.3266044208,18.685671575,-4.52348566395,0.0,10.0,0.0,0.0,0.0,10.0,0.0,0.0,0.0,10.0,-1.60934824673,0.066046395034,0.541420649613,1.0,0.0,0.0,0.0,1.0,0.0,0.0,0.0,1.0,-9.46631469727,5.42591674805,7.88560180664,0.1,0.0,0.0,0.0,0.1,0.0,0.0,0.0,0.1
1446040937656623953,3444,1446040937653491020,robocape,7.6293564085,18.6427944385,-4.51819143694,0.0,10.0,0.0,0.0,0.0,10.0,0.0,0.0,0.0,10.0,-1.94370812159,-0.0354200424981,0.0110521185238,1.0,0.0,0.0,0.0,1.0,0.0,0.0,0.0,1.0,-8.00295776367,2.1495300293,9.56930053711,0.1,0.0,0.0,0.0,0.1,0.0,0.0,0.0,0.1
1446040937692514078,3445,1446040937689225912,robocape,3.76740637608,18.824981525,-5.04304891753,0.0,10.0,0.0,0.0,0.0,10.0,0.0,0.0,0.0,10.0,-1.93452021583,0.0691090302876,-0.268579795934,1.0,0.0,0.0,0.0,1.0,0.0,0.0,0.0,1.0,-7.58143432617,0.802331542969,9.59923828125,0.1,0.0,0.0,0.0,0.1,0.0,0.0,0.0,0.1
1446040937729453828,3446,1446040937725864887,robocape,0.55084918792,18.8028487974,-6.20255581659,0.0,10.0,0.0,0.0,0.0,10.0,0.0,0.0,0.0,10.0,-1.48750862686,-0.0206394984481,-0.57857174682,1.0,0.0,0.0,0.0,1.0,0.0,0.0,0.0,1.0,-8.03648803711,0.528101806641,10.5512585449,0.1,0.0,0.0,0.0,0.1,0.0,0.0,0.0,0.1
1446040937767078203,3447,1446040937763562917,robocape,-2.00773139953,18.5499525192,-7.14476463752,0.0,10.0,0.0,0.0,0.0,10.0,0.0,0.0,0.0,10.0,-1.182443524,-0.109855394966,-0.475507412634,1.0,0.0,0.0,0.0,1.0,0.0,0.0,0.0,1.0,-8.46759155273,1.56275024414,5.50255737305,0.1,0.0,0.0,0.0,0.1,0.0,0.0,0.0,0.1
1446040937803290287,3448,1446040937799802064,robocape,-5.49175480796,18.419847498,-7.37105947308,0.0,10.0,0.0,0.0,0.0,10.0,0.0,0.0,0.0,10.0,-1.79177478141,-0.0404800485692,-0.124236464852,1.0,0.0,0.0,0.0,1.0,0.0,0.0,0.0,1.0,-8.5107019043,2.94228149414,4.61879516602,0.1,0.0,0.0,0.0,0.1,0.0,0.0,0.0,0.1
1446040937841531287,3449,1446040937838212966,robocape,-9.98943329876,17.6329666636,-7.75159902338,0.0,10.0,0.0,0.0,0.0,10.0,0.0,0.0,0.0,10.0,-2.30589802985,-0.358994114943,-0.252600829394,1.0,0.0,0.0,0.0,1.0,0.0,0.0,0.0,1.0,-3.64521972656,5.03193603516,11.6577575684,0.1,0.0,0.0,0.0,0.1,0.0,0.0,0.0,0.1
1446040937876517620,3450,1446040937872971057,robocape,-15.2366459739,16.5742550012,-8.91548673635,0.0,10.0,0.0,0.0,0.0,10.0,0.0,0.0,0.0,10.0,-2.60403891388,-0.370046233467,-0.708933482179,1.0,0.0,0.0,0.0,1.0,0.0,0.0,0.0,1.0,-1.13044921875,2.69439697266,4.83554443359,0.1,0.0,0.0,0.0,0.1,0.0,0.0,0.0,0.1
1446040937910066662,3451,1446040937906297922,robocape,-20.9429433459,15.6205578652,-10.2406057675,0.0,10.0,0.0,0.0,0.0,10.0,0.0,0.0,0.0,10.0,-2.87754555783,-0.196141814284,-0.823582567107,1.0,0.0,0.0,0.0,1.0,0.0,0.0,0.0,1.0,-4.35534301758,1.88248535156,7.69040771484,0.1,0.0,0.0,0.0,0.1,0.0,0.0,0.0,0.1
1446040937945132245,3452,1446040937941982984,robocape,-25.0319852083,15.2771516598,-13.0872459704,0.0,10.0,0.0,0.0,0.0,10.0,0.0,0.0,0.0,10.0,-1.864079605,0.490953746956,-1.4455638397,1.0,0.0,0.0,0.0,1.0,0.0,0.0,0.0,1.0,-4.79961914063,-3.21411621094,17.6979968262,0.1,0.0,0.0,0.0,0.1,0.0,0.0,0.0,0.1
1446040937989769412,3453,1446040937986124992,robocape,-22.6552843338,16.3777458416,-16.3555477521,0.0,10.0,0.0,0.0,0.0,10.0,0.0,0.0,0.0,10.0,1.69363729524,1.21160513793,-1.28470890985,1.0,0.0,0.0,0.0,1.0,0.0,0.0,0.0,1.0,-2.27766357422,-4.69783081055,16.6501757813,0.1,0.0,0.0,0.0,0.1,0.0,0.0,0.0,0.1
1446040938020032662,3454,1446040938017004966,robocape,-16.1264541537,17.4416428379,-18.670974043,0.0,10.0,0.0,0.0,0.0,10.0,0.0,0.0,0.0,10.0,3.80579035578,0.864595247894,-0.878044211399,1.0,0.0,0.0,0.0,1.0,0.0,0.0,0.0,1.0,-7.23774902344,-4.14577880859,5.73487426758,0.1,0.0,0.0,0.0,0.1,0.0,0.0,0.0,0.1
1446040938057297578,3455,1446040938054040908,robocape,-8.06337109319,18.7250828443,-18.5266818009,0.0,10.0,0.0,0.0,0.0,10.0,0.0,0.0,0.0,10.0,4.21698242809,0.595882293905,0.247008191105,1.0,0.0,0.0,0.0,1.0,0.0,0.0,0.0,1.0,-1.67651367188,2.05133422852,7.32756225586,0.1,0.0,0.0,0.0,0.1,0.0,0.0,0.0,0.1
1446040938089013995,3456,1446040938085947990,robocape,-1.55804901129,19.3916244385,-16.9916395638,0.0,10.0,0.0,0.0,0.0,10.0,0.0,0.0,0.0,10.0,3.14599219571,0.272308221461,0.796684640097,1.0,0.0,0.0,0.0,1.0,0.0,0.0,0.0,1.0,-7.76824584961,6.13364501953,3.30991699219,0.1,0.0,0.0,0.0,0.1,0.0,0.0,0.0,0.1
1446040938118838287,3457,1446040938115761041,robocape,1.087630901,19.5472003241,-14.8690144555,0.0,10.0,0.0,0.0,0.0,10.0,0.0,0.0,0.0,10.0,1.01506384948,0.0781637779938,1.04768757284,1.0,0.0,0.0,0.0,1.0,0.0,0.0,0.0,1.0,-3.93022705078,7.6640625,9.59564575195,0.1,0.0,0.0,0.0,0.1,0.0,0.0,0.0,0.1
1446040938151257745,3458,1446040938148205041,robocape,-0.751356073287,18.8613002358,-13.2771024862,0.0,10.0,0.0,0.0,0.0,10.0,0.0,0.0,0.0,10.0,-1.23810359078,-0.369114127085,0.797217272315,1.0,0.0,0.0,0.0,1.0,0.0,0.0,0.0,1.0,1.73758666992,7.22816894531,7.92152709961,0.1,0.0,0.0,0.0,0.1,0.0,0.0,0.0,0.1
1446040938188068287,3459,1446040938185003042,robocape,-7.10342204988,18.9700852237,-13.4739496516,0.0,10.0,0.0,0.0,0.0,10.0,0.0,0.0,0.0,10.0,-3.30018922283,0.0809600971384,-0.105594337222,1.0,0.0,0.0,0.0,1.0,0.0,0.0,0.0,1.0,0.742456054688,5.40196655273,6.26417358398,0.1,0.0,0.0,0.0,0.1,0.0,0.0,0.0,0.1
1446040938221552995,3460,1446040938217848062,robocape,-14.2349548827,18.0701911312,-14.8208523834,0.0,10.0,0.0,0.0,0.0,10.0,0.0,0.0,0.0,10.0,-3.54400162062,-0.289751926601,-0.781371463829,1.0,0.0,0.0,0.0,1.0,0.0,0.0,0.0,1.0,-1.12446166992,-1.33043334961,7.85805908203,0.1,0.0,0.0,0.0,0.1,0.0,0.0,0.0,0.1
1446040938256953412,3461,1446040938253619909,robocape,-18.4447312851,16.6665472644,-17.3021861814,0.0,10.0,0.0,0.0,0.0,10.0,0.0,0.0,0.0,10.0,-1.87300119465,-0.28589034302,-1.45328700686,1.0,0.0,0.0,0.0,1.0,0.0,0.0,0.0,1.0,13.9186560059,4.0583605957,16.5879052734,0.1,0.0,0.0,0.0,0.1,0.0,0.0,0.0,0.1
1446040938291610162,3462,1446040938288096904,robocape,-18.3555647261,17.9073893859,-21.0718562173,0.0,10.0,0.0,0.0,0.0,10.0,0.0,0.0,0.0,10.0,0.572712792422,1.30148682472,-1.65661935608,1.0,0.0,0.0,0.0,1.0,0.0,0.0,0.0,1.0,-17.6704541016,-9.57049804688,19.6194012451,0.1,0.0,0.0,0.0,0.1,0.0,0.0,0.0,0.1
1446040938322849329,3463,1446040938319678068,robocape,-10.1540859594,18.6628793112,-21.3271705079,0.0,10.0,0.0,0.0,0.0,10.0,0.0,0.0,0.0,10.0,4.36318997193,0.352336212217,0.0267647689553,1.0,0.0,0.0,0.0,1.0,0.0,0.0,0.0,1.0,-14.9844396973,-14.0312219238,19.5098291016,0.1,0.0,0.0,0.0,0.1,0.0,0.0,0.0,0.1
1446040938354441954,3464,1446040938351070880,robocape,-1.47207318373,18.6948010052,-20.2102826568,0.0,10.0,0.0,0.0,0.0,10.0,0.0,0.0,0.0,10.0,4.36318997193,-0.0765658813398,0.588025968689,1.0,0.0,0.0,0.0,1.0,0.0,0.0,0.0,1.0,-0.907712402344,2.19024536133,4.20445678711,0.1,0.0,0.0,0.0,0.1,0.0,0.0,0.0,0.1
1446040938388556870,3465,1446040938385421037,robocape,3.72087382613,19.2216054887,-18.1385309556,0.0,10.0,0.0,0.0,0.0,10.0,0.0,0.0,0.0,10.0,2.37061284433,0.30479878676,1.01319963672,1.0,0.0,0.0,0.0,1.0,0.0,0.0,0.0,1.0,-7.25331665039,5.594765625,6.30608642578,0.1,0.0,0.0,0.0,0.1,0.0,0.0,0.0,0.1
1446040938420102495,3466,1446040938417035102,robocape,6.31215356341,18.8745659294,-16.7542478903,0.0,10.0,0.0,0.0,0.0,10.0,0.0,0.0,0.0,10.0,1.12598450889,-0.109455920802,0.687495035404,1.0,0.0,0.0,0.0,1.0,0.0,0.0,0.0,1.0,-4.66549804688,3.64282470703,11.8697167969,0.1,0.0,0.0,0.0,0.1,0.0,0.0,0.0,0.1
1446040938449035995,3467,1446040938445946931,robocape,7.77061994958,19.0917825883,-16.3295647592,0.0,10.0,0.0,0.0,0.0,10.0,0.0,0.0,0.0,10.0,0.708267691907,0.168444938948,0.166314410075,1.0,0.0,0.0,0.0,1.0,0.0,0.0,0.0,1.0,-7.99218017578,4.23199951172,11.7152380371,0.1,0.0,0.0,0.0,0.1,0.0,0.0,0.0,0.1
1446040938485176954,3468,1446040938481925964,robocape,9.40084816255,19.4031155329,-15.7459305198,0.0,10.0,0.0,0.0,0.0,10.0,0.0,0.0,0.0,10.0,0.774047770832,0.237021337017,0.230496592346,1.0,0.0,0.0,0.0,1.0,0.0,0.0,0.0,1.0,-3.63803466797,0.876577148438,18.8931115723,0.1,0.0,0.0,0.0,0.1,0.0,0.0,0.0,0.1
1446040938522014579,3469,1446040938518958091,robocape,10.6472353997,19.0839462229,-15.3963831316,0.0,10.0,0.0,0.0,0.0,10.0,0.0,0.0,0.0,10.0,0.610130205737,-0.110254869129,0.176301264163,1.0,0.0,0.0,0.0,1.0,0.0,0.0,0.0,1.0,-3.61887451172,4.14577880859,8.11791870117,0.1,0.0,0.0,0.0,0.1,0.0,0.0,0.0,0.1
1446040938552885037,3470,1446040938549815893,robocape,10.9106042662,18.5139431629,-14.5622391348,0.0,10.0,0.0,0.0,0.0,10.0,0.0,0.0,0.0,10.0,0.00173105470855,-0.209857093898,0.456332652785,1.0,0.0,0.0,0.0,1.0,0.0,0.0,0.0,1.0,-6.361171875,4.34456542969,8.47357910156,0.1,0.0,0.0,0.0,0.1,0.0,0.0,0.0,0.1
1446040938582095079,3471,1446040938578999042,robocape,8.28782102318,19.1249581608,-13.5047830002,0.0,10.0,0.0,0.0,0.0,10.0,0.0,0.0,0.0,10.0,-1.5564844991,0.395612579931,0.469914774344,1.0,0.0,0.0,0.0,1.0,0.0,0.0,0.0,1.0,-9.99561401367,5.34688110352,7.78620849609,0.1,0.0,0.0,0.0,0.1,0.0,0.0,0.0,0.1
1446040938611479537,3472,1446040938608424901,robocape,3.13528342858,18.6112623262,-13.2963533639,0.0,10.0,0.0,0.0,0.0,10.0,0.0,0.0,0.0,10.0,-2.74332223889,-0.285091394693,0.152332814353,1.0,0.0,0.0,0.0,1.0,0.0,0.0,0.0,1.0,-5.41274414063,4.98882568359,4.51580932617,0.1,0.0,0.0,0.0,0.1,0.0,0.0,0.0,0.1
1446040938642701329,3473,1446040938639621973,robocape,-3.61595367334,17.7431513715,-14.0886868453,0.0,10.0,0.0,0.0,0.0,10.0,0.0,0.0,0.0,10.0,-3.40857987919,-0.462457923292,-0.38935415137,1.0,0.0,0.0,0.0,1.0,0.0,0.0,0.0,1.0,-6.21986572266,2.04414916992,4.30025756836,0.1,0.0,0.0,0.0,0.1,0.0,0.0,0.0,0.1
1446040938672087120,3474,1446040938668979883,robocape,-10.0068098189,16.3804459904,-15.5315299746,0.0,10.0,0.0,0.0,0.0,10.0,0.0,0.0,0.0,10.0,-3.13747008022,-0.600276509704,-0.823582567107,1.0,0.0,0.0,0.0,1.0,0.0,0.0,0.0,1.0,0.910107421875,-0.0299377441406,9.38967407227,0.1,0.0,0.0,0.0,0.1,0.0,0.0,0.0,0.1
1446040938703778870,3475,1446040938700754880,robocape,-15.1446808867,15.9759394263,-17.1843453338,0.0,10.0,0.0,0.0,0.0,10.0,0.0,0.0,0.0,10.0,-2.49351772864,0.0358195166616,-0.912798463625,1.0,0.0,0.0,0.0,1.0,0.0,0.0,0.0,1.0,1.68369873047,-0.669407958984,12.1678967285,0.1,0.0,0.0,0.0,0.1,0.0,0.0,0.0,0.1
1446040938738967287,3476,1446040938735675096,robocape,-19.0313428538,15.2289810901,-18.4393013583,0.0,10.0,0.0,0.0,0.0,10.0,0.0,0.0,0.0,10.0,-1.91760914291,-0.123304358471,-0.779640409121,1.0,0.0,0.0,0.0,1.0,0.0,0.0,0.0,1.0,-7.12159057617,-1.88727539063,12.8361071777,0.1,0.0,0.0,0.0,0.1,0.0,0.0,0.0,0.1
1446040938773547954,3477,1446040938770052909,robocape,-22.1586075701,14.2015054146,-19.3643770858,0.0,10.0,0.0,0.0,0.0,10.0,0.0,0.0,0.0,10.0,-1.58364874222,-0.27643612115,-0.68856029984,1.0,0.0,0.0,0.0,1.0,0.0,0.0,0.0,1.0,-5.44747192383,-0.0778381347656,6.95633422852,0.1,0.0,0.0,0.0,0.1,0.0,0.0,0.0,0.1
1446040938805273370,3478,1446040938801942110,robocape,-23.6291494699,12.9242522825,-20.1739299988,0.0,10.0,0.0,0.0,0.0,10.0,0.0,0.0,0.0,10.0,-0.725578238992,-0.411325230363,-0.686296612913,1.0,0.0,0.0,0.0,1.0,0.0,0.0,0.0,1.0,-11.0015222168,-3.68713256836,0.256267089844,0.1,0.0,0.0,0.0,0.1,0.0,0.0,0.0,0.1
1446040938836043287,3479,1446040938832922935,robocape,-23.4718878073,13.763783857,-22.4555286524,0.0,10.0,0.0,0.0,0.0,10.0,0.0,0.0,0.0,10.0,0.291749297418,0.927312691566,-0.951414299431,1.0,0.0,0.0,0.0,1.0,0.0,0.0,0.0,1.0,3.28716430664,-4.01165771484,14.8610961914,0.1,0.0,0.0,0.0,0.1,0.0,0.0,0.0,0.1
1446040938869478620,3480,1446040938866329908,robocape,-19.6569467848,15.0927269568,-24.4463087105,0.0,10.0,0.0,0.0,0.0,10.0,0.0,0.0,0.0,10.0,2.25250164999,1.02611596801,-0.691090302876,1.0,0.0,0.0,0.0,1.0,0.0,0.0,0.0,1.0,4.84272949219,-4.49904418945,16.5537762451,0.1,0.0,0.0,0.0,0.1,0.0,0.0,0.0,0.1
1446040938900038371,3481,1446040938896920919,robocape,-12.636079381,14.090960508,-24.5710254331,0.0,10.0,0.0,0.0,0.0,10.0,0.0,0.0,0.0,10.0,3.73028973887,-0.551940135919,-0.128098048433,1.0,0.0,0.0,0.0,1.0,0.0,0.0,0.0,1.0,-8.26880493164,1.6477734375,7.3155871582,0.1,0.0,0.0,0.0,0.1,0.0,0.0,0.0,0.1
1446040938930007662,3482,1446040938926764011,robocape,-8.360871245,15.0528782632,-23.5852302226,0.0,10.0,0.0,0.0,0.0,10.0,0.0,0.0,0.0,10.0,2.11348464109,0.391750996351,0.599344403322,1.0,0.0,0.0,0.0,1.0,0.0,0.0,0.0,1.0,-4.7133984375,6.03065917969,4.16733398438,0.1,0.0,0.0,0.0,0.1,0.0,0.0,0.0,0.1
1446040938963829454,3483,1446040938960673093,robocape,-7.07074056719,15.5807482121,-22.2537462889,0.0,10.0,0.0,0.0,0.0,10.0,0.0,0.0,0.0,10.0,0.490953746956,0.185222853815,0.701476631127,1.0,0.0,0.0,0.0,1.0,0.0,0.0,0.0,1.0,-3.21052368164,7.37905517578,6.69288208008,0.1,0.0,0.0,0.0,0.1,0.0,0.0,0.0,0.1
1446040939000379579,3484,1446040938997296094,robocape,-11.1018896473,16.0206593288,-21.8264449,0.0,10.0,0.0,0.0,0.0,10.0,0.0,0.0,0.0,10.0,-2.18672157106,0.223838689621,0.212520254988,1.0,0.0,0.0,0.0,1.0,0.0,0.0,0.0,1.0,2.24293579102,4.82955688477,11.8709143066,0.1,0.0,0.0,0.0,0.1,0.0,0.0,0.0,0.1
1446040939031878746,3485,1446040939028538942,robocape,-16.6425627708,15.6462597638,-22.6678538814,0.0,10.0,0.0,0.0,0.0,10.0,0.0,0.0,0.0,10.0,-2.83040760654,-0.0243679239742,-0.535162221051,1.0,0.0,0.0,0.0,1.0,0.0,0.0,0.0,1.0,0.488583984375,6.44859008789,11.5032788086,0.1,0.0,0.0,0.0,0.1,0.0,0.0,0.0,0.1
1446040939062763829,3486,1446040939059606075,robocape,-22.3064169454,14.5091670907,-24.1690820341,0.0,10.0,0.0,0.0,0.0,10.0,0.0,0.0,0.0,10.0,-2.86169974934,-0.21198762277,-1.03210808046,1.0,0.0,0.0,0.0,1.0,0.0,0.0,0.0,1.0,-1.77710449219,-0.956810302734,10.867401123,0.1,0.0,0.0,0.0,0.1,0.0,0.0,0.0,0.1
1446040939097173162,3487,1446040939093554973,robocape,-26.4042149091,13.7091522779,-26.3072637477,0.0,10.0,0.0,0.0,0.0,10.0,0.0,0.0,0.0,10.0,-2.01880926433,0.189617069614,-1.31333789157,1.0,0.0,0.0,0.0,1.0,0.0,0.0,0.0,1.0,-5.48459472656,-6.21986572266,12.3283630371,0.1,0.0,0.0,0.0,0.1,0.0,0.0,0.0,0.1
1446040939126149246,3488,1446040939122629880,robocape,-26.2457320715,14.0141895943,-28.4374140068,0.0,10.0,0.0,0.0,0.0,10.0,0.0,0.0,0.0,10.0,0.267248215389,0.700145050582,-0.991095399673,1.0,0.0,0.0,0.0,1.0,0.0,0.0,0.0,1.0,4.00806518555,-6.28213623047,19.1290209961,0.1,0.0,0.0,0.0,0.1,0.0,0.0,0.0,0.1
1446040939160005412,3489,1446040939156786918,robocape,-25.1028313576,14.6141462937,-29.3827542923,0.0,10.0,0.0,0.0,0.0,10.0,0.0,0.0,0.0,10.0,0.680703974624,0.531167479416,-0.344746203111,1.0,0.0,0.0,0.0,1.0,0.0,0.0,0.0,1.0,-2.13276489258,1.16158447266,10.0339343262,0.1,0.0,0.0,0.0,0.1,0.0,0.0,0.0,0.1
1446040939189847662,3490,1446040939186742067,robocape,-23.8862063264,13.7179944373,-29.4947958114,0.0,10.0,0.0,0.0,0.0,10.0,0.0,0.0,0.0,10.0,0.640223926055,-0.392150470514,-0.261256102937,1.0,0.0,0.0,0.0,1.0,0.0,0.0,0.0,1.0,0.500559082031,0.861009521484,1.04542602539,0.1,0.0,0.0,0.0,0.1,0.0,0.0,0.0,0.1
1446040939220813412,3491,1446040939217741012,robocape,-24.2223266576,15.1180459427,-30.5185275023,0.0,10.0,0.0,0.0,0.0,10.0,0.0,0.0,0.0,10.0,-0.114782242982,0.957406411883,-0.271642431188,1.0,0.0,0.0,0.0,1.0,0.0,0.0,0.0,1.0,2.93988647461,1.52203491211,7.56826171875,0.1,0.0,0.0,0.0,0.1,0.0,0.0,0.0,0.1
1446040939254430287,3492,1446040939251264095,robocape,-24.2876339025,13.7111938898,-30.4952101059,0.0,10.0,0.0,0.0,0.0,10.0,0.0,0.0,0.0,10.0,-0.0647148144889,-0.648879199598,-0.330098817115,1.0,0.0,0.0,0.0,1.0,0.0,0.0,0.0,1.0,-11.3559851074,1.08374633789,0.384400634766,0.1,0.0,0.0,0.0,0.1,0.0,0.0,0.0,0.1
1446040939283767287,3493,1446040939280502080,robocape,-26.7605358205,12.9180895468,-30.2762316413,0.0,10.0,0.0,0.0,0.0,10.0,0.0,0.0,0.0,10.0,-1.40042325922,-0.356597269962,-0.174037577237,1.0,0.0,0.0,0.0,1.0,0.0,0.0,0.0,1.0,8.53105957031,7.01022216797,7.39701782227,0.1,0.0,0.0,0.0,0.1,0.0,0.0,0.0,0.1
1446040939317239871,3494,1446040939314167022,robocape,-27.5380264913,13.4864551379,-31.9910029927,0.0,10.0,0.0,0.0,0.0,10.0,0.0,0.0,0.0,10.0,-0.312388795866,0.762596178144,-0.775379351377,1.0,0.0,0.0,0.0,1.0,0.0,0.0,0.0,1.0,7.65567993164,-9.5453503418,14.4096350098,0.1,0.0,0.0,0.0,0.1,0.0,0.0,0.0,0.1
1446040939352180662,3495,1446040939348499059,robocape,-24.0650506351,15.9181869289,-35.1124931372,0.0,10.0,0.0,0.0,0.0,10.0,0.0,0.0,0.0,10.0,2.17926472001,1.90589123412,-0.956873779665,1.0,0.0,0.0,0.0,1.0,0.0,0.0,0.0,1.0,0.544866943359,-5.50854492188,18.9577770996,0.1,0.0,0.0,0.0,0.1,0.0,0.0,0.0,0.1
1446040939382642371,3496,1446040939379232883,robocape,-17.2566987386,16.6025169642,-35.7409512411,0.0,10.0,0.0,0.0,0.0,10.0,0.0,0.0,0.0,10.0,3.68727968727,0.396012054095,-0.100001698932,1.0,0.0,0.0,0.0,1.0,0.0,0.0,0.0,1.0,-10.8087231445,-3.85598144531,5.51572998047,0.1,0.0,0.0,0.0,0.1,0.0,0.0,0.0,0.1
1446040939415914954,3497,1446040939412492036,robocape,-11.6111619511,16.6827040143,-34.6496021047,0.0,10.0,0.0,0.0,0.0,10.0,0.0,0.0,0.0,10.0,2.80883600171,-0.144343331082,0.614258105427,1.0,0.0,0.0,0.0,1.0,0.0,0.0,0.0,1.0,-5.97796875,5.28101806641,2.19503540039,0.1,0.0,0.0,0.0,0.1,0.0,0.0,0.0,0.1
1446040939444593121,3498,1446040939441572904,robocape,-10.6767219726,16.9711246874,-32.5314739534,0.0,10.0,0.0,0.0,0.0,10.0,0.0,0.0,0.0,10.0,0.175235999727,-0.0805606229749,1.10787501347,1.0,0.0,0.0,0.0,1.0,0.0,0.0,0.0,1.0,-4.85590209961,9.34177368164,4.15296386719,0.1,0.0,0.0,0.0,0.1,0.0,0.0,0.0,0.1
1446040939477636287,3499,1446040939474607944,robocape,-15.4813421406,16.5099821949,-31.7469142303,0.0,10.0,0.0,0.0,0.0,10.0,0.0,0.0,0.0,10.0,-2.6519758135,-0.294945090726,0.28176244333,1.0,0.0,0.0,0.0,1.0,0.0,0.0,0.0,1.0,-2.59141113281,2.59380615234,3.45601318359,0.1,0.0,0.0,0.0,0.1,0.0,0.0,0.0,0.1
1446040939513360329,3500,1446040939510180950,robocape,-20.9442120287,16.2993783859,-33.0854351201,0.0,10.0,0.0,0.0,0.0,10.0,0.0,0.0,0.0,10.0,-2.75344225103,0.224371321839,-0.850613652171,1.0,0.0,0.0,0.0,1.0,0.0,0.0,0.0,1.0,6.75275756836,6.51205810547,11.4972912598,0.1,0.0,0.0,0.0,0.1,0.0,0.0,0.0,0.1
1446040939548466829,3501,1446040939545314073,robocape,-25.126777266,15.4171497574,-35.3231174812,0.0,10.0,0.0,0.0,0.0,10.0,0.0,0.0,0.0,10.0,-2.0104203069,0.17590179,-1.45328700686,1.0,0.0,0.0,0.0,1.0,0.0,0.0,0.0,1.0,-4.09428588867,-6.71683227539,12.681628418,0.1,0.0,0.0,0.0,0.1,0.0,0.0,0.0,0.1
1446040939580790329,3502,1446040939577713966,robocape,-24.2107415613,15.5392022892,-37.8014949197,0.0,10.0,0.0,0.0,0.0,10.0,0.0,0.0,0.0,10.0,0.740092466933,0.692155567312,-1.26912941748,1.0,0.0,0.0,0.0,1.0,0.0,0.0,0.0,1.0,13.5438354492,-9.91418334961,17.2381530762,0.1,0.0,0.0,0.0,0.1,0.0,0.0,0.0,0.1
1446040939610908496,3503,1446040939607819080,robocape,-21.2436741508,14.194804633,-38.5477975722,0.0,10.0,0.0,0.0,0.0,10.0,0.0,0.0,0.0,10.0,1.64649934394,-0.492418485556,-0.638492871346,1.0,0.0,0.0,0.0,1.0,0.0,0.0,0.0,1.0,-9.35973632813,-4.82596435547,4.6367578125,0.1,0.0,0.0,0.0,0.1,0.0,0.0,0.0,0.1
1446040939646617204,3504,1446040939643491983,robocape,-21.3746963119,14.9232146887,-37.8989798849,0.0,10.0,0.0,0.0,0.0,10.0,0.0,0.0,0.0,10.0,-0.177233370545,0.266582425117,0.394414157441,1.0,0.0,0.0,0.0,1.0,0.0,0.0,0.0,1.0,-15.3209399414,3.57097412109,1.48371459961,0.1,0.0,0.0,0.0,0.1,0.0,0.0,0.0,0.1
1446040939678044996,3505,1446040939674648046,robocape,-24.0869328448,14.9417327617,-36.8566449029,0.0,10.0,0.0,0.0,0.0,10.0,0.0,0.0,0.0,10.0,-1.60575297926,-0.144343331082,0.408795227327,1.0,0.0,0.0,0.0,1.0,0.0,0.0,0.0,1.0,5.40076904297,-1.98307617188,15.2083740234,0.1,0.0,0.0,0.0,0.1,0.0,0.0,0.0,0.1
1446040939711027246,3506,1446040939707941055,robocape,-23.9060885155,15.6849950279,-38.607240633,0.0,10.0,0.0,0.0,0.0,10.0,0.0,0.0,0.0,10.0,0.251935039121,0.825979412088,-0.813063080801,1.0,0.0,0.0,0.0,1.0,0.0,0.0,0.0,1.0,1.25259521484,-9.73096435547,17.0226013184,0.1,0.0,0.0,0.0,0.1,0.0,0.0,0.0,0.1
1446040939746409788,3507,1446040939743139982,robocape,-19.4047052204,15.7738650051,-39.842506508,0.0,10.0,0.0,0.0,0.0,10.0,0.0,0.0,0.0,10.0,2.52507618756,0.288819820219,-0.585762281763,1.0,0.0,0.0,0.0,1.0,0.0,0.0,0.0,1.0,1.32085327148,-4.67388061523,1.16397949219,0.1,0.0,0.0,0.0,0.1,0.0,0.0,0.0,0.1
1446040939781298621,3508,1446040939777935981,robocape,-13.6524189783,17.1348070704,-40.7191045043,0.0,10.0,0.0,0.0,0.0,10.0,0.0,0.0,0.0,10.0,3.13800271244,0.830906260105,-0.253799251885,1.0,0.0,0.0,0.0,1.0,0.0,0.0,0.0,1.0,-4.84871704102,-1.29450805664,4.29906005859,0.1,0.0,0.0,0.0,0.1,0.0,0.0,0.0,0.1
1446040939811391121,3509,1446040939808360099,robocape,-8.08464782744,18.5301097768,-40.4379039591,0.0,10.0,0.0,0.0,0.0,10.0,0.0,0.0,0.0,10.0,2.87088765511,0.711596643269,0.242480817252,1.0,0.0,0.0,0.0,1.0,0.0,0.0,0.0,1.0,1.14362182617,4.92655517578,6.17795288086,0.1,0.0,0.0,0.0,0.1,0.0,0.0,0.0,0.1
1446040939844564413,3510,1446040939841473102,robocape,-3.05320826126,19.3297162781,-39.346886053,0.0,10.0,0.0,0.0,0.0,10.0,0.0,0.0,0.0,10.0,2.45277136396,0.379234139227,0.5528722423,1.0,0.0,0.0,0.0,1.0,0.0,0.0,0.0,1.0,4.93134521484,6.55397094727,13.9138659668,0.1,0.0,0.0,0.0,0.1,0.0,0.0,0.0,0.1
1446040939878567246,3511,1446040939875433921,robocape,-0.22144544765,19.3900453276,-38.5084625312,0.0,10.0,0.0,0.0,0.0,10.0,0.0,0.0,0.0,10.0,1.3451626666,0.0444747902043,0.367516230431,1.0,0.0,0.0,0.0,1.0,0.0,0.0,0.0,1.0,-7.71795043945,3.30033691406,4.11224853516,0.1,0.0,0.0,0.0,0.1,0.0,0.0,0.0,0.1
1446040939912048621,3512,1446040939908910036,robocape,1.49573395155,19.7494854724,-37.9443142814,0.0,10.0,0.0,0.0,0.0,10.0,0.0,0.0,0.0,10.0,0.815459925782,0.228765537638,0.202400242846,1.0,0.0,0.0,0.0,1.0,0.0,0.0,0.0,1.0,-3.51588867188,2.95665161133,3.61288696289,0.1,0.0,0.0,0.0,0.1,0.0,0.0,0.0,0.1
1446040939944360246,3513,1446040939941332101,robocape,1.76404136221,20.3218737745,-37.636279634,0.0,10.0,0.0,0.0,0.0,10.0,0.0,0.0,0.0,10.0,0.103064334186,0.345811467547,0.0604537567448,1.0,0.0,0.0,0.0,1.0,0.0,0.0,0.0,1.0,2.80217285156,5.35286865234,12.4409289551,0.1,0.0,0.0,0.0,0.1,0.0,0.0,0.0,0.1
1446040939985195579,3514,1446040939981909036,robocape,-0.709615454509,20.095988167,-37.3592373632,0.0,10.0,0.0,0.0,0.0,10.0,0.0,0.0,0.0,10.0,-1.3422331894,-0.106526443603,0.116380139636,1.0,0.0,0.0,0.0,1.0,0.0,0.0,0.0,1.0,0.832269287109,4.32061523438,9.45074707031,0.1,0.0,0.0,0.0,0.1,0.0,0.0,0.0,0.1
1446040940017250496,3515,1446040940014008045,robocape,-8.33004486255,25.2784415973,-35.5602778166,0.0,10.0,0.0,0.0,0.0,10.0,0.0,0.0,0.0,10.0,-4.36332312999,2.66782162199,1.05194863058,1.0,0.0,0.0,0.0,1.0,0.0,0.0,0.0,1.0,4.73974365234,-19.62,-2.14833251953,0.1,0.0,0.0,0.0,0.1,0.0,0.0,0.0,0.1
1446040940046944871,3516,1446040940043881893,robocape,-9.67548931624,20.1968726464,-36.9224652455,0.0,10.0,0.0,0.0,0.0,10.0,0.0,0.0,0.0,10.0,-0.427969987176,-2.54065567994,-1.04502441175,1.0,0.0,0.0,0.0,1.0,0.0,0.0,0.0,1.0,-19.62,-1.52442993164,-1.41186401367,0.1,0.0,0.0,0.0,0.1,0.0,0.0,0.0,0.1
1446040940078172913,3517,1446040940074630975,robocape,-10.9048838077,11.6584374621,-37.7932408154,0.0,10.0,0.0,0.0,0.0,10.0,0.0,0.0,0.0,10.0,-0.509462716532,-4.36332312999,-1.14462663652,1.0,0.0,0.0,0.0,1.0,0.0,0.0,0.0,1.0,13.5546130371,2.38903198242,-9.06275390625,0.1,0.0,0.0,0.0,0.1,0.0,0.0,0.0,0.1
1446040940110945288,3518,1446040940107841014,robocape,-12.558072738,9.80335977193,-37.6088212057,0.0,10.0,0.0,0.0,0.0,10.0,0.0,0.0,0.0,10.0,-0.896286864866,-0.950615351104,-0.160721771786,1.0,0.0,0.0,0.0,1.0,0.0,0.0,0.0,1.0,8.60770019531,-6.95274169922,16.5819177246,0.1,0.0,0.0,0.0,0.1,0.0,0.0,0.0,0.1
1446040940144780121,3519,1446040940141505956,robocape,-13.6049091778,10.2240025465,-40.1509945301,0.0,10.0,0.0,0.0,0.0,10.0,0.0,0.0,0.0,10.0,-0.377503084519,0.604404409393,-1.47565756001,1.0,0.0,0.0,0.0,1.0,0.0,0.0,0.0,1.0,5.18162475586,0.936452636719,1.46575195313,0.1,0.0,0.0,0.0,0.1,0.0,0.0,0.0,0.1
1446040940178291538,3520,1446040940174993038,robocape,-16.9191976477,15.2706576473,-43.4974502027,0.0,10.0,0.0,0.0,0.0,10.0,0.0,0.0,0.0,10.0,-1.46753491869,3.2019185786,-1.35941057843,1.0,0.0,0.0,0.0,1.0,0.0,0.0,0.0,1.0,6.29411132813,0.543669433594,1.29211303711,0.1,0.0,0.0,0.0,0.1,0.0,0.0,0.0,0.1
1446040940213979204,3521,1446040940210875988,robocape,-14.4536789784,20.4400026787,-45.6562909293,0.0,10.0,0.0,0.0,0.0,10.0,0.0,0.0,0.0,10.0,1.58564611303,3.08820160006,-0.603605461066,1.0,0.0,0.0,0.0,1.0,0.0,0.0,0.0,1.0,-19.62,-19.62,-4.96128295898,0.1,0.0,0.0,0.0,0.1,0.0,0.0,0.0,0.1
1446040940248738038,3522,1446040940245517015,robocape,-10.2083727046,21.292691886,-42.5355191142,0.0,10.0,0.0,0.0,0.0,10.0,0.0,0.0,0.0,10.0,1.65022776947,0.0175768631945,1.73371786964,1.0,0.0,0.0,0.0,1.0,0.0,0.0,0.0,1.0,-5.24030273438,-19.3254125977,4.67388061523,0.1,0.0,0.0,0.0,0.1,0.0,0.0,0.0,0.1
1446040940283411663,3523,1446040940280136108,robocape,-4.80011058127,18.6477685171,-39.2161113379,0.0,10.0,0.0,0.0,0.0,10.0,0.0,0.0,0.0,10.0,2.22507109076,-1.71440995174,1.66540778768,1.0,0.0,0.0,0.0,1.0,0.0,0.0,0.0,1.0,3.67395996094,4.13619873047,0.444276123047,0.1,0.0,0.0,0.0,0.1,0.0,0.0,0.0,0.1
1446040940318079246,3524,1446040940314740896,robocape,-4.10042912261,19.0629101355,-37.7858646354,0.0,10.0,0.0,0.0,0.0,10.0,0.0,0.0,0.0,10.0,0.124502780961,0.163518090931,0.720118758757,1.0,0.0,0.0,0.0,1.0,0.0,0.0,0.0,1.0,4.39366333008,4.01764526367,6.5527734375,0.1,0.0,0.0,0.0,0.1,0.0,0.0,0.0,0.1
1446040940352375246,3525,1446040940349303960,robocape,-5.23615660278,18.27311573,-39.7997009716,0.0,10.0,0.0,0.0,0.0,10.0,0.0,0.0,0.0,10.0,-0.24833977165,-0.242613975306,-1.20800987046,1.0,0.0,0.0,0.0,1.0,0.0,0.0,0.0,1.0,6.88328613281,1.07296875,17.075291748,0.1,0.0,0.0,0.0,0.1,0.0,0.0,0.0,0.1
1446040940386850121,3526,1446040940383415937,robocape,-5.63660739724,18.6027303905,-41.2567138318,0.0,10.0,0.0,0.0,0.0,10.0,0.0,0.0,0.0,10.0,0.0384826777516,0.335957771513,-0.897218971248,1.0,0.0,0.0,0.0,1.0,0.0,0.0,0.0,1.0,-6.64857421875,-1.15918945312,6.90364379883,0.1,0.0,0.0,0.0,0.1,0.0,0.0,0.0,0.1
1446040940424186246,3527,1446040940421094894,robocape,-5.33241365649,18.9035849954,-41.3298207085,0.0,10.0,0.0,0.0,0.0,10.0,0.0,0.0,0.0,10.0,0.17590179,0.212520254988,-0.125168571234,1.0,0.0,0.0,0.0,1.0,0.0,0.0,0.0,1.0,1.44419677734,2.90755371094,11.766730957,0.1,0.0,0.0,0.0,0.1,0.0,0.0,0.0,0.1
1446040940458224955,3528,1446040940455080032,robocape,-6.79626588365,18.6659242935,-40.9751061834,0.0,10.0,0.0,0.0,0.0,10.0,0.0,0.0,0.0,10.0,-0.825979412088,-0.115847507418,0.108257498312,1.0,0.0,0.0,0.0,1.0,0.0,0.0,0.0,1.0,-0.983155517578,4.30145507813,6.93837158203,0.1,0.0,0.0,0.0,0.1,0.0,0.0,0.0,0.1
1446040940491942080,3529,1446040940488749027,robocape,-10.3547847645,17.522055673,-40.9845546109,0.0,10.0,0.0,0.0,0.0,10.0,0.0,0.0,0.0,10.0,-1.8670090822,-0.563258570552,-0.15313176268,1.0,0.0,0.0,0.0,1.0,0.0,0.0,0.0,1.0,-2.52674560547,3.18896850586,6.56115600586,0.1,0.0,0.0,0.0,0.1,0.0,0.0,0.0,0.1
1446040940523861246,3530,1446040940520651102,robocape,-13.4589648095,16.1194750986,-42.127308151,0.0,10.0,0.0,0.0,0.0,10.0,0.0,0.0,0.0,10.0,-1.47712229861,-0.524110102528,-0.872052098946,1.0,0.0,0.0,0.0,1.0,0.0,0.0,0.0,1.0,-10.0363293457,-0.591569824219,0.372425537109,0.1,0.0,0.0,0.0,0.1,0.0,0.0,0.0,0.1
1446040940560784788,3531,1446040940557699918,robocape,-17.3411671825,16.4240823391,-44.1509374975,0.0,10.0,0.0,0.0,0.0,10.0,0.0,0.0,0.0,10.0,-1.80868585433,0.57590858573,-1.23916885521,1.0,0.0,0.0,0.0,1.0,0.0,0.0,0.0,1.0,5.901328125,1.149609375,13.8707556152,0.1,0.0,0.0,0.0,0.1,0.0,0.0,0.0,0.1
1446040940594649246,3532,1446040940591579914,robocape,-19.5966258025,16.0087174553,-47.1937756691,0.0,10.0,0.0,0.0,0.0,10.0,0.0,0.0,0.0,10.0,-0.839561533647,0.483896370067,-1.91894072346,1.0,0.0,0.0,0.0,1.0,0.0,0.0,0.0,1.0,5.30137573242,-9.38727905273,16.227454834,0.1,0.0,0.0,0.0,0.1,0.0,0.0,0.0,0.1
1446040940628417413,3533,1446040940625138998,robocape,-18.5767455496,17.6888707454,-50.6778161768,0.0,10.0,0.0,0.0,0.0,10.0,0.0,0.0,0.0,10.0,0.96646115959,1.65076040169,-1.8137458604,1.0,0.0,0.0,0.0,1.0,0.0,0.0,0.0,1.0,7.52994140625,-3.18657348633,10.6015539551,0.1,0.0,0.0,0.0,0.1,0.0,0.0,0.0,0.1
1446040940662330538,3534,1446040940659219980,robocape,-14.838525678,18.5987937879,-53.2424885579,0.0,10.0,0.0,0.0,0.0,10.0,0.0,0.0,0.0,10.0,2.33812227904,1.01586279781,-1.44889279106,1.0,0.0,0.0,0.0,1.0,0.0,0.0,0.0,1.0,-0.778381347656,0.391585693359,7.77662841797,0.1,0.0,0.0,0.0,0.1,0.0,0.0,0.0,0.1
1446040940693651621,3535,1446040940690567970,robocape,-10.1225416833,19.5348207338,-54.272570738,0.0,10.0,0.0,0.0,0.0,10.0,0.0,0.0,0.0,10.0,2.64531791078,0.715724542959,-0.649678147925,1.0,0.0,0.0,0.0,1.0,0.0,0.0,0.0,1.0,7.76345581055,2.2573059082,9.66749633789,0.1,0.0,0.0,0.0,0.1,0.0,0.0,0.0,0.1
1446040940724775871,3536,1446040940721703052,robocape,-5.75096666752,19.9828454814,-53.3882426738,0.0,10.0,0.0,0.0,0.0,10.0,0.0,0.0,0.0,10.0,2.13878467144,0.206261826427,0.388821519152,1.0,0.0,0.0,0.0,1.0,0.0,0.0,0.0,1.0,0.232316894531,1.8010546875,9.06874145508,0.1,0.0,0.0,0.0,0.1,0.0,0.0,0.0,0.1
1446040940759386913,3537,1446040940756253004,robocape,-2.46554388167,20.2332075287,-51.1272934948,0.0,10.0,0.0,0.0,0.0,10.0,0.0,0.0,0.0,10.0,1.30468261803,0.0218379209386,1.18737037201,1.0,0.0,0.0,0.0,1.0,0.0,0.0,0.0,1.0,0.673000488281,5.5528527832,9.28908325195,0.1,0.0,0.0,0.0,0.1,0.0,0.0,0.0,0.1
1446040940793374830,3538,1446040940790236949,robocape,-2.34123122601,19.7087997431,-48.3162561104,0.0,10.0,0.0,0.0,0.0,10.0,0.0,0.0,0.0,10.0,-0.460726868584,-0.406931014564,1.55475344439,1.0,0.0,0.0,0.0,1.0,0.0,0.0,0.0,1.0,-2.4944128418,9.93813354492,7.8520715332,0.1,0.0,0.0,0.0,0.1,0.0,0.0,0.0,0.1
1446040940829313913,3539,1446040940826023101,robocape,-4.36622307176,15.3394684946,-46.6711799496,0.0,10.0,0.0,0.0,0.0,10.0,0.0,0.0,0.0,10.0,-1.33770581555,-2.40523393851,0.902678451482,1.0,0.0,0.0,0.0,1.0,0.0,0.0,0.0,1.0,-12.3403381348,1.27894042969,-7.41138793945,0.1,0.0,0.0,0.0,0.1,0.0,0.0,0.0,0.1
1446040940862011121,3540,1446040940859009027,robocape,-8.73215959328,14.1185918508,-45.8161023871,0.0,10.0,0.0,0.0,0.0,10.0,0.0,0.0,0.0,10.0,-2.4005734066,-0.688826615949,0.36898096903,1.0,0.0,0.0,0.0,1.0,0.0,0.0,0.0,1.0,9.63875610352,1.77231445313,12.3439306641,0.1,0.0,0.0,0.0,0.1,0.0,0.0,0.0,0.1
1446040940899330455,3541,1446040940895898103,robocape,-14.4103488969,13.3654514263,-46.9244899826,0.0,10.0,0.0,0.0,0.0,10.0,0.0,0.0,0.0,10.0,-2.87687976756,-0.189750227668,-0.866459460657,1.0,0.0,0.0,0.0,1.0,0.0,0.0,0.0,1.0,-2.26928100586,5.47740966797,12.1307739258,0.1,0.0,0.0,0.0,0.1,0.0,0.0,0.0,0.1
1446040940933603663,3542,1446040940929862976,robocape,-18.2238960669,13.6593352188,-51.2483275695,0.0,10.0,0.0,0.0,0.0,10.0,0.0,0.0,0.0,10.0,-1.60814982424,1.02558333579,-2.7067037739,1.0,0.0,0.0,0.0,1.0,0.0,0.0,0.0,1.0,7.970625,-12.875625,19.1900939941,0.1,0.0,0.0,0.0,0.1,0.0,0.0,0.0,0.1
1446040940968050413,3543,1446040940964906930,robocape,-20.9699023692,18.4245778343,-57.0753954825,0.0,10.0,0.0,0.0,0.0,10.0,0.0,0.0,0.0,10.0,-0.813063080801,3.82895985726,-2.88899715052,1.0,0.0,0.0,0.0,1.0,0.0,0.0,0.0,1.0,17.6716516113,8.4687890625,19.6194012451,0.1,0.0,0.0,0.0,0.1,0.0,0.0,0.0,0.1
1446040940998802788,3544,1446040940995779991,robocape,-13.9540113323,17.289794514,-61.4794606424,0.0,10.0,0.0,0.0,0.0,10.0,0.0,0.0,0.0,10.0,4.36318997193,0.392683102732,-2.90644085566,1.0,0.0,0.0,0.0,1.0,0.0,0.0,0.0,1.0,-3.16142578125,-4.80560668945,-4.71938598633,0.1,0.0,0.0,0.0,0.1,0.0,0.0,0.0,0.1
1446040941033678705,3545,1446040941030138015,robocape,-6.61209036504,18.7097068325,-63.0059920183,0.0,10.0,0.0,0.0,0.0,10.0,0.0,0.0,0.0,10.0,4.12829916379,1.06752812296,-1.10228237518,1.0,0.0,0.0,0.0,1.0,0.0,0.0,0.0,1.0,1.42982666016,-4.88104980469,11.2697644043,0.1,0.0,0.0,0.0,0.1,0.0,0.0,0.0,0.1
1446040941066857663,3546,1446040941063729047,robocape,2.26508217453,19.8714598959,-61.193011341,0.0,10.0,0.0,0.0,0.0,10.0,0.0,0.0,0.0,10.0,4.36318997193,0.613725473209,0.813462554965,1.0,0.0,0.0,0.0,1.0,0.0,0.0,0.0,1.0,-0.383203125,-2.98179931641,4.84871704102,0.1,0.0,0.0,0.0,0.1,0.0,0.0,0.0,0.1
1446040941100108330,3547,1446040941096944093,robocape,12.2800859828,20.8152671789,-56.5407554004,0.0,10.0,0.0,0.0,0.0,10.0,0.0,0.0,0.0,10.0,4.36318997193,0.744486682732,2.32720331857,1.0,0.0,0.0,0.0,1.0,0.0,0.0,0.0,1.0,5.37442382813,4.44994628906,1.41545654297,0.1,0.0,0.0,0.0,0.1,0.0,0.0,0.0,0.1
1446040941131056413,3548,1446040941127827882,robocape,23.1941690736,21.5898501091,-49.0858838082,0.0,10.0,0.0,0.0,0.0,10.0,0.0,0.0,0.0,10.0,4.20233504209,1.44236804639,3.54746373004,1.0,0.0,0.0,0.0,1.0,0.0,0.0,0.0,1.0,6.19352050781,10.9356591797,7.92631713867,0.1,0.0,0.0,0.0,0.1,0.0,0.0,0.0,0.1
1446040941165050413,3549,1446040941161964893,robocape,28.6318806503,21.7089034209,-40.102941768,0.0,10.0,0.0,0.0,0.0,10.0,0.0,0.0,0.0,10.0,0.784567257137,1.83491799106,4.36318997193,1.0,0.0,0.0,0.0,1.0,0.0,0.0,0.0,1.0,-3.94220214844,-8.80049926758,14.0719372559,0.1,0.0,0.0,0.0,0.1,0.0,0.0,0.0,0.1
1446040941198249997,3550,1446040941195162057,robocape,28.2164186088,21.8055716395,-34.7552254697,0.0,10.0,0.0,0.0,0.0,10.0,0.0,0.0,0.0,10.0,-1.52585814656,1.17751667598,2.59831311754,1.0,0.0,0.0,0.0,1.0,0.0,0.0,0.0,1.0,15.8250915527,11.3308374023,19.5804821777,0.1,0.0,0.0,0.0,0.1,0.0,0.0,0.0,0.1
1446040941232340788,3551,1446040941228982925,robocape,21.8283088235,20.7790801847,-33.6172609938,0.0,10.0,0.0,0.0,0.0,10.0,0.0,0.0,0.0,10.0,-3.84453934964,-0.373774658993,1.11706291923,1.0,0.0,0.0,0.0,1.0,0.0,0.0,0.0,1.0,-3.09316772461,-0.13412109375,14.5916564941,0.1,0.0,0.0,0.0,0.1,0.0,0.0,0.0,0.1
1446040941264123830,3552,1446040941260982990,robocape,15.9054323643,20.6863429454,-32.7759550147,0.0,10.0,0.0,0.0,0.0,10.0,0.0,0.0,0.0,10.0,-3.39140249016,0.00213052887206,0.629038649477,1.0,0.0,0.0,0.0,1.0,0.0,0.0,0.0,1.0,0.281414794922,5.72289916992,-1.77710449219,0.1,0.0,0.0,0.0,0.1,0.0,0.0,0.0,0.1
1446040941297832038,3553,1446040941294739007,robocape,7.32484755577,21.4023966813,-33.7548964628,0.0,10.0,0.0,0.0,0.0,10.0,0.0,0.0,0.0,10.0,-4.36332312999,0.215183416078,-0.418382607251,1.0,0.0,0.0,0.0,1.0,0.0,0.0,0.0,1.0,1.28373046875,5.27143798828,9.86628295898,0.1,0.0,0.0,0.0,0.1,0.0,0.0,0.0,0.1
1446040941331215538,3554,1446040941327986955,robocape,-2.04230848289,20.6259852017,-36.6637601165,0.0,10.0,0.0,0.0,0.0,10.0,0.0,0.0,0.0,10.0,-4.36332312999,-0.463922661892,-1.42425855097,1.0,0.0,0.0,0.0,1.0,0.0,0.0,0.0,1.0,2.78540771484,2.65607666016,4.905,0.1,0.0,0.0,0.0,0.1,0.0,0.0,0.0,0.1
1446040941365175997,3555,1446040941362050056,robocape,-11.5942000903,19.6437562234,-40.343836847,0.0,10.0,0.0,0.0,0.0,10.0,0.0,0.0,0.0,10.0,-4.36332312999,-0.187486540742,-2.07699933415,1.0,0.0,0.0,0.0,1.0,0.0,0.0,0.0,1.0,4.11344604492,-0.201181640625,7.21379882813,0.1,0.0,0.0,0.0,0.1,0.0,0.0,0.0,0.1
1446040941398673205,3556,1446040941395551919,robocape,-21.1400980351,18.667412698,-44.8682104281,0.0,10.0,0.0,0.0,0.0,10.0,0.0,0.0,0.0,10.0,-4.36265733971,0.405066801801,-2.78020701999,1.0,0.0,0.0,0.0,1.0,0.0,0.0,0.0,1.0,6.41625732422,0.0443078613281,10.8159082031,0.1,0.0,0.0,0.0,0.1,0.0,0.0,0.0,0.1
1446040941430403247,3557,1446040941427350997,robocape,-24.363551344,18.3407089758,-51.1622852818,0.0,10.0,0.0,0.0,0.0,10.0,0.0,0.0,0.0,10.0,-0.866858934821,1.50388706757,-3.70405760214,1.0,0.0,0.0,0.0,1.0,0.0,0.0,0.0,1.0,7.7790234375,-19.62,19.6194012451,0.1,0.0,0.0,0.0,0.1,0.0,0.0,0.0,0.1
1446040941464662663,3558,1446040941461527109,robocape,-20.6215947682,20.891856875,-57.2924711962,0.0,10.0,0.0,0.0,0.0,10.0,0.0,0.0,0.0,10.0,2.90550874928,2.86902344234,-3.03733522324,1.0,0.0,0.0,0.0,1.0,0.0,0.0,0.0,1.0,-2.57943603516,-5.81750244141,13.7881274414,0.1,0.0,0.0,0.0,0.1,0.0,0.0,0.0,0.1
1446040941498883080,3559,1446040941495800971,robocape,-13.579783037,22.0047459992,-60.8217764446,0.0,10.0,0.0,0.0,0.0,10.0,0.0,0.0,0.0,10.0,4.36318997193,1.38910482459,-2.05329720045,1.0,0.0,0.0,0.0,1.0,0.0,0.0,0.0,1.0,-3.80089599609,-6.09532470703,7.7059753418,0.1,0.0,0.0,0.0,0.1,0.0,0.0,0.0,0.1
1446040941531260413,3560,1446040941527925968,robocape,-5.53964505381,23.048108357,-61.3361480735,0.0,10.0,0.0,0.0,0.0,10.0,0.0,0.0,0.0,10.0,4.36318997193,0.753807746547,-0.510927455132,1.0,0.0,0.0,0.0,1.0,0.0,0.0,0.0,1.0,-2.73511230469,-0.570014648438,4.63436279297,0.1,0.0,0.0,0.0,0.1,0.0,0.0,0.0,0.1
1446040941569137580,3561,1446040941565088033,robocape,3.52287391919,23.8266144017,-59.288666285,0.0,10.0,0.0,0.0,0.0,10.0,0.0,0.0,0.0,10.0,4.36318997193,0.45233791115,0.848616281354,1.0,0.0,0.0,0.0,1.0,0.0,0.0,0.0,1.0,0.725690917969,0.810714111328,4.26552978516,0.1,0.0,0.0,0.0,0.1,0.0,0.0,0.0,0.1
1446040941603676288,3562,1446040941600446939,robocape,13.642783241,24.4461527217,-54.8554047823,0.0,10.0,0.0,0.0,0.0,10.0,0.0,0.0,0.0,10.0,4.36318997193,0.644484983799,2.03691875975,1.0,0.0,0.0,0.0,1.0,0.0,0.0,0.0,1.0,1.75554931641,1.90284301758,3.98651000977,0.1,0.0,0.0,0.0,0.1,0.0,0.0,0.0,0.1
1446040941638699622,3563,1446040941634104967,robocape,24.2607794368,24.8673292413,-49.0634372684,0.0,10.0,0.0,0.0,0.0,10.0,0.0,0.0,0.0,10.0,4.36318997193,1.1426292657,2.43972187462,1.0,0.0,0.0,0.0,1.0,0.0,0.0,0.0,1.0,1.59747802734,3.9433996582,4.30385009766,0.1,0.0,0.0,0.0,0.1,0.0,0.0,0.0,0.1
1446040941670241247,3564,1446040941666969060,robocape,35.1260940312,24.7264219174,-42.1544232889,0.0,10.0,0.0,0.0,0.0,10.0,0.0,0.0,0.0,10.0,4.36318997193,1.63970828316,2.67740900191,1.0,0.0,0.0,0.0,1.0,0.0,0.0,0.0,1.0,3.97692993164,4.08590332031,7.23535400391,0.1,0.0,0.0,0.0,0.1,0.0,0.0,0.0,0.1
1446040941707400455,3565,1446040941704267978,robocape,45.2464242761,23.8901311973,-34.0288844767,0.0,10.0,0.0,0.0,0.0,10.0,0.0,0.0,0.0,10.0,3.82922617337,2.25543112719,3.00857308346,1.0,0.0,0.0,0.0,1.0,0.0,0.0,0.0,1.0,2.4872277832,9.13580200195,8.11791870117,0.1,0.0,0.0,0.0,0.1,0.0,0.0,0.0,0.1
1446040941741830580,3566,1446040941738619089,robocape,49.2496782979,23.4520370065,-25.0430114763,0.0,10.0,0.0,0.0,0.0,10.0,0.0,0.0,0.0,10.0,-0.015313176268,2.9534456489,3.25358390375,1.0,0.0,0.0,0.0,1.0,0.0,0.0,0.0,1.0,6.26776611328,19.6194012451,12.9965734863,0.1,0.0,0.0,0.0,0.1,0.0,0.0,0.0,0.1
1446040941777188997,3567,1446040941773900032,robocape,47.9908695387,25.2934567367,-15.7861015282,0.0,10.0,0.0,0.0,0.0,10.0,0.0,0.0,0.0,10.0,-3.23214545697,3.74986397289,2.54877832126,1.0,0.0,0.0,0.0,1.0,0.0,0.0,0.0,1.0,0.816701660156,10.4865930176,10.2458935547,0.1,0.0,0.0,0.0,0.1,0.0,0.0,0.0,0.1
1446040941812145330,3568,1446040941808557033,robocape,44.5296471322,26.1402937662,-7.70788016271,0.0,10.0,0.0,0.0,0.0,10.0,0.0,0.0,0.0,10.0,-4.24800825479,2.76489384372,2.60763418135,1.0,0.0,0.0,0.0,1.0,0.0,0.0,0.0,1.0,-3.75658813477,8.54662719727,6.52283569336,0.1,0.0,0.0,0.0,0.1,0.0,0.0,0.0,0.1
1446040941846004039,3569,1446040941842858076,robocape,39.8367258523,26.3426979968,-1.45333199057,0.0,10.0,0.0,0.0,0.0,10.0,0.0,0.0,0.0,10.0,-4.36332312999,1.75768631945,2.27114377762,1.0,0.0,0.0,0.0,1.0,0.0,0.0,0.0,1.0,-5.27024047852,9.6183984375,4.46551391602,0.1,0.0,0.0,0.0,0.1,0.0,0.0,0.0,0.1
1446040941877342705,3570,1446040941874279022,robocape,32.8721828646,26.4390583351,0.1608185952,0.0,10.0,0.0,0.0,0.0,10.0,0.0,0.0,0.0,10.0,-4.36332312999,0.223705531567,0.679771868243,1.0,0.0,0.0,0.0,1.0,0.0,0.0,0.0,1.0,-5.1732421875,7.91074951172,-0.896934814453,0.1,0.0,0.0,0.0,0.1,0.0,0.0,0.0,0.1
1446040941911014205,3571,1446040941907927036,robocape,24.2760852926,25.6752720325,-1.54745038987,0.0,10.0,0.0,0.0,0.0,10.0,0.0,0.0,0.0,10.0,-4.36332312999,-0.982839600294,-0.431432096593,1.0,0.0,0.0,0.0,1.0,0.0,0.0,0.0,1.0,-0.70892578125,2.55548583984,-8.4687890625,0.1,0.0,0.0,0.0,0.1,0.0,0.0,0.0,0.1
1446040941943424705,3572,1446040941940268993,robocape,15.0260848859,24.7202217659,-4.30438904438,0.0,10.0,0.0,0.0,0.0,10.0,0.0,0.0,0.0,10.0,-4.36332312999,-1.0940265758,-0.995356457417,1.0,0.0,0.0,0.0,1.0,0.0,0.0,0.0,1.0,0.360450439453,1.55676269531,-9.25555297852,0.1,0.0,0.0,0.0,0.1,0.0,0.0,0.0,0.1
1446040941988778455,3573,1446040941985639095,robocape,7.85617836818,25.0676088417,-8.02521437909,0.0,10.0,0.0,0.0,0.0,10.0,0.0,0.0,0.0,10.0,-2.95238038446,-0.210123410007,-1.75369157782,1.0,0.0,0.0,0.0,1.0,0.0,0.0,0.0,1.0,12.5774450684,-19.62,19.6194012451,0.1,0.0,0.0,0.0,0.1,0.0,0.0,0.0,0.1
1446040942018337372,3574,1446040942015274047,robocape,10.9981672823,29.5445307519,-10.3626296516,0.0,10.0,0.0,0.0,0.0,10.0,0.0,0.0,0.0,10.0,2.32107804806,2.37300968932,-1.56127818906,1.0,0.0,0.0,0.0,1.0,0.0,0.0,0.0,1.0,7.23774902344,-19.62,19.6140124512,0.1,0.0,0.0,0.0,0.1,0.0,0.0,0.0,0.1
1446040942052487247,3575,1446040942049339056,robocape,16.2473002334,33.2121948195,-13.7703108548,0.0,10.0,0.0,0.0,0.0,10.0,0.0,0.0,0.0,10.0,3.91045258662,1.86208223418,-2.12360465323,1.0,0.0,0.0,0.0,1.0,0.0,0.0,0.0,1.0,-1.02866088867,5.15288452148,-1.84536254883,0.1,0.0,0.0,0.0,0.1,0.0,0.0,0.0,0.1
1446040942086737080,3576,1446040942083543062,robocape,17.9143918526,35.9902557834,-17.5946042709,0.0,10.0,0.0,0.0,0.0,10.0,0.0,0.0,0.0,10.0,2.26355376851,1.25860993117,-2.23838689621,1.0,0.0,0.0,0.0,1.0,0.0,0.0,0.0,1.0,-0.392783203125,6.70485717773,0.819096679688,0.1,0.0,0.0,0.0,0.1,0.0,0.0,0.0,0.1
1446040942120324497,3577,1446040942117186069,robocape,16.9829326341,39.3758386026,-21.8426200514,0.0,10.0,0.0,0.0,0.0,10.0,0.0,0.0,0.0,10.0,1.15740980975,1.57206399147,-2.52241302647,1.0,0.0,0.0,0.0,1.0,0.0,0.0,0.0,1.0,2.64529907227,0.0419128417969,13.5282678223,0.1,0.0,0.0,0.0,0.1,0.0,0.0,0.0,0.1
1446040942151543497,3578,1446040942148448944,robocape,18.5132685094,41.6968620018,-25.5327941217,0.0,10.0,0.0,0.0,0.0,10.0,0.0,0.0,0.0,10.0,2.42773764972,1.20880881879,-2.17393839783,1.0,0.0,0.0,0.0,1.0,0.0,0.0,0.0,1.0,-1.32444580078,1.0346484375,13.8575830078,0.1,0.0,0.0,0.0,0.1,0.0,0.0,0.0,0.1
1446040942185667039,3579,1446040942182529926,robocape,20.3077128373,42.8104872506,-28.2961265637,0.0,10.0,0.0,0.0,0.0,10.0,0.0,0.0,0.0,10.0,2.27087746151,0.63622918442,-1.59749717988,1.0,0.0,0.0,0.0,1.0,0.0,0.0,0.0,1.0,-4.04279296875,2.16270263672,9.33458862305,0.1,0.0,0.0,0.0,0.1,0.0,0.0,0.0,0.1
1446040942219349914,3580,1446040942216275930,robocape,20.9823772607,43.5756827882,-30.0532726865,0.0,10.0,0.0,0.0,0.0,10.0,0.0,0.0,0.0,10.0,1.26899625942,0.477904257615,-1.09469236608,1.0,0.0,0.0,0.0,1.0,0.0,0.0,0.0,1.0,-0.987945556641,3.87753662109,7.49641113281,0.1,0.0,0.0,0.0,0.1,0.0,0.0,0.0,0.1
1446040942253645955,3581,1446040942250281095,robocape,20.3400018009,43.9471148234,-30.8901447557,0.0,10.0,0.0,0.0,0.0,10.0,0.0,0.0,0.0,10.0,0.125035413179,0.260723470719,-0.553671190627,1.0,0.0,0.0,0.0,1.0,0.0,0.0,0.0,1.0,-1.1460168457,5.15527954102,9.43757446289,0.1,0.0,0.0,0.0,0.1,0.0,0.0,0.0,0.1
1446040942282180330,3582,1446040942278949022,robocape,18.1581807693,44.0342899443,-31.4288990238,0.0,10.0,0.0,0.0,0.0,10.0,0.0,0.0,0.0,10.0,-0.897085813193,0.0396811002422,-0.26991137648,1.0,0.0,0.0,0.0,1.0,0.0,0.0,0.0,1.0,-1.16996704102,4.33259033203,8.49393676758,0.1,0.0,0.0,0.0,0.1,0.0,0.0,0.0,0.1
1446040942315503080,3583,1446040942311774015,robocape,14.8562589119,43.9857061483,-32.4068259878,0.0,10.0,0.0,0.0,0.0,10.0,0.0,0.0,0.0,10.0,-1.35368478209,-0.101066963369,-0.373508342884,1.0,0.0,0.0,0.0,1.0,0.0,0.0,0.0,1.0,-1.08973388672,2.81774047852,9.37410644531,0.1,0.0,0.0,0.0,0.1,0.0,0.0,0.0,0.1
1446040942349651372,3584,1446040942346528053,robocape,10.4305451093,44.0139457979,-34.2155301544,0.0,10.0,0.0,0.0,0.0,10.0,0.0,0.0,0.0,10.0,-1.62852300658,-0.0830906260105,-0.718520862103,1.0,0.0,0.0,0.0,1.0,0.0,0.0,0.0,1.0,-0.24908203125,2.50758544922,9.27471313477,0.1,0.0,0.0,0.0,0.1,0.0,0.0,0.0,0.1
1446040942381415247,3585,1446040942378226041,robocape,4.74736666022,44.0619691546,-36.3763785029,0.0,10.0,0.0,0.0,0.0,10.0,0.0,0.0,0.0,10.0,-2.16461733402,-0.0292947719909,-0.860999980423,1.0,0.0,0.0,0.0,1.0,0.0,0.0,0.0,1.0,-0.3065625,3.35901489258,9.13101196289,0.1,0.0,0.0,0.0,0.1,0.0,0.0,0.0,0.1
1446040942410432747,3586,1446040942407380104,robocape,-2.41909255378,43.7940571153,-38.8477986462,0.0,10.0,0.0,0.0,0.0,10.0,0.0,0.0,0.0,10.0,-2.84132656701,-0.112385398001,-0.973651694533,1.0,0.0,0.0,0.0,1.0,0.0,0.0,0.0,1.0,0.469423828125,2.96742919922,8.1203137207,0.1,0.0,0.0,0.0,0.1,0.0,0.0,0.0,0.1
1446040942439503247,3587,1446040942436115980,robocape,-8.87402830313,42.9484143148,-42.4454305064,0.0,10.0,0.0,0.0,0.0,10.0,0.0,0.0,0.0,10.0,-2.04717192994,-0.119176458781,-1.57712399754,1.0,0.0,0.0,0.0,1.0,0.0,0.0,0.0,1.0,2.94228149414,-10.3895947266,13.7701647949,0.1,0.0,0.0,0.0,0.1,0.0,0.0,0.0,0.1
1446040942469241747,3588,1446040942466212034,robocape,-11.2948952493,43.0587307608,-47.2438877187,0.0,10.0,0.0,0.0,0.0,10.0,0.0,0.0,0.0,10.0,0.545149075139,0.890960542686,-2.2618227138,1.0,0.0,0.0,0.0,1.0,0.0,0.0,0.0,1.0,6.71683227539,-10.6027514648,16.09453125,0.1,0.0,0.0,0.0,0.1,0.0,0.0,0.0,0.1
1446040942503060331,3589,1446040942499944925,robocape,-11.9959797485,44.0785036648,-51.4539409767,0.0,10.0,0.0,0.0,0.0,10.0,0.0,0.0,0.0,10.0,1.28417627764,1.48284809496,-2.05356351656,1.0,0.0,0.0,0.0,1.0,0.0,0.0,0.0,1.0,0.562829589844,1.62023071289,9.8064074707,0.1,0.0,0.0,0.0,0.1,0.0,0.0,0.0,0.1
1446040942535583956,3590,1446040942532361030,robocape,-13.5183835785,44.5571235503,-55.3218576503,0.0,10.0,0.0,0.0,0.0,10.0,0.0,0.0,0.0,10.0,0.750079321021,1.175119831,-1.96541288448,1.0,0.0,0.0,0.0,1.0,0.0,0.0,0.0,1.0,-0.78556640625,2.4944128418,9.63516357422,0.1,0.0,0.0,0.0,0.1,0.0,0.0,0.0,0.1
1446040942568795914,3591,1446040942565661907,robocape,-16.0376173745,44.4984870373,-58.987940991,0.0,10.0,0.0,0.0,0.0,10.0,0.0,0.0,0.0,10.0,0.144609647191,0.898683709847,-1.93598495443,1.0,0.0,0.0,0.0,1.0,0.0,0.0,0.0,1.0,-1.47652954102,4.03201538086,9.0016809082,0.1,0.0,0.0,0.0,0.1,0.0,0.0,0.0,0.1
1446040942603407414,3592,1446040942600246906,robocape,-20.6511541363,44.0065860448,-61.8585557336,0.0,10.0,0.0,0.0,0.0,10.0,0.0,0.0,0.0,10.0,-1.30428314387,0.552739084246,-1.59576612518,1.0,0.0,0.0,0.0,1.0,0.0,0.0,0.0,1.0,-1.67771118164,2.69918701172,9.75491455078,0.1,0.0,0.0,0.0,0.1,0.0,0.0,0.0,0.1
1446040942636988206,3593,1446040942633579015,robocape,-23.8323637296,43.1870764614,-64.6114408438,0.0,10.0,0.0,0.0,0.0,10.0,0.0,0.0,0.0,10.0,-0.623312853133,0.511859561513,-1.67459569344,1.0,0.0,0.0,0.0,1.0,0.0,0.0,0.0,1.0,1.07775878906,-8.46160400391,10.4674328613,0.1,0.0,0.0,0.0,0.1,0.0,0.0,0.0,0.1
1446040942674388622,3594,1446040942670993089,robocape,-24.890621419,43.0280488314,-66.50411149,0.0,10.0,0.0,0.0,0.0,10.0,0.0,0.0,0.0,10.0,0.162985458713,0.73556509308,-1.23317674276,1.0,0.0,0.0,0.0,1.0,0.0,0.0,0.0,1.0,0.729283447266,-4.99002319336,9.32021850586,0.1,0.0,0.0,0.0,0.1,0.0,0.0,0.0,0.1
1446040942712549081,3595,1446040942709356069,robocape,-25.4753494514,42.9856709889,-67.9864573984,0.0,10.0,0.0,0.0,0.0,10.0,0.0,0.0,0.0,10.0,0.260856628773,0.710797694942,-1.04409230537,1.0,0.0,0.0,0.0,1.0,0.0,0.0,0.0,1.0,-0.504151611328,-2.38184692383,8.64362548828,0.1,0.0,0.0,0.0,0.1,0.0,0.0,0.0,0.1
1446040942746022831,3596,1446040942742897033,robocape,-26.028840309,42.8128250934,-69.3065451121,0.0,10.0,0.0,0.0,0.0,10.0,0.0,0.0,0.0,10.0,0.217580261059,0.612527050718,-1.00867226287,1.0,0.0,0.0,0.0,1.0,0.0,0.0,0.0,1.0,0.704135742188,-2.27526855469,9.77287719727,0.1,0.0,0.0,0.0,0.1,0.0,0.0,0.0,0.1
1446040942777627539,3597,1446040942773989915,robocape,-26.6742972424,42.5833425187,-70.5270964199,0.0,10.0,0.0,0.0,0.0,10.0,0.0,0.0,0.0,10.0,0.130628051468,0.569916473277,-0.990296451346,1.0,0.0,0.0,0.0,1.0,0.0,0.0,0.0,1.0,-0.0455053710938,-1.79147460938,9.29866333008,0.1,0.0,0.0,0.0,0.1,0.0,0.0,0.0,0.1
1446040942807087414,3598,1446040942803910970,robocape,-27.4919578585,42.3208877761,-71.5942126588,0.0,10.0,0.0,0.0,0.0,10.0,0.0,0.0,0.0,10.0,-0.0203731823391,0.520248518947,-0.936500597326,1.0,0.0,0.0,0.0,1.0,0.0,0.0,0.0,1.0,0.477806396484,-2.97461425781,9.76209960938,0.1,0.0,0.0,0.0,0.1,0.0,0.0,0.0,0.1
1446040942845429456,3599,1446040942841877937,robocape,-28.0312890802,42.1450803042,-72.4952283811,0.0,10.0,0.0,0.0,0.0,10.0,0.0,0.0,0.0,10.0,0.0625842856169,0.529436424708,-0.853942603534,1.0,0.0,0.0,0.0,1.0,0.0,0.0,0.0,1.0,0.336500244141,-3.33865722656,9.21124511719,0.1,0.0,0.0,0.0,0.1,0.0,0.0,0.0,0.1
1446040942879396247,3600,1446040942876107931,robocape,-28.2673647363,41.9804394827,-73.3594174417,0.0,10.0,0.0,0.0,0.0,10.0,0.0,0.0,0.0,10.0,0.208392355299,0.538091698251,-0.851013126335,1.0,0.0,0.0,0.0,1.0,0.0,0.0,0.0,1.0,0.644260253906,-3.25123901367,9.92256591797,0.1,0.0,0.0,0.0,0.1,0.0,0.0,0.0,0.1
1446040942915037122,3601,1446040942910964012,robocape,-28.2416552953,41.7878909465,-74.4418061073,0.0,10.0,0.0,0.0,0.0,10.0,0.0,0.0,0.0,10.0,0.427836829121,0.61465757959,-0.995622773526,1.0,0.0,0.0,0.0,1.0,0.0,0.0,0.0,1.0,1.09691894531,-1.44898681641,10.5081481934,0.1,0.0,0.0,0.0,0.1,0.0,0.0,0.0,0.1
1446040942947678997,3602,1446040942944586038,robocape,-28.7012852547,41.3863739075,-75.8996566004,0.0,10.0,0.0,0.0,0.0,10.0,0.0,0.0,0.0,10.0,0.30866037034,0.654738153996,-1.2681973111,1.0,0.0,0.0,0.0,1.0,0.0,0.0,0.0,1.0,0.779578857422,0.211959228516,10.1045874023,0.1,0.0,0.0,0.0,0.1,0.0,0.0,0.0,0.1
1446040942991951039,3603,1446040942988621950,robocape,-30.0760232964,40.8394504445,-77.2750550145,0.0,10.0,0.0,0.0,0.0,10.0,0.0,0.0,0.0,10.0,-0.213186045261,0.573112266585,-1.28204574876,1.0,0.0,0.0,0.0,1.0,0.0,0.0,0.0,1.0,-0.124541015625,-1.57592285156,9.19447998047,0.1,0.0,0.0,0.0,0.1,0.0,0.0,0.0,0.1
1446040943025631206,3604,1446040943022407054,robocape,-31.3500070863,40.3565602566,-78.2964513665,0.0,10.0,0.0,0.0,0.0,10.0,0.0,0.0,0.0,10.0,-0.298540358198,0.508530610151,-1.10374711378,1.0,0.0,0.0,0.0,1.0,0.0,0.0,0.0,1.0,0.298179931641,-4.75291625977,9.20645507812,0.1,0.0,0.0,0.0,0.1,0.0,0.0,0.0,0.1
1446040943054491372,3605,1446040943051372051,robocape,-31.8395879553,40.0206957623,-79.1607091416,0.0,10.0,0.0,0.0,0.0,10.0,0.0,0.0,0.0,10.0,0.0523311154201,0.548744342611,-1.00933805314,1.0,0.0,0.0,0.0,1.0,0.0,0.0,0.0,1.0,0.775986328125,-5.70493652344,9.2771081543,0.1,0.0,0.0,0.0,0.1,0.0,0.0,0.0,0.1
1446040943084589664,3606,1446040943081304073,robocape,-31.6418673042,39.7654352105,-79.936898573,0.0,10.0,0.0,0.0,0.0,10.0,0.0,0.0,0.0,10.0,0.383495196971,0.567785944405,-0.963132208227,1.0,0.0,0.0,0.0,1.0,0.0,0.0,0.0,1.0,0.238304443359,-3.64521972656,9.73575439453,0.1,0.0,0.0,0.0,0.1,0.0,0.0,0.0,0.1
1446040943112800414,3607,1446040943109704971,robocape,-31.4077977502,39.5018820898,-80.5509561682,0.0,10.0,0.0,0.0,0.0,10.0,0.0,0.0,0.0,10.0,0.348740944746,0.503870078243,-0.89136001685,1.0,0.0,0.0,0.0,1.0,0.0,0.0,0.0,1.0,0.340092773437,-1.61184814453,8.7406237793,0.1,0.0,0.0,0.0,0.1,0.0,0.0,0.0,0.1
1446040943148293373,3608,1446040943145117998,robocape,-31.7446031546,39.1231482242,-81.048377968,0.0,10.0,0.0,0.0,0.0,10.0,0.0,0.0,0.0,10.0,0.00652474467069,0.402270482656,-0.862464719022,1.0,0.0,0.0,0.0,1.0,0.0,0.0,0.0,1.0,0.0586779785156,-1.83099243164,9.40284667969,0.1,0.0,0.0,0.0,0.1,0.0,0.0,0.0,0.1
1446040943178201914,3609,1446040943174926996,robocape,-32.2667756081,38.7010566001,-81.4967099262,0.0,10.0,0.0,0.0,0.0,10.0,0.0,0.0,0.0,10.0,-0.112784872165,0.368448336812,-0.855673658242,1.0,0.0,0.0,0.0,1.0,0.0,0.0,0.0,1.0,0.211959228516,-2.89677612305,9.27830566406,0.1,0.0,0.0,0.0,0.1,0.0,0.0,0.0,0.1
1446040943206771123,3610,1446040943203664064,robocape,-32.5991305317,38.3163853763,-81.8022926277,0.0,10.0,0.0,0.0,0.0,10.0,0.0,0.0,0.0,10.0,-0.0656469208705,0.334759349023,-0.772183558068,1.0,0.0,0.0,0.0,1.0,0.0,0.0,0.0,1.0,0.441881103516,-4.34097290039,9.22082519531,0.1,0.0,0.0,0.0,0.1,0.0,0.0,0.0,0.1
1446040943237150414,3611,1446040943234018087,robocape,-32.7160037006,38.1336477103,-81.95164958,0.0,10.0,0.0,0.0,0.0,10.0,0.0,0.0,0.0,10.0,-0.00705737688871,0.367516230431,-0.63356602333,1.0,0.0,0.0,0.0,1.0,0.0,0.0,0.0,1.0,-0.361647949219,-3.92184448242,8.52028198242,0.1,0.0,0.0,0.0,0.1,0.0,0.0,0.0,0.1
1446040943269946414,3612,1446040943266819953,robocape,-32.9978865422,38.1234358235,-81.7628868138,0.0,10.0,0.0,0.0,0.0,10.0,0.0,0.0,0.0,10.0,-0.206927616699,0.303600364269,-0.384959935571,1.0,0.0,0.0,0.0,1.0,0.0,0.0,0.0,1.0,-0.0850231933594,-4.44755126953,8.74900634766,0.1,0.0,0.0,0.0,0.1,0.0,0.0,0.0,0.1
1446040943301269581,3613,1446040943298171997,robocape,-33.0476939686,38.1338394734,-81.3459909271,0.0,10.0,0.0,0.0,0.0,10.0,0.0,0.0,0.0,10.0,-0.160854929841,0.21465078386,-0.237820285344,1.0,0.0,0.0,0.0,1.0,0.0,0.0,0.0,1.0,-0.0622705078125,-4.91338256836,8.72505615234,0.1,0.0,0.0,0.0,0.1,0.0,0.0,0.0,0.1
1446040943335231956,3614,1446040943332118988,robocape,-32.794911903,38.187452747,-80.8025052117,0.0,10.0,0.0,0.0,0.0,10.0,0.0,0.0,0.0,10.0,-0.0436758418773,0.178298634981,-0.144476489137,1.0,0.0,0.0,0.0,1.0,0.0,0.0,0.0,1.0,0.0143701171875,-4.01285522461,8.67595825195,0.1,0.0,0.0,0.0,0.1,0.0,0.0,0.0,0.1
1446040943369207914,3615,1446040943366111993,robocape,-32.3555538242,38.1755704281,-80.2194363704,0.0,10.0,0.0,0.0,0.0,10.0,0.0,0.0,0.0,10.0,0.0418116291142,0.127698574269,-0.13009541925,1.0,0.0,0.0,0.0,1.0,0.0,0.0,0.0,1.0,-0.362845458984,-4.32181274414,8.69152587891,0.1,0.0,0.0,0.0,0.1,0.0,0.0,0.0,0.1
1446040943403961039,3616,1446040943400815963,robocape,-31.7337699635,38.1269059135,-79.6423602681,0.0,10.0,0.0,0.0,0.0,10.0,0.0,0.0,0.0,10.0,0.140614905556,0.109189604693,-0.134889109213,1.0,0.0,0.0,0.0,1.0,0.0,0.0,0.0,1.0,-0.362845458984,-4.40803344727,8.96216308594,0.1,0.0,0.0,0.0,0.1,0.0,0.0,0.0,0.1
1446040943437665164,3617,1446040943434081077,robocape,-30.9548897166,37.8821536446,-79.257163094,0.0,10.0,0.0,0.0,0.0,10.0,0.0,0.0,0.0,10.0,0.288020871892,0.0894822126267,-0.288020871892,1.0,0.0,0.0,0.0,1.0,0.0,0.0,0.0,1.0,0.106578369141,-3.33865722656,9.03281616211,0.1,0.0,0.0,0.0,0.1,0.0,0.0,0.0,0.1
1446040943468291289,3618,1446040943465085983,robocape,-30.1906129061,37.6135581066,-78.8787137279,0.0,10.0,0.0,0.0,0.0,10.0,0.0,0.0,0.0,10.0,0.284825078584,0.0747016685767,-0.291083507146,1.0,0.0,0.0,0.0,1.0,0.0,0.0,0.0,1.0,-0.379610595703,-3.14346313477,8.75140136719,0.1,0.0,0.0,0.0,0.1,0.0,0.0,0.0,0.1
1446040943503512206,3619,1446040943500394105,robocape,-29.9472927097,37.5994373843,-78.0895474884,0.0,10.0,0.0,0.0,0.0,10.0,0.0,0.0,0.0,10.0,-0.121839619871,0.0292947719909,0.0205063403936,1.0,0.0,0.0,0.0,1.0,0.0,0.0,0.0,1.0,-0.280217285156,-3.56259155273,9.0400012207,0.1,0.0,0.0,0.0,0.1,0.0,0.0,0.0,0.1
1446040943537741331,3620,1446040943534625053,robocape,-29.4724838256,37.5985014289,-77.2915637212,0.0,10.0,0.0,0.0,0.0,10.0,0.0,0.0,0.0,10.0,-0.0033289513626,0.0296942461544,0.0368847810976,1.0,0.0,0.0,0.0,1.0,0.0,0.0,0.0,1.0,-0.17244140625,-3.58414672852,8.84360961914,0.1,0.0,0.0,0.0,0.1,0.0,0.0,0.0,0.1
1446040943575172956,3621,1446040943571732997,robocape,-29.0037299508,37.5953648138,-76.4844971877,0.0,10.0,0.0,0.0,0.0,10.0,0.0,0.0,0.0,10.0,-0.00932106381528,0.0222373951022,0.050466902657,1.0,0.0,0.0,0.0,1.0,0.0,0.0,0.0,1.0,-1.34240844727,-3.75060058594,9.07353149414,0.1,0.0,0.0,0.0,0.1,0.0,0.0,0.0,0.1
1446040943606052289,3622,1446040943603008031,robocape,-28.7719289474,37.6443549022,-75.6138719917,0.0,10.0,0.0,0.0,0.0,10.0,0.0,0.0,0.0,10.0,-0.154729659334,0.0203731823391,0.107591708039,1.0,0.0,0.0,0.0,1.0,0.0,0.0,0.0,1.0,-1.31247070313,-3.60809692383,8.94899047852,0.1,0.0,0.0,0.0,0.1,0.0,0.0,0.0,0.1
1446040943639233956,3623,1446040943635968923,robocape,-28.5419937039,37.7181285211,-74.7092178841,0.0,10.0,0.0,0.0,0.0,10.0,0.0,0.0,0.0,10.0,-0.16764599062,0.01744370514,0.140082273338,1.0,0.0,0.0,0.0,1.0,0.0,0.0,0.0,1.0,-0.899329833984,-3.59372680664,9.00407592773,0.1,0.0,0.0,0.0,0.1,0.0,0.0,0.0,0.1
1446040943676758039,3624,1446040943673319101,robocape,-28.2628963626,37.8088950598,-73.7685252618,0.0,10.0,0.0,0.0,0.0,10.0,0.0,0.0,0.0,10.0,-0.154463343225,0.0107858024148,0.171374416147,1.0,0.0,0.0,0.0,1.0,0.0,0.0,0.0,1.0,-1.13404174805,-3.97333740234,8.94539794922,0.1,0.0,0.0,0.0,0.1,0.0,0.0,0.0,0.1
1446040943711165539,3625,1446040943708034992,robocape,-27.8171247032,37.7821585153,-72.9859808068,0.0,10.0,0.0,0.0,0.0,10.0,0.0,0.0,0.0,10.0,-0.016112124595,0.00705737688871,0.0651142886524,1.0,0.0,0.0,0.0,1.0,0.0,0.0,0.0,1.0,-1.67052612305,-3.8739440918,8.93581787109,0.1,0.0,0.0,0.0,0.1,0.0,0.0,0.0,0.1
1446040943742150873,3626,1446040943739006996,robocape,-27.3378625906,37.7121679818,-72.3373520011,0.0,10.0,0.0,0.0,0.0,10.0,0.0,0.0,0.0,10.0,0.0452737385313,0.0298274042089,-0.0114515926873,1.0,0.0,0.0,0.0,1.0,0.0,0.0,0.0,1.0,-2.33873657227,-3.47038330078,9.0052734375,0.1,0.0,0.0,0.0,0.1,0.0,0.0,0.0,0.1
1446040943777406998,3627,1446040943774229049,robocape,-26.9914140885,37.6441791667,-71.7095977253,0.0,10.0,0.0,0.0,0.0,10.0,0.0,0.0,0.0,10.0,-0.0173105470855,0.0347542522255,-0.0157126504315,1.0,0.0,0.0,0.0,1.0,0.0,0.0,0.0,1.0,-1.58071289063,-3.73024291992,8.87115234375,0.1,0.0,0.0,0.0,0.1,0.0,0.0,0.0,0.1
1446040943812984915,3628,1446040943809619903,robocape,-26.6488122024,37.594544972,-71.0335423653,0.0,10.0,0.0,0.0,0.0,10.0,0.0,0.0,0.0,10.0,-0.0347542522255,0.0246342400832,0.0215716048296,1.0,0.0,0.0,0.0,1.0,0.0,0.0,0.0,1.0,-0.796343994141,-3.76018066406,8.83283203125,0.1,0.0,0.0,0.0,0.1,0.0,0.0,0.0,0.1
1446040943844209498,3629,1446040943840598106,robocape,-26.3117899944,37.5954000294,-70.2695399107,0.0,10.0,0.0,0.0,0.0,10.0,0.0,0.0,0.0,10.0,-0.066046395034,0.018242653467,0.0866858934821,1.0,0.0,0.0,0.0,1.0,0.0,0.0,0.0,1.0,-1.05380859375,-3.74940307617,8.87953491211,0.1,0.0,0.0,0.0,0.1,0.0,0.0,0.0,0.1
1446040943879487415,3630,1446040943876184940,robocape,-25.9788931439,37.5920095474,-69.5109605745,0.0,10.0,0.0,0.0,0.0,10.0,0.0,0.0,0.0,10.0,-0.066579027252,0.0157126504315,0.0894822126267,1.0,0.0,0.0,0.0,1.0,0.0,0.0,0.0,1.0,-1.61903320313,-3.755390625,8.87234985352,0.1,0.0,0.0,0.0,0.1,0.0,0.0,0.0,0.1
1446040943914449290,3631,1446040943911314010,robocape,-25.6444279784,37.5417806362,-68.8604834189,0.0,10.0,0.0,0.0,0.0,10.0,0.0,0.0,0.0,10.0,-0.0308926686449,0.0246342400832,0.0279631914458,1.0,0.0,0.0,0.0,1.0,0.0,0.0,0.0,1.0,-1.76153686523,-3.71108276367,8.82564697266,0.1,0.0,0.0,0.0,0.1,0.0,0.0,0.0,0.1
1446040943949067665,3632,1446040943945879936,robocape,-25.2349205699,37.4487329544,-68.2795404635,0.0,10.0,0.0,0.0,0.0,10.0,0.0,0.0,0.0,10.0,0.0312921428084,0.0225037112112,-0.0115847507418,1.0,0.0,0.0,0.0,1.0,0.0,0.0,0.0,1.0,-1.56155273438,-3.91825195313,8.82804199219,0.1,0.0,0.0,0.0,0.1,0.0,0.0,0.0,0.1
1446040943993207415,3633,1446040943990103960,robocape,-24.680938198,37.2476249507,-67.8987119128,0.0,10.0,0.0,0.0,0.0,10.0,0.0,0.0,0.0,10.0,0.172572838637,0.0271642431188,-0.133957002831,1.0,0.0,0.0,0.0,1.0,0.0,0.0,0.0,1.0,-1.46455444336,-3.73503295898,8.82205444336,0.1,0.0,0.0,0.0,0.1,0.0,0.0,0.0,0.1
1446040944028273748,3634,1446040944024996042,robocape,-24.1960455257,37.0751562535,-67.5417080861,0.0,10.0,0.0,0.0,0.0,10.0,0.0,0.0,0.0,10.0,0.145142279409,0.0462058449129,-0.137552270303,1.0,0.0,0.0,0.0,1.0,0.0,0.0,0.0,1.0,-1.85135009766,-3.31710205078,9.05676635742,0.1,0.0,0.0,0.0,0.1,0.0,0.0,0.0,0.1
1446040944057832540,3635,1446040944054735898,robocape,-23.7711018502,36.9446741632,-67.1215923571,0.0,10.0,0.0,0.0,0.0,10.0,0.0,0.0,0.0,10.0,0.0944090606433,0.0458063707494,-0.0914795834442,1.0,0.0,0.0,0.0,1.0,0.0,0.0,0.0,1.0,-0.908909912109,-3.75419311523,8.82444946289,0.1,0.0,0.0,0.0,0.1,0.0,0.0,0.0,0.1
1446040944090191831,3636,1446040944087099075,robocape,-23.2597903057,36.7660162861,-66.7558905068,0.0,10.0,0.0,0.0,0.0,10.0,0.0,0.0,0.0,10.0,0.158191768751,0.0344879361165,-0.124502780961,1.0,0.0,0.0,0.0,1.0,0.0,0.0,0.0,1.0,-1.06578369141,-3.59612182617,8.88791748047,0.1,0.0,0.0,0.0,0.1,0.0,0.0,0.0,0.1
1446040944123118248,3637,1446040944119980096,robocape,-22.8683470077,36.7013881039,-66.1914037051,0.0,10.0,0.0,0.0,0.0,10.0,0.0,0.0,0.0,10.0,0.032756881408,0.032490565299,0.00759000910673,1.0,0.0,0.0,0.0,1.0,0.0,0.0,0.0,1.0,-1.23463256836,-3.63324462891,8.90468261719,0.1,0.0,0.0,0.0,0.1,0.0,0.0,0.0,0.1
1446040944155184123,3638,1446040944151817083,robocape,-22.5811260709,36.6584069524,-65.5393658032,0.0,10.0,0.0,0.0,0.0,10.0,0.0,0.0,0.0,10.0,-0.0495347962755,0.015845808486,0.0647148144889,1.0,0.0,0.0,0.0,1.0,0.0,0.0,0.0,1.0,-0.874182128906,-4.05955810547,8.82923950195,0.1,0.0,0.0,0.0,0.1,0.0,0.0,0.0,0.1
1446040944193846831,3639,1446040944190287113,robocape,-22.2242098318,36.5644075243,-64.9630518172,0.0,10.0,0.0,0.0,0.0,10.0,0.0,0.0,0.0,10.0,0.0113184346328,0.00892158965177,0.0210389726116,1.0,0.0,0.0,0.0,1.0,0.0,0.0,0.0,1.0,-1.48970214844,-3.73982299805,8.95497802734,0.1,0.0,0.0,0.0,0.1,0.0,0.0,0.0,0.1
1446040944228842290,3640,1446040944225735902,robocape,-21.9929867965,36.5135724821,-64.3850606339,0.0,10.0,0.0,0.0,0.0,10.0,0.0,0.0,0.0,10.0,-0.0549942765101,0.0287621397729,0.0336889877895,1.0,0.0,0.0,0.0,1.0,0.0,0.0,0.0,1.0,-1.57352783203,-3.92902954102,8.95857055664,0.1,0.0,0.0,0.0,0.1,0.0,0.0,0.0,0.1
1446040944264457540,3641,1446040944261239051,robocape,-21.6514859279,36.3926375738,-63.9511294759,0.0,10.0,0.0,0.0,0.0,10.0,0.0,0.0,0.0,10.0,0.0487358479485,0.0302268783724,-0.050200586548,1.0,0.0,0.0,0.0,1.0,0.0,0.0,0.0,1.0,-1.40228393555,-3.6404296875,8.95378051758,0.1,0.0,0.0,0.0,0.1,0.0,0.0,0.0,0.1
1446040944299124040,3642,1446040944295506954,robocape,-21.2147049782,36.2509092629,-63.5558753195,0.0,10.0,0.0,0.0,0.0,10.0,0.0,0.0,0.0,10.0,0.111719607729,0.0279631914458,-0.0700411366691,1.0,0.0,0.0,0.0,1.0,0.0,0.0,0.0,1.0,-1.609453125,-3.36739746094,9.02922363281,0.1,0.0,0.0,0.0,0.1,0.0,0.0,0.0,0.1
1446040944332865290,3643,1446040944329255104,robocape,-20.8502447868,36.1441055763,-63.1506349996,0.0,10.0,0.0,0.0,0.0,10.0,0.0,0.0,0.0,10.0,0.0713727172141,0.0415453130052,-0.0556600667827,1.0,0.0,0.0,0.0,1.0,0.0,0.0,0.0,1.0,-1.6130456543,-3.67156494141,8.99689086914,0.1,0.0,0.0,0.0,0.1,0.0,0.0,0.0,0.1
1446040944367269206,3644,1446040944364111900,robocape,-20.6708256248,36.0877119327,-62.63974501,0.0,10.0,0.0,0.0,0.0,10.0,0.0,0.0,0.0,10.0,-0.0587227020362,0.0374174133156,0.0131826473959,1.0,0.0,0.0,0.0,1.0,0.0,0.0,0.0,1.0,-0.992735595703,-3.55301147461,8.8867199707,0.1,0.0,0.0,0.0,0.1,0.0,0.0,0.0,0.1
1446040944398057248,3645,1446040944394576072,robocape,-20.5404474986,36.1137969217,-61.9089134988,0.0,10.0,0.0,0.0,0.0,10.0,0.0,0.0,0.0,10.0,-0.153664394898,0.0211721306661,0.147672282445,1.0,0.0,0.0,0.0,1.0,0.0,0.0,0.0,1.0,-0.758023681641,-3.62126953125,8.93102783203,0.1,0.0,0.0,0.0,0.1,0.0,0.0,0.0,0.1
1446040944430491581,3646,1446040944427314996,robocape,-20.450813514,36.1629224135,-61.0826686918,0.0,10.0,0.0,0.0,0.0,10.0,0.0,0.0,0.0,10.0,-0.205596036154,0.0067910607797,0.206528142536,1.0,0.0,0.0,0.0,1.0,0.0,0.0,0.0,1.0,-1.12565917969,-3.72904541016,8.92264526367,0.1,0.0,0.0,0.0,0.1,0.0,0.0,0.0,0.1
1446040944464133165,3647,1446040944460776090,robocape,-20.2314178811,36.1756989358,-60.3289086654,0.0,10.0,0.0,0.0,0.0,10.0,0.0,0.0,0.0,10.0,-0.115448033255,0.00532632218016,0.167113358402,1.0,0.0,0.0,0.0,1.0,0.0,0.0,0.0,1.0,-1.30887817383,-3.70868774414,8.93941040039,0.1,0.0,0.0,0.0,0.1,0.0,0.0,0.0,0.1
1446040944494648873,3648,1446040944491600990,robocape,-19.8797405106,36.0679041749,-59.8259293703,0.0,10.0,0.0,0.0,0.0,10.0,0.0,0.0,0.0,10.0,0.032490565299,0.00359526747161,0.0231695014837,1.0,0.0,0.0,0.0,1.0,0.0,0.0,0.0,1.0,-2.04414916992,-4.3721081543,8.87833740234,0.1,0.0,0.0,0.0,0.1,0.0,0.0,0.0,0.1
1446040944529085373,3649,1446040944525510072,robocape,-19.3672635119,35.8498488936,-59.676828836,0.0,10.0,0.0,0.0,0.0,10.0,0.0,0.0,0.0,10.0,0.228499221529,0.0315584589174,-0.174570209455,1.0,0.0,0.0,0.0,1.0,0.0,0.0,0.0,1.0,-1.916015625,-3.38057006836,8.86875732422,0.1,0.0,0.0,0.0,0.1,0.0,0.0,0.0,0.1
1446040944563356707,3650,1446040944559993982,robocape,-18.8703606254,35.6621045876,-59.5250017924,0.0,10.0,0.0,0.0,0.0,10.0,0.0,0.0,0.0,10.0,0.220776054368,0.0451405804768,-0.167779148675,1.0,0.0,0.0,0.0,1.0,0.0,0.0,0.0,1.0,-1.62142822266,-3.76137817383,9.07592651367,0.1,0.0,0.0,0.0,0.1,0.0,0.0,0.0,0.1
1446040944595582540,3651,1446040944592144012,robocape,-18.4805437203,35.5104441408,-59.3714329962,0.0,10.0,0.0,0.0,0.0,10.0,0.0,0.0,0.0,10.0,0.165115987585,0.0620516533988,-0.160854929841,1.0,0.0,0.0,0.0,1.0,0.0,0.0,0.0,1.0,-1.12206665039,-3.27159667969,9.05317382813,0.1,0.0,0.0,0.0,0.1,0.0,0.0,0.0,0.1
1446040944629718248,3652,1446040944625861883,robocape,-18.2045669061,35.4068743506,-59.0607568633,0.0,10.0,0.0,0.0,0.0,10.0,0.0,0.0,0.0,10.0,0.0572579634367,0.0483363737849,-0.0688427141785,1.0,0.0,0.0,0.0,1.0,0.0,0.0,0.0,1.0,-0.746048583984,-3.67755249023,9.00647094727,0.1,0.0,0.0,0.0,0.1,0.0,0.0,0.0,0.1
1446040944664319540,3653,1446040944661180973,robocape,-17.9673104768,35.3177546237,-58.6228290402,0.0,10.0,0.0,0.0,0.0,10.0,0.0,0.0,0.0,10.0,-0.00213052887206,0.0242347659197,0.00426105774413,1.0,0.0,0.0,0.0,1.0,0.0,0.0,0.0,1.0,-0.714913330078,-3.8356237793,8.82804199219,0.1,0.0,0.0,0.0,0.1,0.0,0.0,0.0,0.1
1446040944693837582,3654,1446040944690440893,robocape,-17.7935265124,35.2685174285,-58.0552048814,0.0,10.0,0.0,0.0,0.0,10.0,0.0,0.0,0.0,10.0,-0.0753674588492,0.0137152796139,0.0818922035199,1.0,0.0,0.0,0.0,1.0,0.0,0.0,0.0,1.0,-1.11967163086,-3.22609130859,9.03281616211,0.1,0.0,0.0,0.0,0.1,0.0,0.0,0.0,0.1
1446040944729595582,3655,1446040944725980997,robocape,-17.7394490751,35.2934573967,-57.3166924793,0.0,10.0,0.0,0.0,0.0,10.0,0.0,0.0,0.0,10.0,-0.191081808213,0.0125168571234,0.185089695761,1.0,0.0,0.0,0.0,1.0,0.0,0.0,0.0,1.0,-1.06698120117,-3.38176757813,8.92743530273,0.1,0.0,0.0,0.0,0.1,0.0,0.0,0.0,0.1
1446040944764841373,3656,1446040944761575937,robocape,-17.7241686675,35.3306448513,-56.5315582738,0.0,10.0,0.0,0.0,0.0,10.0,0.0,0.0,0.0,10.0,-0.226501850711,0.00692421883421,0.214783941915,1.0,0.0,0.0,0.0,1.0,0.0,0.0,0.0,1.0,-0.86220703125,-3.77335327148,8.86037475586,0.1,0.0,0.0,0.0,0.1,0.0,0.0,0.0,0.1
1446040944799911540,3657,1446040944796463966,robocape,-17.5615251875,35.3432489279,-55.8019483036,0.0,10.0,0.0,0.0,0.0,10.0,0.0,0.0,0.0,10.0,-0.13275858034,0.00559263828917,0.186021802142,1.0,0.0,0.0,0.0,1.0,0.0,0.0,0.0,1.0,-1.56514526367,-3.73383544922,8.88552246094,0.1,0.0,0.0,0.0,0.1,0.0,0.0,0.0,0.1
1446040944830848290,3658,1446040944827223062,robocape,-17.3197477212,35.2694178635,-55.3608520359,0.0,10.0,0.0,0.0,0.0,10.0,0.0,0.0,0.0,10.0,-0.00279631914458,0.0222373951022,0.0298274042089,1.0,0.0,0.0,0.0,1.0,0.0,0.0,0.0,1.0,-2.27766357422,-3.80927856445,8.76457397461,0.1,0.0,0.0,0.0,0.1,0.0,0.0,0.0,0.1
1446040944864183498,3659,1446040944861108064,robocape,-17.1985726108,35.1884644404,-54.9617122861,0.0,10.0,0.0,0.0,0.0,10.0,0.0,0.0,0.0,10.0,-0.0531300637471,0.0258326625738,0.0106526443603,1.0,0.0,0.0,0.0,1.0,0.0,0.0,0.0,1.0,-1.83338745117,-3.5601965332,8.8903125,0.1,0.0,0.0,0.0,0.1,0.0,0.0,0.0,0.1
1446040944897585082,3660,1446040944894515037,robocape,-17.0081480897,35.1070467885,-54.5683852822,0.0,10.0,0.0,0.0,0.0,10.0,0.0,0.0,0.0,10.0,-0.0149137021044,0.0256995045193,0.0102531701968,1.0,0.0,0.0,0.0,1.0,0.0,0.0,0.0,1.0,-1.17715209961,-3.78772338867,8.94420043945,0.1,0.0,0.0,0.0,0.1,0.0,0.0,0.0,0.1
1446040944932414998,3661,1446040944928865909,robocape,-16.7756941774,35.0417165024,-54.1216770328,0.0,10.0,0.0,0.0,0.0,10.0,0.0,0.0,0.0,10.0,-0.00892158965177,0.0218379209386,0.0423442613323,1.0,0.0,0.0,0.0,1.0,0.0,0.0,0.0,1.0,-1.19511474609,-3.85238891602,8.86755981445,0.1,0.0,0.0,0.0,0.1,0.0,0.0,0.0,0.1
1446040944974652623,3662,1446040944971465110,robocape,-16.5139702842,34.9002107328,-53.8952731587,0.0,10.0,0.0,0.0,0.0,10.0,0.0,0.0,0.0,10.0,0.0739027202497,0.0259658206283,-0.0765658813398,1.0,0.0,0.0,0.0,1.0,0.0,0.0,0.0,1.0,-1.72201904297,-3.93142456055,8.83762207031,0.1,0.0,0.0,0.0,0.1,0.0,0.0,0.0,0.1
1446040945008455207,3663,1446040945005141019,robocape,-16.0042058616,34.700273566,-53.8632704909,0.0,10.0,0.0,0.0,0.0,10.0,0.0,0.0,0.0,10.0,0.264185580136,0.034088461953,-0.182027060507,1.0,0.0,0.0,0.0,1.0,0.0,0.0,0.0,1.0,-1.8776953125,-3.62605957031,8.94300292969,0.1,0.0,0.0,0.0,0.1,0.0,0.0,0.0,0.1
1446040945042924540,3664,1446040945039551019,robocape,-15.5572484369,34.5414986388,-53.8759141153,0.0,10.0,0.0,0.0,0.0,10.0,0.0,0.0,0.0,10.0,0.246076084723,0.0643153403254,-0.20133497841,1.0,0.0,0.0,0.0,1.0,0.0,0.0,0.0,1.0,-1.35677856445,-3.27159667969,9.16933227539,0.1,0.0,0.0,0.0,0.1,0.0,0.0,0.0,0.1
1446040945076650207,3665,1446040945073483943,robocape,-15.3245736651,34.4504651048,-53.6653052039,0.0,10.0,0.0,0.0,0.0,10.0,0.0,0.0,0.0,10.0,0.0667121853065,0.0540621701286,-0.0772316716123,1.0,0.0,0.0,0.0,1.0,0.0,0.0,0.0,1.0,-0.516126708984,-3.50151855469,8.87953491211,0.1,0.0,0.0,0.0,0.1,0.0,0.0,0.0,0.1
1446040945107817123,3666,1446040945104625940,robocape,-15.1424946972,34.3917762182,-53.1940891957,0.0,10.0,0.0,0.0,0.0,10.0,0.0,0.0,0.0,10.0,-0.0383495196971,0.017976337358,0.0645816564344,1.0,0.0,0.0,0.0,1.0,0.0,0.0,0.0,1.0,-0.316142578125,-4.00088012695,8.8100793457,0.1,0.0,0.0,0.0,0.1,0.0,0.0,0.0,0.1
1446040945143805123,3667,1446040945140599012,robocape,-14.943198583,34.320650665,-52.6595229784,0.0,10.0,0.0,0.0,0.0,10.0,0.0,0.0,0.0,10.0,-0.0483363737849,-0.00253000303558,0.0997353828235,1.0,0.0,0.0,0.0,1.0,0.0,0.0,0.0,1.0,-1.14002929688,-3.65240478516,8.86995483398,0.1,0.0,0.0,0.0,0.1,0.0,0.0,0.0,0.1
1446040945176451040,3668,1446040945173377990,robocape,-14.8835880025,34.3060948425,-52.0747863755,0.0,10.0,0.0,0.0,0.0,10.0,0.0,0.0,0.0,10.0,-0.136753321976,0.0170442309765,0.13422331894,1.0,0.0,0.0,0.0,1.0,0.0,0.0,0.0,1.0,-1.74357421875,-3.16501831055,9.0855065918,0.1,0.0,0.0,0.0,0.1,0.0,0.0,0.0,0.1
1446040945207472207,3669,1446040945204233884,robocape,-14.895172052,34.299574012,-51.4766446136,0.0,10.0,0.0,0.0,0.0,10.0,0.0,0.0,0.0,10.0,-0.17856495109,0.0173105470855,0.145009121355,1.0,0.0,0.0,0.0,1.0,0.0,0.0,0.0,1.0,-1.51365234375,-3.85478393555,8.91067016602,0.1,0.0,0.0,0.0,0.1,0.0,0.0,0.0,0.1
1446040945239593165,3670,1446040945236344099,robocape,-14.7119643078,34.2304443251,-51.079447171,0.0,10.0,0.0,0.0,0.0,10.0,0.0,0.0,0.0,10.0,-0.016378440704,0.0213052887206,0.0380832035881,1.0,0.0,0.0,0.0,1.0,0.0,0.0,0.0,1.0,-1.54718261719,-3.64761474609,8.90348510742,0.1,0.0,0.0,0.0,0.1,0.0,0.0,0.0,0.1
1446040945278031124,3671,1446040945274933099,robocape,-14.3903819194,34.110336184,-50.8791603782,0.0,10.0,0.0,0.0,0.0,10.0,0.0,0.0,0.0,10.0,0.115581191309,0.0302268783724,-0.065780078925,1.0,0.0,0.0,0.0,1.0,0.0,0.0,0.0,1.0,-1.92679321289,-3.11592041016,9.04838378906,0.1,0.0,0.0,0.0,0.1,0.0,0.0,0.0,0.1
1446040945312110915,3672,1446040945308878898,robocape,-14.1889816484,34.0170639688,-50.651699719,0.0,10.0,0.0,0.0,0.0,10.0,0.0,0.0,0.0,10.0,0.0448742643678,0.0384826777516,-0.0476705835124,1.0,0.0,0.0,0.0,1.0,0.0,0.0,0.0,1.0,-1.22026245117,-3.72545288086,8.75619140625,0.1,0.0,0.0,0.0,0.1,0.0,0.0,0.0,0.1
1446040945349163665,3673,1446040945345422983,robocape,-14.1017292928,33.9482836795,-50.283082605,0.0,10.0,0.0,0.0,0.0,10.0,0.0,0.0,0.0,10.0,-0.0569916473277,0.0242347659197,0.0294279300454,1.0,0.0,0.0,0.0,1.0,0.0,0.0,0.0,1.0,-0.558039550781,-3.9122644043,8.79930175781,0.1,0.0,0.0,0.0,0.1,0.0,0.0,0.0,0.1
1446040945379043040,3674,1446040945375926971,robocape,-14.0430883704,33.9356197929,-49.7009786266,0.0,10.0,0.0,0.0,0.0,10.0,0.0,0.0,0.0,10.0,-0.135554899485,0.0146473859954,0.146207543845,1.0,0.0,0.0,0.0,1.0,0.0,0.0,0.0,1.0,-0.821491699219,-3.51588867188,8.95258300781,0.1,0.0,0.0,0.0,0.1,0.0,0.0,0.0,0.1
1446040945412286874,3675,1446040945408869981,robocape,-14.0088734439,33.9387041161,-49.0766099722,0.0,10.0,0.0,0.0,0.0,10.0,0.0,0.0,0.0,10.0,-0.161254404004,0.0145142279409,0.17177389031,1.0,0.0,0.0,0.0,1.0,0.0,0.0,0.0,1.0,-1.51844238281,-3.69910766602,8.8519921875,0.1,0.0,0.0,0.0,0.1,0.0,0.0,0.0,0.1
1446040945448843124,3676,1446040945445019006,robocape,-13.952909516,33.8899149552,-48.6558197038,0.0,10.0,0.0,0.0,0.0,10.0,0.0,0.0,0.0,10.0,-0.0898816867902,0.0218379209386,0.066312711143,1.0,0.0,0.0,0.0,1.0,0.0,0.0,0.0,1.0,-1.94834838867,-3.80209350586,8.82085693359,0.1,0.0,0.0,0.0,0.1,0.0,0.0,0.0,0.1
1446040945482101999,3677,1446040945478843927,robocape,-13.7774197518,33.78183167,-48.4275745607,0.0,10.0,0.0,0.0,0.0,10.0,0.0,0.0,0.0,10.0,0.0298274042089,0.0230363434292,-0.0344879361165,1.0,0.0,0.0,0.0,1.0,0.0,0.0,0.0,1.0,-1.81542480469,-3.92663452148,8.80528930664,0.1,0.0,0.0,0.0,0.1,0.0,0.0,0.0,0.1
1446040945516844165,3678,1446040945513721942,robocape,-13.4371952759,33.6194196822,-48.4457879914,0.0,10.0,0.0,0.0,0.0,10.0,0.0,0.0,0.0,10.0,0.189617069614,0.0362189908251,-0.163384932876,1.0,0.0,0.0,0.0,1.0,0.0,0.0,0.0,1.0,-1.70764892578,-3.38296508789,8.82564697266,0.1,0.0,0.0,0.0,0.1,0.0,0.0,0.0,0.1
1446040945548333790,3679,1446040945544625997,robocape,-13.2299859196,33.5393871,-48.236158859,0.0,10.0,0.0,0.0,0.0,10.0,0.0,0.0,0.0,10.0,0.0532632218016,0.0406132066237,-0.0402137324602,1.0,0.0,0.0,0.0,1.0,0.0,0.0,0.0,1.0,-1.08733886719,-3.53025878906,8.86516479492,0.1,0.0,0.0,0.0,0.1,0.0,0.0,0.0,0.1
1446040945584378832,3680,1446040945581209897,robocape,-13.0677562595,33.4778672768,-47.8555513325,0.0,10.0,0.0,0.0,0.0,10.0,0.0,0.0,0.0,10.0,-0.0203731823391,0.0202400242846,0.0503337446025,1.0,0.0,0.0,0.0,1.0,0.0,0.0,0.0,1.0,-0.477806396484,-4.14338378906,8.82564697266,0.1,0.0,0.0,0.0,0.1,0.0,0.0,0.0,0.1
1446040945617784707,3681,1446040945614712953,robocape,-12.9967954414,33.4484922067,-47.3571570058,0.0,10.0,0.0,0.0,0.0,10.0,0.0,0.0,0.0,10.0,-0.102798018077,0.016644756813,0.115181717146,1.0,0.0,0.0,0.0,1.0,0.0,0.0,0.0,1.0,-1.24062011719,-3.55181396484,8.99329833984,0.1,0.0,0.0,0.0,0.1,0.0,0.0,0.0,0.1
1446040945651562665,3682,1446040945647945880,robocape,-12.8564469931,33.384819921,-47.0134250671,0.0,10.0,0.0,0.0,0.0,10.0,0.0,0.0,0.0,10.0,-0.0211721306661,0.0233026595382,0.0360858327706,1.0,0.0,0.0,0.0,1.0,0.0,0.0,0.0,1.0,-1.96271850586,-3.78652587891,8.86396728516,0.1,0.0,0.0,0.0,0.1,0.0,0.0,0.0,0.1
1446040945684323082,3683,1446040945681207895,robocape,-12.5121408917,33.2450986536,-46.9629037532,0.0,10.0,0.0,0.0,0.0,10.0,0.0,0.0,0.0,10.0,0.172040206419,0.0300937203179,-0.117179087963,1.0,0.0,0.0,0.0,1.0,0.0,0.0,0.0,1.0,-2.11959228516,-3.84280883789,8.8555847168,0.1,0.0,0.0,0.0,0.1,0.0,0.0,0.0,0.1
1446040945714721707,3684,1446040945711592912,robocape,-12.072915308,33.0680623891,-47.1404940657,0.0,10.0,0.0,0.0,0.0,10.0,0.0,0.0,0.0,10.0,0.289485610492,0.0462058449129,-0.236355546745,1.0,0.0,0.0,0.0,1.0,0.0,0.0,0.0,1.0,-1.71962402344,-3.64521972656,9.04479125977,0.1,0.0,0.0,0.0,0.1,0.0,0.0,0.0,0.1
1446040945745292707,3685,1446040945742117881,robocape,-11.6653266056,32.9178208554,-47.2930953874,0.0,10.0,0.0,0.0,0.0,10.0,0.0,0.0,0.0,10.0,0.266715583171,0.0559263828917,-0.223306057403,1.0,0.0,0.0,0.0,1.0,0.0,0.0,0.0,1.0,-1.17954711914,-3.53983886719,8.98731079102,0.1,0.0,0.0,0.0,0.1,0.0,0.0,0.0,0.1
1446040945782736957,3686,1446040945779442071,robocape,-11.4938583096,32.8251656229,-47.2014164006,0.0,10.0,0.0,0.0,0.0,10.0,0.0,0.0,0.0,10.0,0.0723048235957,0.0472711093489,-0.0937432703708,1.0,0.0,0.0,0.0,1.0,0.0,0.0,0.0,1.0,-1.17954711914,-3.37697753906,8.78493164063,0.1,0.0,0.0,0.0,0.1,0.0,0.0,0.0,0.1
1446040945817728582,3687,1446040945814646005,robocape,-11.3082775983,32.7442893245,-46.8879908343,0.0,10.0,0.0,0.0,0.0,10.0,0.0,0.0,0.0,10.0,0.015579492377,0.018242653467,0.0223705531567,1.0,0.0,0.0,0.0,1.0,0.0,0.0,0.0,1.0,-0.726888427734,-3.54343139648,8.93581787109,0.1,0.0,0.0,0.0,0.1,0.0,0.0,0.0,0.1
1446040945853006707,3688,1446040945849447011,robocape,-11.1972740263,32.6935134647,-46.4084991973,0.0,10.0,0.0,0.0,0.0,10.0,0.0,0.0,0.0,10.0,-0.0715058752686,0.00798948327024,0.111985923838,1.0,0.0,0.0,0.0,1.0,0.0,0.0,0.0,1.0,-1.08015380859,-3.49672851563,9.10107421875,0.1,0.0,0.0,0.0,0.1,0.0,0.0,0.0,0.1
1446040945883860707,3689,1446040945880697965,robocape,-11.0803796394,32.6379157536,-45.9902719814,0.0,10.0,0.0,0.0,0.0,10.0,0.0,0.0,0.0,10.0,-0.050733218766,0.0139815957229,0.082424835738,1.0,0.0,0.0,0.0,1.0,0.0,0.0,0.0,1.0,-1.38791381836,-3.47397583008,9.0855065918,0.1,0.0,0.0,0.0,0.1,0.0,0.0,0.0,0.1
1446040945916456291,3690,1446040945913327932,robocape,-11.1272432915,32.6177035604,-45.5057292753,0.0,10.0,0.0,0.0,0.0,10.0,0.0,0.0,0.0,10.0,-0.155928081824,0.0218379209386,0.121173829599,1.0,0.0,0.0,0.0,1.0,0.0,0.0,0.0,1.0,-1.64657592773,-3.65479980469,8.98132324219,0.1,0.0,0.0,0.0,0.1,0.0,0.0,0.0,0.1
1446040945945568957,3691,1446040945942301034,robocape,-11.1275110709,32.5649802653,-45.140241607,0.0,10.0,0.0,0.0,0.0,10.0,0.0,0.0,0.0,10.0,-0.0976048539514,0.0210389726116,0.0603205986903,1.0,0.0,0.0,0.0,1.0,0.0,0.0,0.0,1.0,-0.947230224609,-3.82245117188,8.91785522461,0.1,0.0,0.0,0.0,0.1,0.0,0.0,0.0,0.1
1446040945986485916,3692,1446040945983409881,robocape,-10.9023428638,32.4902461469,-44.8897457466,0.0,10.0,0.0,0.0,0.0,10.0,0.0,0.0,0.0,10.0,0.0537958540196,0.0263652947918,0.00119842249054,1.0,0.0,0.0,0.0,1.0,0.0,0.0,0.0,1.0,-1.66094604492,-3.86915405273,8.80648681641,0.1,0.0,0.0,0.0,0.1,0.0,0.0,0.0,0.1
1446040946015936041,3693,1446040946012845039,robocape,-10.6966592408,32.3766642644,-44.8182225949,0.0,10.0,0.0,0.0,0.0,10.0,0.0,0.0,0.0,10.0,0.0952080089703,0.0304931944814,-0.0908137931717,1.0,0.0,0.0,0.0,1.0,0.0,0.0,0.0,1.0,-1.67172363281,-3.69791015625,8.99689086914,0.1,0.0,0.0,0.0,0.1,0.0,0.0,0.0,0.1
1446040946045527916,3694,1446040946042304039,robocape,-10.46638215,32.2827184474,-44.7766087576,0.0,10.0,0.0,0.0,0.0,10.0,0.0,0.0,0.0,10.0,0.117179087963,0.0452737385313,-0.104795388895,1.0,0.0,0.0,0.0,1.0,0.0,0.0,0.0,1.0,-1.44299926758,-3.42487792969,9.06035888672,0.1,0.0,0.0,0.0,0.1,0.0,0.0,0.0,0.1
1446040946080811041,3695,1446040946077775955,robocape,-10.2571543417,32.2192001381,-44.6754468313,0.0,10.0,0.0,0.0,0.0,10.0,0.0,0.0,0.0,10.0,0.0896153706812,0.0529969056926,-0.0724379816502,1.0,0.0,0.0,0.0,1.0,0.0,0.0,0.0,1.0,-0.975970458984,-3.51109863281,9.18250488281,0.1,0.0,0.0,0.0,0.1,0.0,0.0,0.0,0.1
1446040946117787541,3696,1446040946114691972,robocape,-10.1285300563,32.1542814314,-44.4372821934,0.0,10.0,0.0,0.0,0.0,10.0,0.0,0.0,0.0,10.0,0.00838895743375,0.0316916169719,-0.00106526443603,1.0,0.0,0.0,0.0,1.0,0.0,0.0,0.0,1.0,-0.898132324219,-3.53624633789,9.00407592773,0.1,0.0,0.0,0.0,0.1,0.0,0.0,0.0,0.1
1446040946149393707,3697,1446040946145967006,robocape,-10.0047427533,32.0919715222,-44.0880871646,0.0,10.0,0.0,0.0,0.0,10.0,0.0,0.0,0.0,10.0,-0.0256995045193,0.0167779148675,0.0573911214912,1.0,0.0,0.0,0.0,1.0,0.0,0.0,0.0,1.0,-1.05021606445,-3.66198486328,8.91665771484,0.1,0.0,0.0,0.0,0.1,0.0,0.0,0.0,0.1
1446040946183747874,3698,1446040946180682897,robocape,-9.89384854265,32.0155741222,-43.7672772133,0.0,10.0,0.0,0.0,0.0,10.0,0.0,0.0,0.0,10.0,-0.0243679239742,0.0121173829599,0.0440753160408,1.0,0.0,0.0,0.0,1.0,0.0,0.0,0.0,1.0,-1.49928222656,-3.72305786133,8.966953125,0.1,0.0,0.0,0.0,0.1,0.0,0.0,0.0,0.1
1446040946218055124,3699,1446040946214984893,robocape,-9.76566992083,31.9409662569,-43.5534258016,0.0,10.0,0.0,0.0,0.0,10.0,0.0,0.0,0.0,10.0,0.0151800182135,0.0272974011733,-0.00905474770627,1.0,0.0,0.0,0.0,1.0,0.0,0.0,0.0,1.0,-1.58430541992,-3.48235839844,8.99808837891,0.1,0.0,0.0,0.0,0.1,0.0,0.0,0.0,0.1
1446040946249020666,3700,1446040946245671987,robocape,-9.63516532911,31.8811775538,-43.3651318871,0.0,10.0,0.0,0.0,0.0,10.0,0.0,0.0,0.0,10.0,0.0238352917562,0.0384826777516,-0.0203731823391,1.0,0.0,0.0,0.0,1.0,0.0,0.0,0.0,1.0,-1.44180175781,-3.38416259766,8.94899047852,0.1,0.0,0.0,0.0,0.1,0.0,0.0,0.0,0.1
1446040946283582957,3701,1446040946280352115,robocape,-9.66050225755,31.8471704301,-43.0145887243,0.0,10.0,0.0,0.0,0.0,10.0,0.0,0.0,0.0,10.0,-0.103863282513,0.0294279300454,0.0655137628159,1.0,0.0,0.0,0.0,1.0,0.0,0.0,0.0,1.0,-0.922082519531,-3.55540649414,8.85079467773,0.1,0.0,0.0,0.0,0.1,0.0,0.0,0.0,0.1
1446040946314833916,3702,1446040946311599969,robocape,-9.73784836018,31.8257730265,-42.4700788482,0.0,10.0,0.0,0.0,0.0,10.0,0.0,0.0,0.0,10.0,-0.186154960197,0.00905474770627,0.166713884239,1.0,0.0,0.0,0.0,1.0,0.0,0.0,0.0,1.0,-0.682580566406,-3.62605957031,9.03042114258,0.1,0.0,0.0,0.0,0.1,0.0,0.0,0.0,0.1
1446040946346522541,3703,1446040946343081951,robocape,-9.83070515307,31.8310539411,-41.7943851924,0.0,10.0,0.0,0.0,0.0,10.0,0.0,0.0,0.0,10.0,-0.231561856782,0.00506000607115,0.23622238869,1.0,0.0,0.0,0.0,1.0,0.0,0.0,0.0,1.0,-1.0693762207,-3.63563964844,9.00647094727,0.1,0.0,0.0,0.0,0.1,0.0,0.0,0.0,0.1
1446040946379063624,3704,1446040946375960111,robocape,-9.92428000507,31.8273738747,-41.1807658863,0.0,10.0,0.0,0.0,0.0,10.0,0.0,0.0,0.0,10.0,-0.215050258024,0.00732369299772,0.206261826427,1.0,0.0,0.0,0.0,1.0,0.0,0.0,0.0,1.0,-1.73399414063,-3.87753662109,8.83043701172,0.1,0.0,0.0,0.0,0.1,0.0,0.0,0.0,0.1
1446040946412671999,3705,1446040946409291028,robocape,-9.87766391865,31.7758680356,-40.8102259108,0.0,10.0,0.0,0.0,0.0,10.0,0.0,0.0,0.0,10.0,-0.0737695621952,0.0129163312869,0.083223784065,1.0,0.0,0.0,0.0,1.0,0.0,0.0,0.0,1.0,-1.98307617188,-3.77574829102,8.86396728516,0.1,0.0,0.0,0.0,0.1,0.0,0.0,0.0,0.1
1446040946446998791,3706,1446040946443691968,robocape,-9.76808095112,31.7018038928,-40.6328441968,0.0,10.0,0.0,0.0,0.0,10.0,0.0,0.0,0.0,10.0,0.0133158054504,0.0255663464648,-0.0134489635049,1.0,0.0,0.0,0.0,1.0,0.0,0.0,0.0,1.0,-1.70764892578,-3.85717895508,8.80768432617,0.1,0.0,0.0,0.0,0.1,0.0,0.0,0.0,0.1
1446040946484912874,3707,1446040946481594085,robocape,-9.60639927868,31.6102881221,-40.5000035793,0.0,10.0,0.0,0.0,0.0,10.0,0.0,0.0,0.0,10.0,0.0532632218016,0.0213052887206,-0.0358195166616,1.0,0.0,0.0,0.0,1.0,0.0,0.0,0.0,1.0,-1.18194213867,-3.97333740234,8.84121459961,0.1,0.0,0.0,0.0,0.1,0.0,0.0,0.0,0.1
1446040946516170166,3708,1446040946513134002,robocape,-9.36641497036,31.5186523895,-40.4724437995,0.0,10.0,0.0,0.0,0.0,10.0,0.0,0.0,0.0,10.0,0.124103306798,0.034621094171,-0.0882837901361,1.0,0.0,0.0,0.0,1.0,0.0,0.0,0.0,1.0,-1.3064831543,-3.30871948242,8.91186767578,0.1,0.0,0.0,0.0,0.1,0.0,0.0,0.0,0.1
1446040946552277874,3709,1446040946548788070,robocape,-9.22049853568,31.4771708876,-40.264402725,0.0,10.0,0.0,0.0,0.0,10.0,0.0,0.0,0.0,10.0,0.0249005561922,0.0387489938607,0.00519316412565,1.0,0.0,0.0,0.0,1.0,0.0,0.0,0.0,1.0,-1.21307739258,-3.53744384766,8.83402954102,0.1,0.0,0.0,0.0,0.1,0.0,0.0,0.0,0.1
1446040946588166083,3710,1446040946585047960,robocape,-8.97247945805,31.4022818749,-40.1419175578,0.0,10.0,0.0,0.0,0.0,10.0,0.0,0.0,0.0,10.0,0.102531701968,0.0308926686449,-0.0386158358061,1.0,0.0,0.0,0.0,1.0,0.0,0.0,0.0,1.0,-1.17715209961,-4.06674316406,8.72385864258,0.1,0.0,0.0,0.0,0.1,0.0,0.0,0.0,0.1
1446040946619216458,3711,1446040946616127967,robocape,-8.67141456139,31.2834189186,-40.1620290999,0.0,10.0,0.0,0.0,0.0,10.0,0.0,0.0,0.0,10.0,0.170442309765,0.0237021337017,-0.111719607729,1.0,0.0,0.0,0.0,1.0,0.0,0.0,0.0,1.0,-1.88847290039,-3.73263793945,8.86276977539,0.1,0.0,0.0,0.0,0.1,0.0,0.0,0.0,0.1
1446040946651126958,3712,1446040946647910118,robocape,-8.31270057246,31.169699841,-40.3307454994,0.0,10.0,0.0,0.0,0.0,10.0,0.0,0.0,0.0,10.0,0.242747133361,0.0442084740953,-0.187087066578,1.0,0.0,0.0,0.0,1.0,0.0,0.0,0.0,1.0,-1.77111694336,-3.50990112305,9.11783935547,0.1,0.0,0.0,0.0,0.1,0.0,0.0,0.0,0.1
1446040946681693624,3713,1446040946678611993,robocape,-8.02541603807,31.0819268279,-40.5090695019,0.0,10.0,0.0,0.0,0.0,10.0,0.0,0.0,0.0,10.0,0.208791829462,0.0589890181453,-0.192013914595,1.0,0.0,0.0,0.0,1.0,0.0,0.0,0.0,1.0,-1.23942260742,-3.53504882813,9.03640869141,0.1,0.0,0.0,0.0,0.1,0.0,0.0,0.0,0.1
1446040946712245749,3714,1446040946709012985,robocape,-7.85122413664,31.0256431814,-40.4593319899,0.0,10.0,0.0,0.0,0.0,10.0,0.0,0.0,0.0,10.0,0.0868190515366,0.0490021640575,-0.0755006169037,1.0,0.0,0.0,0.0,1.0,0.0,0.0,0.0,1.0,-0.793948974609,-3.59731933594,8.8172644043,0.1,0.0,0.0,0.0,0.1,0.0,0.0,0.0,0.1
1446040946750287833,3715,1446040946746912002,robocape,-7.74441323715,30.9561135366,-40.2303943967,0.0,10.0,0.0,0.0,0.0,10.0,0.0,0.0,0.0,10.0,0.00199737081756,0.0201068662301,0.016112124595,1.0,0.0,0.0,0.0,1.0,0.0,0.0,0.0,1.0,-0.76640625,-3.4524206543,8.84720214844,0.1,0.0,0.0,0.0,0.1,0.0,0.0,0.0,0.1
1446040946782715999,3716,1446040946778873920,robocape,-7.63598802052,30.8928935551,-39.869181615,0.0,10.0,0.0,0.0,0.0,10.0,0.0,0.0,0.0,10.0,-0.033555829735,0.00798948327024,0.0846885226645,1.0,0.0,0.0,0.0,1.0,0.0,0.0,0.0,1.0,-1.1843371582,-3.42966796875,8.98491577148,0.1,0.0,0.0,0.0,0.1,0.0,0.0,0.0,0.1
1446040946817969541,3717,1446040946814626932,robocape,-7.53653626865,30.8328713198,-39.5620627395,0.0,10.0,0.0,0.0,0.0,10.0,0.0,0.0,0.0,10.0,-0.0233026595382,0.015313176268,0.0588558600908,1.0,0.0,0.0,0.0,1.0,0.0,0.0,0.0,1.0,-1.71243896484,-3.53145629883,9.04958129883,0.1,0.0,0.0,0.0,0.1,0.0,0.0,0.0,0.1
1446040946852492624,3718,1446040946849246025,robocape,-7.45710395713,30.7761713109,-39.402437441,0.0,10.0,0.0,0.0,0.0,10.0,0.0,0.0,0.0,10.0,0.0067910607797,0.033023197517,-0.0145142279409,1.0,0.0,0.0,0.0,1.0,0.0,0.0,0.0,1.0,-1.68848876953,-3.55301147461,9.08790161133,0.1,0.0,0.0,0.0,0.1,0.0,0.0,0.0,0.1
1446040946888271583,3719,1446040946885076045,robocape,-7.34970075059,30.7235474064,-39.2956039683,0.0,10.0,0.0,0.0,0.0,10.0,0.0,0.0,0.0,10.0,0.0360858327706,0.0408795227327,-0.0406132066237,1.0,0.0,0.0,0.0,1.0,0.0,0.0,0.0,1.0,-1.27295288086,-3.57576416016,8.96934814453,0.1,0.0,0.0,0.0,0.1,0.0,0.0,0.0,0.1
1446040946920657416,3720,1446040946916964054,robocape,-7.25342161025,30.6674948975,-39.1470568542,0.0,10.0,0.0,0.0,0.0,10.0,0.0,0.0,0.0,10.0,0.0189084437396,0.0339553038985,-0.0189084437396,1.0,0.0,0.0,0.0,1.0,0.0,0.0,0.0,1.0,-1.04901855469,-3.62845458984,8.92264526367,0.1,0.0,0.0,0.0,0.1,0.0,0.0,0.0,0.1
1446040946958527874,3721,1446040946950900077,robocape,-7.15885923098,30.6085172924,-38.9096072759,0.0,10.0,0.0,0.0,0.0,10.0,0.0,0.0,0.0,10.0,-0.00625842856169,0.0222373951022,0.0268979270098,1.0,0.0,0.0,0.0,1.0,0.0,0.0,0.0,1.0,-1.14721435547,-3.56977661133,8.94899047852,0.1,0.0,0.0,0.0,0.1,0.0,0.0,0.0,0.1
1446040946997929458,3722,1446040946994260072,robocape,-7.17111279031,30.5674107162,-38.6107959559,0.0,10.0,0.0,0.0,0.0,10.0,0.0,0.0,0.0,10.0,-0.0790958843754,0.0245010820287,0.0600542825813,1.0,0.0,0.0,0.0,1.0,0.0,0.0,0.0,1.0,-1.42743164063,-3.54702392578,8.97892822266,0.1,0.0,0.0,0.0,0.1,0.0,0.0,0.0,0.1
1446040947032210708,3723,1446040947029114007,robocape,-7.26455274134,30.5495042706,-38.1782865975,0.0,10.0,0.0,0.0,0.0,10.0,0.0,0.0,0.0,10.0,-0.158324926805,0.0219710789932,0.129829103141,1.0,0.0,0.0,0.0,1.0,0.0,0.0,0.0,1.0,-0.947230224609,-3.61647949219,8.90228759766,0.1,0.0,0.0,0.0,0.1,0.0,0.0,0.0,0.1
1446040947064756874,3724,1446040947061631917,robocape,-7.37055293399,30.5286629694,-37.6224297142,0.0,10.0,0.0,0.0,0.0,10.0,0.0,0.0,0.0,10.0,-0.198804975374,0.00612527050718,0.19334549514,1.0,0.0,0.0,0.0,1.0,0.0,0.0,0.0,1.0,-0.913699951172,-3.97692993164,8.87833740234,0.1,0.0,0.0,0.0,0.1,0.0,0.0,0.0,0.1
1446040947099810249,3725,1446040947096288919,robocape,-7.31517410173,30.4625474768,-37.3197207542,0.0,10.0,0.0,0.0,0.0,10.0,0.0,0.0,0.0,10.0,-0.0458063707494,0.00798948327024,0.065780078925,1.0,0.0,0.0,0.0,1.0,0.0,0.0,0.0,1.0,-1.79147460938,-3.66198486328,8.90947265625,0.1,0.0,0.0,0.0,0.1,0.0,0.0,0.0,0.1
1446040947130823874,3726,1446040947127695083,robocape,-7.09901816982,30.3857389601,-37.2623642346,0.0,10.0,0.0,0.0,0.0,10.0,0.0,0.0,0.0,10.0,0.105194863058,0.0282295075548,-0.0572579634367,1.0,0.0,0.0,0.0,1.0,0.0,0.0,0.0,1.0,-2.24173828125,-3.67635498047,8.74421630859,0.1,0.0,0.0,0.0,0.1,0.0,0.0,0.0,0.1
1446040947165214999,3727,1446040947162126064,robocape,-6.86073251166,30.2948828945,-37.4708740537,0.0,10.0,0.0,0.0,0.0,10.0,0.0,0.0,0.0,10.0,0.18921759545,0.0476705835124,-0.191348124322,1.0,0.0,0.0,0.0,1.0,0.0,0.0,0.0,1.0,-1.88248535156,-3.84161132813,8.8519921875,0.1,0.0,0.0,0.0,0.1,0.0,0.0,0.0,0.1
1446040947195808958,3728,1446040947192768096,robocape,-6.59708703341,30.2165665471,-37.7082995126,0.0,10.0,0.0,0.0,0.0,10.0,0.0,0.0,0.0,10.0,0.211055516389,0.0573911214912,-0.207060774754,1.0,0.0,0.0,0.0,1.0,0.0,0.0,0.0,1.0,-1.12565917969,-3.24165893555,8.99689086914,0.1,0.0,0.0,0.0,0.1,0.0,0.0,0.0,0.1
1446040947229172291,3729,1446040947225882053,robocape,-6.49942589169,30.1704421412,-37.637160299,0.0,10.0,0.0,0.0,0.0,10.0,0.0,0.0,0.0,10.0,0.0410126807872,0.0432763677138,-0.0506000607115,1.0,0.0,0.0,0.0,1.0,0.0,0.0,0.0,1.0,-0.883762207031,-3.42966796875,8.81965942383,0.1,0.0,0.0,0.0,0.1,0.0,0.0,0.0,0.1
1446040947258880958,3730,1446040947255558967,robocape,-6.55773929152,30.129856111,-37.2748373326,0.0,10.0,0.0,0.0,0.0,10.0,0.0,0.0,0.0,10.0,-0.11944277489,0.0159789665405,0.0981374861694,1.0,0.0,0.0,0.0,1.0,0.0,0.0,0.0,1.0,-0.526904296875,-3.45002563477,8.8172644043,0.1,0.0,0.0,0.0,0.1,0.0,0.0,0.0,0.1
1446040947291895166,3731,1446040947288589000,robocape,-6.72322186499,30.1110603925,-36.5804757995,0.0,10.0,0.0,0.0,0.0,10.0,0.0,0.0,0.0,10.0,-0.265117686517,-0.0066579027252,0.267780847607,1.0,0.0,0.0,0.0,1.0,0.0,0.0,0.0,1.0,-0.700543212891,-3.52666625977,8.95976806641,0.1,0.0,0.0,0.0,0.1,0.0,0.0,0.0,0.1
1446040947325067125,3732,1446040947321774959,robocape,-6.92545600489,30.1147073889,-35.8381977459,0.0,10.0,0.0,0.0,0.0,10.0,0.0,0.0,0.0,10.0,-0.297608251816,-0.000532632218016,0.293746668236,1.0,0.0,0.0,0.0,1.0,0.0,0.0,0.0,1.0,-1.40946899414,-3.76137817383,8.9322253418,0.1,0.0,0.0,0.0,0.1,0.0,0.0,0.0,0.1
1446040947357982541,3733,1446040947354487895,robocape,-7.03707761098,30.0932400077,-35.2938093029,0.0,10.0,0.0,0.0,0.0,10.0,0.0,0.0,0.0,10.0,-0.197739710938,0.00466053190764,0.195209707903,1.0,0.0,0.0,0.0,1.0,0.0,0.0,0.0,1.0,-2.00702636719,-4.04518798828,8.87953491211,0.1,0.0,0.0,0.0,0.1,0.0,0.0,0.0,0.1
1446040947387889625,3734,1446040947384809970,robocape,-6.92412614426,30.0286001681,-35.1680791051,0.0,10.0,0.0,0.0,0.0,10.0,0.0,0.0,0.0,10.0,0.0315584589174,0.0229031853747,-0.0138484376684,1.0,0.0,0.0,0.0,1.0,0.0,0.0,0.0,1.0,-2.24293579102,-3.7937109375,8.83402954102,0.1,0.0,0.0,0.0,0.1,0.0,0.0,0.0,0.1
1446040947421437500,3735,1446040947418106079,robocape,-6.57270758856,29.9322905637,-35.4017456438,0.0,10.0,0.0,0.0,0.0,10.0,0.0,0.0,0.0,10.0,0.253000303558,0.0411458388417,-0.194277601521,1.0,0.0,0.0,0.0,1.0,0.0,0.0,0.0,1.0,-2.11839477539,-3.83921630859,8.83881958008,0.1,0.0,0.0,0.0,0.1,0.0,0.0,0.0,0.1
1446040947451397291,3736,1446040947448301076,robocape,-6.12211209174,29.8294099816,-35.8216354743,0.0,10.0,0.0,0.0,0.0,10.0,0.0,0.0,0.0,10.0,0.355798321635,0.0549942765101,-0.289618768546,1.0,0.0,0.0,0.0,1.0,0.0,0.0,0.0,1.0,-1.62621826172,-3.83682128906,8.98371826172,0.1,0.0,0.0,0.0,0.1,0.0,0.0,0.0,0.1
1446040947490938958,3737,1446040947487837076,robocape,-5.85074080584,29.7622503695,-36.1105293186,0.0,10.0,0.0,0.0,0.0,10.0,0.0,0.0,0.0,10.0,0.227833431256,0.0613858631263,-0.225037112112,1.0,0.0,0.0,0.0,1.0,0.0,0.0,0.0,1.0,-0.815504150391,-3.16741333008,8.93701538086,0.1,0.0,0.0,0.0,0.1,0.0,0.0,0.0,0.1
1446040947529898083,3738,1446040947526489019,robocape,-5.75017793018,29.723045673,-35.9781172878,0.0,10.0,0.0,0.0,0.0,10.0,0.0,0.0,0.0,10.0,0.0263652947918,0.0372842552611,-0.0126500151779,1.0,0.0,0.0,0.0,1.0,0.0,0.0,0.0,1.0,-0.326920166016,-3.58534423828,8.85797973633,0.1,0.0,0.0,0.0,0.1,0.0,0.0,0.0,0.1
1446040947562635375,3739,1446040947559191942,robocape,-5.66761624118,29.6588288777,-35.6420282925,0.0,10.0,0.0,0.0,0.0,10.0,0.0,0.0,0.0,10.0,-0.0372842552611,0.00439421579863,0.0904143190082,1.0,0.0,0.0,0.0,1.0,0.0,0.0,0.0,1.0,-0.905317382813,-3.69551513672,8.79810424805,0.1,0.0,0.0,0.0,0.1,0.0,0.0,0.0,0.1
1446040947594126458,3740,1446040947590956926,robocape,-5.70097450198,29.6098475124,-35.2512127728,0.0,10.0,0.0,0.0,0.0,10.0,0.0,0.0,0.0,10.0,-0.11265171411,0.0067910607797,0.119975407108,1.0,0.0,0.0,0.0,1.0,0.0,0.0,0.0,1.0,-1.40467895508,-3.16980834961,9.0783215332,0.1,0.0,0.0,0.0,0.1,0.0,0.0,0.0,0.1
1446040947623173250,3741,1446040947620095014,robocape,-5.84611579432,29.5891368374,-34.768677896,0.0,10.0,0.0,0.0,0.0,10.0,0.0,0.0,0.0,10.0,-0.195742340121,0.0129163312869,0.168178622839,1.0,0.0,0.0,0.0,1.0,0.0,0.0,0.0,1.0,-1.43940673828,-3.57815917969,8.93462036133,0.1,0.0,0.0,0.0,0.1,0.0,0.0,0.0,0.1
1446040947660097125,3742,1446040947656456947,robocape,-6.01010775684,29.561101911,-34.285801996,0.0,10.0,0.0,0.0,0.0,10.0,0.0,0.0,0.0,10.0,-0.206128668372,0.00772316716123,0.169510203384,1.0,0.0,0.0,0.0,1.0,0.0,0.0,0.0,1.0,-1.14002929688,-3.75658813477,8.89989257812,0.1,0.0,0.0,0.0,0.1,0.0,0.0,0.0,0.1
1446040947691537125,3743,1446040947688401937,robocape,-6.12077970534,29.5384253497,-33.8228366388,0.0,10.0,0.0,0.0,0.0,10.0,0.0,0.0,0.0,10.0,-0.17323862891,0.0118510668509,0.160588613732,1.0,0.0,0.0,0.0,1.0,0.0,0.0,0.0,1.0,-1.21666992188,-3.80568603516,8.92983032227,0.1,0.0,0.0,0.0,0.1,0.0,0.0,0.0,0.1
1446040947726345083,3744,1446040947723040103,robocape,-6.17253868433,29.5091624929,-33.4521867923,0.0,10.0,0.0,0.0,0.0,10.0,0.0,0.0,0.0,10.0,-0.118377510454,0.016112124595,0.115448033255,1.0,0.0,0.0,0.0,1.0,0.0,0.0,0.0,1.0,-1.69088378906,-3.78173583984,8.88432495117,0.1,0.0,0.0,0.0,0.1,0.0,0.0,0.0,0.1
1446040947757813125,3745,1446040947754607915,robocape,-6.14485978748,29.4663948221,-33.2401284726,0.0,10.0,0.0,0.0,0.0,10.0,0.0,0.0,0.0,10.0,-0.0352868844435,0.0227700273202,0.0371510972066,1.0,0.0,0.0,0.0,1.0,0.0,0.0,0.0,1.0,-1.8429675293,-3.77095825195,8.82923950195,0.1,0.0,0.0,0.0,0.1,0.0,0.0,0.0,0.1
1446040947797371666,3746,1446040947794218063,robocape,-6.07345924334,29.416284499,-33.1377768862,0.0,10.0,0.0,0.0,0.0,10.0,0.0,0.0,0.0,10.0,0.016378440704,0.0283626656093,-0.016911072922,1.0,0.0,0.0,0.0,1.0,0.0,0.0,0.0,1.0,-1.50407226563,-3.78772338867,8.81606689453,0.1,0.0,0.0,0.0,0.1,0.0,0.0,0.0,0.1
1446040947834636625,3747,1446040947831521987,robocape,-5.99166106023,29.3696318428,-33.0014843354,0.0,10.0,0.0,0.0,0.0,10.0,0.0,0.0,0.0,10.0,0.0130494893414,0.0270310850643,0.000399474163512,1.0,0.0,0.0,0.0,1.0,0.0,0.0,0.0,1.0,-1.15799194336,-3.7937109375,8.83642456055,0.1,0.0,0.0,0.0,0.1,0.0,0.0,0.0,0.1
1446040947867224541,3748,1446040947863512992,robocape,-5.8825013552,29.3105655069,-32.8323617883,0.0,10.0,0.0,0.0,0.0,10.0,0.0,0.0,0.0,10.0,0.0189084437396,0.0170442309765,0.016911072922,1.0,0.0,0.0,0.0,1.0,0.0,0.0,0.0,1.0,-1.41186401367,-3.88472167969,8.813671875,0.1,0.0,0.0,0.0,0.1,0.0,0.0,0.0,0.1
1446040947898792041,3749,1446040947895658016,robocape,-5.63821162672,29.2402193704,-32.8376072828,0.0,10.0,0.0,0.0,0.0,10.0,0.0,0.0,0.0,10.0,0.135554899485,0.0260989786828,-0.0697748205601,1.0,0.0,0.0,0.0,1.0,0.0,0.0,0.0,1.0,-1.73159912109,-3.89669677734,8.77056152344,0.1,0.0,0.0,0.0,0.1,0.0,0.0,0.0,0.1
1446040947930201833,3750,1446040947926892995,robocape,-5.27488973869,29.1475268366,-33.0734872087,0.0,10.0,0.0,0.0,0.0,10.0,0.0,0.0,0.0,10.0,0.258726099901,0.0331563555715,-0.185489169924,1.0,0.0,0.0,0.0,1.0,0.0,0.0,0.0,1.0,-2.00582885742,-3.87633911133,8.86755981445,0.1,0.0,0.0,0.0,0.1,0.0,0.0,0.0,0.1
1446040947964751458,3751,1446040947961196899,robocape,-4.88866297786,29.0795382096,-33.4665229911,0.0,10.0,0.0,0.0,0.0,10.0,0.0,0.0,0.0,10.0,0.31278827003,0.0592553342543,-0.265250844572,1.0,0.0,0.0,0.0,1.0,0.0,0.0,0.0,1.0,-1.59867553711,-3.49313598633,9.17771484375,0.1,0.0,0.0,0.0,0.1,0.0,0.0,0.0,0.1
1446040947997799292,3752,1446040947994678974,robocape,-4.70252515795,29.0918400783,-33.6977444633,0.0,10.0,0.0,0.0,0.0,10.0,0.0,0.0,0.0,10.0,0.166713884239,0.0900148448447,-0.184823379651,1.0,0.0,0.0,0.0,1.0,0.0,0.0,0.0,1.0,-1.32085327148,-3.49792602539,9.00647094727,0.1,0.0,0.0,0.0,0.1,0.0,0.0,0.0,0.1
1446040948027788458,3753,1446040948024681091,robocape,-4.63392330689,29.0456621737,-33.6462747776,0.0,10.0,0.0,0.0,0.0,10.0,0.0,0.0,0.0,10.0,0.0312921428084,0.034621094171,-0.0436758418773,1.0,0.0,0.0,0.0,1.0,0.0,0.0,0.0,1.0,-0.347277832031,-3.57935668945,9.02563110352,0.1,0.0,0.0,0.0,0.1,0.0,0.0,0.0,0.1
1446040948062921667,3754,1446040948057786941,robocape,-4.52449684412,28.9893465421,-33.3375212219,0.0,10.0,0.0,0.0,0.0,10.0,0.0,0.0,0.0,10.0,-0.0142479118319,0.00892158965177,0.0854874709915,1.0,0.0,0.0,0.0,1.0,0.0,0.0,0.0,1.0,-0.755628662109,-3.7170703125,8.73942626953,0.1,0.0,0.0,0.0,0.1,0.0,0.0,0.0,0.1
1446040948093300292,3755,1446040948090209960,robocape,-4.47220058603,28.9223336681,-32.9971017389,0.0,10.0,0.0,0.0,0.0,10.0,0.0,0.0,0.0,10.0,-0.0524642734746,-0.000133158054504,0.102664860023,1.0,0.0,0.0,0.0,1.0,0.0,0.0,0.0,1.0,-1.56394775391,-3.47876586914,9.00647094727,0.1,0.0,0.0,0.0,0.1,0.0,0.0,0.0,0.1
1446040948123734625,3756,1446040948120699882,robocape,-4.51887037266,28.881639394,-32.7244760173,0.0,10.0,0.0,0.0,0.0,10.0,0.0,0.0,0.0,10.0,-0.0868190515366,0.0186421276306,0.0704406108326,1.0,0.0,0.0,0.0,1.0,0.0,0.0,0.0,1.0,-1.79027709961,-3.28955932617,9.13939453125,0.1,0.0,0.0,0.0,0.1,0.0,0.0,0.0,0.1
1446040948152819542,3757,1446040948149374961,robocape,-4.61900634015,28.8589649686,-32.4425775046,0.0,10.0,0.0,0.0,0.0,10.0,0.0,0.0,0.0,10.0,-0.117445404072,0.0271642431188,0.0762995652308,1.0,0.0,0.0,0.0,1.0,0.0,0.0,0.0,1.0,-1.38551879883,-3.52786376953,8.81486938477,0.1,0.0,0.0,0.0,0.1,0.0,0.0,0.0,0.1
1446040948185841458,3758,1446040948182754993,robocape,-4.75030704846,28.8320143058,-32.0694797425,0.0,10.0,0.0,0.0,0.0,10.0,0.0,0.0,0.0,10.0,-0.157659136533,0.0170442309765,0.122771726253,1.0,0.0,0.0,0.0,1.0,0.0,0.0,0.0,1.0,-0.876577148438,-3.58055419922,8.87833740234,0.1,0.0,0.0,0.0,0.1,0.0,0.0,0.0,0.1
1446040948214833458,3759,1446040948211479902,robocape,-4.87055037157,28.8155151968,-31.6071518058,0.0,10.0,0.0,0.0,0.0,10.0,0.0,0.0,0.0,10.0,-0.175102841673,0.015313176268,0.168178622839,1.0,0.0,0.0,0.0,1.0,0.0,0.0,0.0,1.0,-1.04183349609,-3.67395996094,8.90468261719,0.1,0.0,0.0,0.0,0.1,0.0,0.0,0.0,0.1
1446040948245458125,3760,1446040948242352962,robocape,-4.97065840601,28.7946329905,-31.1468846954,0.0,10.0,0.0,0.0,0.0,10.0,0.0,0.0,0.0,10.0,-0.164317039258,0.0123836990689,0.168045464784,1.0,0.0,0.0,0.0,1.0,0.0,0.0,0.0,1.0,-1.51125732422,-3.75299560547,8.90109008789,0.1,0.0,0.0,0.0,0.1,0.0,0.0,0.0,0.1
1446040948278802917,3761,1446040948275665044,robocape,-5.01660946914,28.7623216484,-30.8151456946,0.0,10.0,0.0,0.0,0.0,10.0,0.0,0.0,0.0,10.0,-0.103197492241,0.015579492377,0.105061705004,1.0,0.0,0.0,0.0,1.0,0.0,0.0,0.0,1.0,-1.8741027832,-3.83442626953,8.82804199219,0.1,0.0,0.0,0.0,0.1,0.0,0.0,0.0,0.1
1446040948312051583,3762,1446040948308934926,robocape,-5.00621389399,28.7128487081,-30.6893709235,0.0,10.0,0.0,0.0,0.0,10.0,0.0,0.0,0.0,10.0,-0.0210389726116,0.0217047628841,0.00359526747161,1.0,0.0,0.0,0.0,1.0,0.0,0.0,0.0,1.0,-1.73399414063,-3.84400634766,8.84121459961,0.1,0.0,0.0,0.0,0.1,0.0,0.0,0.0,0.1
1446040948345247125,3763,1446040948342108964,robocape,-4.94559252324,28.6694604221,-30.612438334,0.0,10.0,0.0,0.0,0.0,10.0,0.0,0.0,0.0,10.0,0.0178431793035,0.0287621397729,-0.0202400242846,1.0,0.0,0.0,0.0,1.0,0.0,0.0,0.0,1.0,-1.3376184082,-3.87514160156,8.82325195313,0.1,0.0,0.0,0.0,0.1,0.0,0.0,0.0,0.1
1446040948379112667,3764,1446040948375860929,robocape,-4.88251689477,28.6287519038,-30.4957949038,0.0,10.0,0.0,0.0,0.0,10.0,0.0,0.0,0.0,10.0,0.00905474770627,0.0270310850643,-0.000266316109008,1.0,0.0,0.0,0.0,1.0,0.0,0.0,0.0,1.0,-1.13284423828,-3.82125366211,8.84241210938,0.1,0.0,0.0,0.0,0.1,0.0,0.0,0.0,0.1
1446040948412106167,3765,1446040948409017086,robocape,-4.81706771367,28.5913389973,-30.3364439769,0.0,10.0,0.0,0.0,0.0,10.0,0.0,0.0,0.0,10.0,-0.000532632218016,0.0254331884103,0.0213052887206,1.0,0.0,0.0,0.0,1.0,0.0,0.0,0.0,1.0,-1.34719848633,-3.74940307617,8.86276977539,0.1,0.0,0.0,0.0,0.1,0.0,0.0,0.0,0.1
1446040948445548917,3766,1446040948442420005,robocape,-4.75350026384,28.554561402,-30.1969804201,0.0,10.0,0.0,0.0,0.0,10.0,0.0,0.0,0.0,10.0,0.00359526747161,0.0270310850643,0.0119842249054,1.0,0.0,0.0,0.0,1.0,0.0,0.0,0.0,1.0,-1.5747253418,-3.82245117188,8.84480712891,0.1,0.0,0.0,0.0,0.1,0.0,0.0,0.0,0.1
1446040948478869333,3767,1446040948475784063,robocape,-4.69458188653,28.5157872405,-30.092052561,0.0,10.0,0.0,0.0,0.0,10.0,0.0,0.0,0.0,10.0,0.0099868540878,0.0282295075548,-0.00466053190764,1.0,0.0,0.0,0.0,1.0,0.0,0.0,0.0,1.0,-1.44060424805,-3.80329101563,8.85678222656,0.1,0.0,0.0,0.0,0.1,0.0,0.0,0.0,0.1
1446040948513443583,3768,1446040948510252952,robocape,-4.62868541502,28.4794027751,-29.9714270553,0.0,10.0,0.0,0.0,0.0,10.0,0.0,0.0,0.0,10.0,0.00972053797879,0.0282295075548,0.0034621094171,1.0,0.0,0.0,0.0,1.0,0.0,0.0,0.0,1.0,-1.29091552734,-3.7589831543,8.84360961914,0.1,0.0,0.0,0.0,0.1,0.0,0.0,0.0,0.1
1446040948545996875,3769,1446040948542917013,robocape,-4.53658100254,28.4340132743,-29.8404791415,0.0,10.0,0.0,0.0,0.0,10.0,0.0,0.0,0.0,10.0,0.0209058145571,0.0223705531567,0.00878843159726,1.0,0.0,0.0,0.0,1.0,0.0,0.0,0.0,1.0,-1.36396362305,-3.95776977539,8.80049926758,0.1,0.0,0.0,0.0,0.1,0.0,0.0,0.0,0.1
1446040948583025750,3770,1446040948579615116,robocape,-4.32088047516,28.378750355,-29.861371694,0.0,10.0,0.0,0.0,0.0,10.0,0.0,0.0,0.0,10.0,0.124502780961,0.0279631914458,-0.0664458691975,1.0,0.0,0.0,0.0,1.0,0.0,0.0,0.0,1.0,-1.74956176758,-3.94220214844,8.83522705078,0.1,0.0,0.0,0.0,0.1,0.0,0.0,0.0,0.1
1446040948618713500,3771,1446040948615057945,robocape,-3.98684690827,28.3082318784,-30.0952433504,0.0,10.0,0.0,0.0,0.0,10.0,0.0,0.0,0.0,10.0,0.241149236707,0.034354778062,-0.172705996692,1.0,0.0,0.0,0.0,1.0,0.0,0.0,0.0,1.0,-2.0728894043,-3.93980712891,8.87953491211,0.1,0.0,0.0,0.0,0.1,0.0,0.0,0.0,0.1
1446040948649463958,3772,1446040948646320104,robocape,-3.61835808911,28.2752193334,-30.4786804183,0.0,10.0,0.0,0.0,0.0,10.0,0.0,0.0,0.0,10.0,0.298274042089,0.0648479725434,-0.24833977165,1.0,0.0,0.0,0.0,1.0,0.0,0.0,0.0,1.0,-1.45736938477,-3.2572265625,9.14418457031,0.1,0.0,0.0,0.0,0.1,0.0,0.0,0.0,0.1
1446040948682670667,3773,1446040948679637908,robocape,-3.5258689317,28.2617054219,-30.5686138882,0.0,10.0,0.0,0.0,0.0,10.0,0.0,0.0,0.0,10.0,0.0794953585389,0.0552605926191,-0.102664860023,1.0,0.0,0.0,0.0,1.0,0.0,0.0,0.0,1.0,-0.695753173828,-3.73623046875,8.8519921875,0.1,0.0,0.0,0.0,0.1,0.0,0.0,0.0,0.1
1446040948716500875,3774,1446040948713325977,robocape,-3.60507803622,28.2209092424,-30.3515424452,0.0,10.0,0.0,0.0,0.0,10.0,0.0,0.0,0.0,10.0,-0.0886832642996,0.0193079179031,0.050999534875,1.0,0.0,0.0,0.0,1.0,0.0,0.0,0.0,1.0,-0.420325927734,-3.37338500977,8.83762207031,0.1,0.0,0.0,0.0,0.1,0.0,0.0,0.0,0.1
1446040948749136625,3775,1446040948745347976,robocape,-3.71105884255,28.1928309223,-29.7409502358,0.0,10.0,0.0,0.0,0.0,10.0,0.0,0.0,0.0,10.0,-0.202400242846,0.000133158054504,0.247540823323,1.0,0.0,0.0,0.0,1.0,0.0,0.0,0.0,1.0,-0.609532470703,-3.34464477539,8.93462036133,0.1,0.0,0.0,0.0,0.1,0.0,0.0,0.0,0.1
1446040948782390334,3776,1446040948779350996,robocape,-3.88844548252,28.1714903518,-29.0833599329,0.0,10.0,0.0,0.0,0.0,10.0,0.0,0.0,0.0,10.0,-0.251935039121,-0.000532632218016,0.272175063406,1.0,0.0,0.0,0.0,1.0,0.0,0.0,0.0,1.0,-1.65016845703,-4.01644775391,8.80888183594,0.1,0.0,0.0,0.0,0.1,0.0,0.0,0.0,0.1
1446040948812788250,3777,1446040948809699058,robocape,-3.80254632979,28.1232344831,-28.8788708657,0.0,10.0,0.0,0.0,0.0,10.0,0.0,0.0,0.0,10.0,0.0,0.0146473859954,0.0480700576759,1.0,0.0,0.0,0.0,1.0,0.0,0.0,0.0,1.0,-2.03696411133,-4.17451904297,8.91306518555,0.1,0.0,0.0,0.0,0.1,0.0,0.0,0.0,0.1
1446040948848178542,3778,1446040948844993114,robocape,-3.5021572953,28.0646375442,-29.0175217559,0.0,10.0,0.0,0.0,0.0,10.0,0.0,0.0,0.0,10.0,0.199204449538,0.0314253008629,-0.121972777926,1.0,0.0,0.0,0.0,1.0,0.0,0.0,0.0,1.0,-2.25012084961,-3.43805053711,8.91546020508,0.1,0.0,0.0,0.0,0.1,0.0,0.0,0.0,0.1
1446040948879419167,3779,1446040948876385927,robocape,-3.18740215526,28.0162093851,-29.3580809495,0.0,10.0,0.0,0.0,0.0,10.0,0.0,0.0,0.0,10.0,0.258326625738,0.049135322112,-0.22290658324,1.0,0.0,0.0,0.0,1.0,0.0,0.0,0.0,1.0,-1.82380737305,-3.74581054688,8.95018798828,0.1,0.0,0.0,0.0,0.1,0.0,0.0,0.0,0.1
1446040948912518750,3780,1446040948908900022,robocape,-2.8957589169,27.9937086364,-29.7011222234,0.0,10.0,0.0,0.0,0.0,10.0,0.0,0.0,0.0,10.0,0.247807139432,0.0632500758894,-0.225836060439,1.0,0.0,0.0,0.0,1.0,0.0,0.0,0.0,1.0,-0.929267578125,-2.95665161133,8.97294067383,0.1,0.0,0.0,0.0,0.1,0.0,0.0,0.0,0.1
1446040948948826834,3781,1446040948945117950,robocape,-2.75848411079,27.9760521644,-29.6308621212,0.0,10.0,0.0,0.0,0.0,10.0,0.0,0.0,0.0,10.0,0.0631169178349,0.0412789968962,-0.0206394984481,1.0,0.0,0.0,0.0,1.0,0.0,0.0,0.0,1.0,-0.349672851562,-3.33626220703,8.56339233398,0.1,0.0,0.0,0.0,0.1,0.0,0.0,0.0,0.1
1446040948994642959,3782,1446040948991508960,robocape,-2.70644080832,27.9239337637,-29.3007170739,0.0,10.0,0.0,0.0,0.0,10.0,0.0,0.0,0.0,10.0,-0.0471379512944,0.0067910607797,0.109722236911,1.0,0.0,0.0,0.0,1.0,0.0,0.0,0.0,1.0,-0.965192871094,-3.60450439453,8.85318969727,0.1,0.0,0.0,0.0,0.1,0.0,0.0,0.0,0.1
1446040949029153000,3783,1446040949026001930,robocape,-2.69912992539,27.875716231,-29.0710261687,0.0,10.0,0.0,0.0,0.0,10.0,0.0,0.0,0.0,10.0,-0.0454068965859,0.0139815957229,0.0608532309083,1.0,0.0,0.0,0.0,1.0,0.0,0.0,0.0,1.0,-1.80225219727,-3.51229614258,8.92983032227,0.1,0.0,0.0,0.0,0.1,0.0,0.0,0.0,0.1
1446040949064124042,3784,1446040949059567928,robocape,-2.67411492288,27.8494810221,-28.8863514074,0.0,10.0,0.0,0.0,0.0,10.0,0.0,0.0,0.0,10.0,-0.0247673981377,0.0284958236638,0.0388821519152,1.0,0.0,0.0,0.0,1.0,0.0,0.0,0.0,1.0,-1.54598510742,-3.73383544922,8.90707763672,0.1,0.0,0.0,0.0,0.1,0.0,0.0,0.0,0.1
1446040949095761750,3785,1446040949092683076,robocape,-2.6002558261,27.8204835368,-28.8182726623,0.0,10.0,0.0,0.0,0.0,10.0,0.0,0.0,0.0,10.0,0.0300937203179,0.0334226716805,-0.0187752856851,1.0,0.0,0.0,0.0,1.0,0.0,0.0,0.0,1.0,-1.44539428711,-3.88711669922,8.76816650391,0.1,0.0,0.0,0.0,0.1,0.0,0.0,0.0,0.1
1446040949126999500,3786,1446040949123910903,robocape,-2.51610943026,27.7874394326,-28.7612849687,0.0,10.0,0.0,0.0,0.0,10.0,0.0,0.0,0.0,10.0,0.0383495196971,0.0316916169719,-0.0241016078652,1.0,0.0,0.0,0.0,1.0,0.0,0.0,0.0,1.0,-1.09212890625,-3.42607543945,8.99329833984,0.1,0.0,0.0,0.0,0.1,0.0,0.0,0.0,0.1
1446040949163146042,3787,1446040949158907890,robocape,-2.43404397007,27.7489745934,-28.7237863328,0.0,10.0,0.0,0.0,0.0,10.0,0.0,0.0,0.0,10.0,0.0422111032778,0.0295610880999,-0.033555829735,1.0,0.0,0.0,0.0,1.0,0.0,0.0,0.0,1.0,-1.3448034668,-3.46439575195,8.96216308594,0.1,0.0,0.0,0.0,0.1,0.0,0.0,0.0,0.1
1446040949192581000,3788,1446040949189249038,robocape,-2.3772123597,27.7194721217,-28.6248027932,0.0,10.0,0.0,0.0,0.0,10.0,0.0,0.0,0.0,10.0,0.0137152796139,0.0310258266994,-0.00279631914458,1.0,0.0,0.0,0.0,1.0,0.0,0.0,0.0,1.0,-1.30528564453,-3.66198486328,8.93342285156,0.1,0.0,0.0,0.0,0.1,0.0,0.0,0.0,0.1
1446040949226952375,3789,1446040949223599910,robocape,-2.39937454018,27.6975499356,-28.4775854141,0.0,10.0,0.0,0.0,0.0,10.0,0.0,0.0,0.0,10.0,-0.0398142582967,0.0320910911355,0.0218379209386,1.0,0.0,0.0,0.0,1.0,0.0,0.0,0.0,1.0,-1.25499023438,-3.40332275391,8.98731079102,0.1,0.0,0.0,0.0,0.1,0.0,0.0,0.0,0.1
1446040949262242125,3790,1446040949257833957,robocape,-2.53583108659,27.6784922254,-28.156265789,0.0,10.0,0.0,0.0,0.0,10.0,0.0,0.0,0.0,10.0,-0.143411224701,0.0235689756472,0.109322762748,1.0,0.0,0.0,0.0,1.0,0.0,0.0,0.0,1.0,-0.979562988281,-3.55540649414,8.85917724609,0.1,0.0,0.0,0.0,0.1,0.0,0.0,0.0,0.1
1446040949293741042,3791,1446040949290249109,robocape,-2.72850115188,27.645928487,-27.6899273991,0.0,10.0,0.0,0.0,0.0,10.0,0.0,0.0,0.0,10.0,-0.20932446168,0.00732369299772,0.182293376616,1.0,0.0,0.0,0.0,1.0,0.0,0.0,0.0,1.0,-0.884959716797,-3.73742797852,8.94180541992,0.1,0.0,0.0,0.0,0.1,0.0,0.0,0.0,0.1
1446040949330845042,3792,1446040949327593088,robocape,-2.8921208373,27.6161624945,-27.2039617151,0.0,10.0,0.0,0.0,0.0,10.0,0.0,0.0,0.0,10.0,-0.199204449538,0.00705737688871,0.192679704867,1.0,0.0,0.0,0.0,1.0,0.0,0.0,0.0,1.0,-1.32564331055,-3.87753662109,8.89270751953,0.1,0.0,0.0,0.0,0.1,0.0,0.0,0.0,0.1
1446040949362647250,3793,1446040949359425067,robocape,-2.97159122252,27.5860175758,-26.8710083624,0.0,10.0,0.0,0.0,0.0,10.0,0.0,0.0,0.0,10.0,-0.117445404072,0.0149137021044,0.117711720182,1.0,0.0,0.0,0.0,1.0,0.0,0.0,0.0,1.0,-1.77590698242,-3.80329101563,8.88192993164,0.1,0.0,0.0,0.0,0.1,0.0,0.0,0.0,0.1
1446040949394762542,3794,1446040949391078948,robocape,-2.97866090824,27.5497725744,-26.7035446032,0.0,10.0,0.0,0.0,0.0,10.0,0.0,0.0,0.0,10.0,-0.0387489938607,0.0205063403936,0.0366184649886,1.0,0.0,0.0,0.0,1.0,0.0,0.0,0.0,1.0,-1.98307617188,-3.82125366211,8.80888183594,0.1,0.0,0.0,0.0,0.1,0.0,0.0,0.0,0.1
1446040949426623709,3795,1446040949423279047,robocape,-2.93882552948,27.5172986713,-26.6571294238,0.0,10.0,0.0,0.0,0.0,10.0,0.0,0.0,0.0,10.0,0.0157126504315,0.0291616139364,-0.0227700273202,1.0,0.0,0.0,0.0,1.0,0.0,0.0,0.0,1.0,-1.59268798828,-3.72545288086,8.79451171875,0.1,0.0,0.0,0.0,0.1,0.0,0.0,0.0,0.1
1446040949457687584,3796,1446040949454025030,robocape,-2.88065851525,27.4868492342,-26.5957456754,0.0,10.0,0.0,0.0,0.0,10.0,0.0,0.0,0.0,10.0,0.0217047628841,0.0294279300454,-0.015313176268,1.0,0.0,0.0,0.0,1.0,0.0,0.0,0.0,1.0,-1.17355957031,-3.7937109375,8.81965942383,0.1,0.0,0.0,0.0,0.1,0.0,0.0,0.0,0.1
1446040949487412376,3797,1446040949484172105,robocape,-2.83145037798,27.4568982944,-26.4899643116,0.0,10.0,0.0,0.0,0.0,10.0,0.0,0.0,0.0,10.0,0.00612527050718,0.0271642431188,0.0067910607797,1.0,0.0,0.0,0.0,1.0,0.0,0.0,0.0,1.0,-1.1460168457,-3.77934082031,8.84360961914,0.1,0.0,0.0,0.0,0.1,0.0,0.0,0.0,0.1
1446040949518449626,3798,1446040949515180110,robocape,-2.78021291895,27.4279448001,-26.3461303379,0.0,10.0,0.0,0.0,0.0,10.0,0.0,0.0,0.0,10.0,-0.00213052887206,0.0255663464648,0.0258326625738,1.0,0.0,0.0,0.0,1.0,0.0,0.0,0.0,1.0,-1.43581420898,-3.75778564453,8.83762207031,0.1,0.0,0.0,0.0,0.1,0.0,0.0,0.0,0.1
1446040949551811209,3799,1446040949548526048,robocape,-2.73796720163,27.3968572307,-26.2442275361,0.0,10.0,0.0,0.0,0.0,10.0,0.0,0.0,0.0,10.0,0.0034621094171,0.0263652947918,0.00559263828917,1.0,0.0,0.0,0.0,1.0,0.0,0.0,0.0,1.0,-1.58191040039,-3.82125366211,8.84480712891,0.1,0.0,0.0,0.0,0.1,0.0,0.0,0.0,0.1
1446040949582755917,3800,1446040949579737901,robocape,-2.69244903488,27.3687924947,-26.1666384072,0.0,10.0,0.0,0.0,0.0,10.0,0.0,0.0,0.0,10.0,0.0111852765783,0.0291616139364,-0.00612527050718,1.0,0.0,0.0,0.0,1.0,0.0,0.0,0.0,1.0,-1.42862915039,-3.78053833008,8.85917724609,0.1,0.0,0.0,0.0,0.1,0.0,0.0,0.0,0.1
1446040949616355626,3801,1446040949612756967,robocape,-2.64392606209,27.340942779,-26.0786613018,0.0,10.0,0.0,0.0,0.0,10.0,0.0,0.0,0.0,10.0,0.0102531701968,0.0286289817184,-0.000798948327024,1.0,0.0,0.0,0.0,1.0,0.0,0.0,0.0,1.0,-1.2645703125,-3.78293334961,8.81846191406,0.1,0.0,0.0,0.0,0.1,0.0,0.0,0.0,0.1
1446040949648269251,3802,1446040949645164966,robocape,-2.57818643433,27.3049515664,-25.9732817774,0.0,10.0,0.0,0.0,0.0,10.0,0.0,0.0,0.0,10.0,0.0150468601589,0.0231695014837,0.00798948327024,1.0,0.0,0.0,0.0,1.0,0.0,0.0,0.0,1.0,-1.39509887695,-3.88951171875,8.79930175781,0.1,0.0,0.0,0.0,0.1,0.0,0.0,0.0,0.1
1446040949683804751,3803,1446040949680367946,robocape,-2.3502544825,27.2580503774,-26.0513576565,0.0,10.0,0.0,0.0,0.0,10.0,0.0,0.0,0.0,10.0,0.145275437464,0.0267647689553,-0.082691151847,1.0,0.0,0.0,0.0,1.0,0.0,0.0,0.0,1.0,-1.67531616211,-3.81646362305,8.83163452148,0.1,0.0,0.0,0.0,0.1,0.0,0.0,0.0,0.1
1446040949714817667,3804,1446040949711714982,robocape,-2.25174578742,27.2281371198,-26.1477102407,0.0,10.0,0.0,0.0,0.0,10.0,0.0,0.0,0.0,10.0,0.0821585196289,0.0363521488796,-0.0916127414987,1.0,0.0,0.0,0.0,1.0,0.0,0.0,0.0,1.0,-2.11839477539,-3.68833007813,8.95976806641,0.1,0.0,0.0,0.0,0.1,0.0,0.0,0.0,0.1
1446040949745343084,3805,1446040949742290973,robocape,-2.19311238767,27.209912076,-26.1850886614,0.0,10.0,0.0,0.0,0.0,10.0,0.0,0.0,0.0,10.0,0.0470047932399,0.0398142582967,-0.0627174436714,1.0,0.0,0.0,0.0,1.0,0.0,0.0,0.0,1.0,-0.8813671875,-3.31710205078,8.9250402832,0.1,0.0,0.0,0.0,0.1,0.0,0.0,0.0,0.1
1446040949779167417,3806,1446040949775947093,robocape,-2.14921866074,27.1912256779,-25.9983350239,0.0,10.0,0.0,0.0,0.0,10.0,0.0,0.0,0.0,10.0,-0.0154463343225,0.0288952978274,0.0479368996214,1.0,0.0,0.0,0.0,1.0,0.0,0.0,0.0,1.0,-0.615520019531,-3.93621459961,8.85318969727,0.1,0.0,0.0,0.0,0.1,0.0,0.0,0.0,0.1
1446040949815862834,3807,1446040949812700033,robocape,-2.20126809594,27.1663910853,-25.6773822246,0.0,10.0,0.0,0.0,0.0,10.0,0.0,0.0,0.0,10.0,-0.0986701183874,0.0185089695761,0.115048559091,1.0,0.0,0.0,0.0,1.0,0.0,0.0,0.0,1.0,-1.3448034668,-3.97573242188,8.83283203125,0.1,0.0,0.0,0.0,0.1,0.0,0.0,0.0,0.1
1446040949849848084,3808,1446040949846719980,robocape,-2.15409228667,27.1317254916,-25.5382230803,0.0,10.0,0.0,0.0,0.0,10.0,0.0,0.0,0.0,10.0,-0.00239684498107,0.0217047628841,0.0258326625738,1.0,0.0,0.0,0.0,1.0,0.0,0.0,0.0,1.0,-1.77590698242,-3.57576416016,8.90348510742,0.1,0.0,0.0,0.0,0.1,0.0,0.0,0.0,0.1
1446040949880673709,3809,1446040949877296924,robocape,-2.10088371496,27.1077186356,-25.4819910981,0.0,10.0,0.0,0.0,0.0,10.0,0.0,0.0,0.0,10.0,0.0210389726116,0.0312921428084,-0.0147805440499,1.0,0.0,0.0,0.0,1.0,0.0,0.0,0.0,1.0,-2.00223632812,-3.91705444336,8.81127685547,0.1,0.0,0.0,0.0,0.1,0.0,0.0,0.0,0.1
1446040949916383959,3810,1446040949912173986,robocape,-2.06480005999,27.083583379,-25.4958933404,0.0,10.0,0.0,0.0,0.0,10.0,0.0,0.0,0.0,10.0,0.0291616139364,0.0342216200075,-0.049135322112,1.0,0.0,0.0,0.0,1.0,0.0,0.0,0.0,1.0,-1.21307739258,-3.55899902344,8.89270751953,0.1,0.0,0.0,0.0,0.1,0.0,0.0,0.0,0.1
1446040949947322501,3811,1446040949944236993,robocape,-2.01068930749,27.0619343398,-25.375328382,0.0,10.0,0.0,0.0,0.0,10.0,0.0,0.0,0.0,10.0,0.00599211245268,0.0295610880999,0.0170442309765,1.0,0.0,0.0,0.0,1.0,0.0,0.0,0.0,1.0,-0.916094970703,-3.72305786133,8.90109008789,0.1,0.0,0.0,0.0,0.1,0.0,0.0,0.0,0.1
1446040949998038167,3812,1446040949994407892,robocape,-1.98918438695,27.0382850245,-25.1816434156,0.0,10.0,0.0,0.0,0.0,10.0,0.0,0.0,0.0,10.0,-0.0288952978274,0.0249005561922,0.0535295379106,1.0,0.0,0.0,0.0,1.0,0.0,0.0,0.0,1.0,-1.53041748047,-3.74820556641,8.88073242188,0.1,0.0,0.0,0.0,0.1,0.0,0.0,0.0,0.1
1446040950033667626,3813,1446040950030111074,robocape,-1.95324635271,27.0031104395,-25.0930793879,0.0,10.0,0.0,0.0,0.0,10.0,0.0,0.0,0.0,10.0,0.00412789968962,0.0230363434292,0.00226368692657,1.0,0.0,0.0,0.0,1.0,0.0,0.0,0.0,1.0,-1.58550292969,-3.82484619141,8.81127685547,0.1,0.0,0.0,0.0,0.1,0.0,0.0,0.0,0.1
1446040950067668418,3814,1446040950063810110,robocape,-1.81497117967,26.9652172647,-25.1696198828,0.0,10.0,0.0,0.0,0.0,10.0,0.0,0.0,0.0,10.0,0.0980043281149,0.0290284558819,-0.0792290424299,1.0,0.0,0.0,0.0,1.0,0.0,0.0,0.0,1.0,-1.50766479492,-3.93142456055,8.82684448242,0.1,0.0,0.0,0.0,0.1,0.0,0.0,0.0,0.1
