%time,field.header.seq,field.header.stamp,field.header.frame_id,field.orientation.x,field.orientation.y,field.orientation.z,field.orientation.w,field.orientation_covariance0,field.orientation_covariance1,field.orientation_covariance2,field.orientation_covariance3,field.orientation_covariance4,field.orientation_covariance5,field.orientation_covariance6,field.orientation_covariance7,field.orientation_covariance8,field.angular_velocity.x,field.angular_velocity.y,field.angular_velocity.z,field.angular_velocity_covariance0,field.angular_velocity_covariance1,field.angular_velocity_covariance2,field.angular_velocity_covariance3,field.angular_velocity_covariance4,field.angular_velocity_covariance5,field.angular_velocity_covariance6,field.angular_velocity_covariance7,field.angular_velocity_covariance8,field.linear_acceleration.x,field.linear_acceleration.y,field.linear_acceleration.z,field.linear_acceleration_covariance0,field.linear_acceleration_covariance1,field.linear_acceleration_covariance2,field.linear_acceleration_covariance3,field.linear_acceleration_covariance4,field.linear_acceleration_covariance5,field.linear_acceleration_covariance6,field.linear_acceleration_covariance7,field.linear_acceleration_covariance8
1464076286037795387,243,1464076285816453637,,45.207321167,172.280426025,-135.378723145,0.00526099978015,1.0,0.0,0.0,0.0,1.0,0.0,0.0,0.0,1.0,-4.39024400711,-10.3048782349,39.3292694092,1.0,0.0,0.0,0.0,1.0,0.0,0.0,0.0,1.0,1.55144267578,-0.0622492431641,9.69651672363,1.0,0.0,0.0,0.0,1.0,0.0,0.0,0.0,1.0
1464076286037836168,244,1464076285838607744,,46.0783462524,170.909317017,-136.964706421,0.00577999977395,1.0,0.0,0.0,0.0,1.0,0.0,0.0,0.0,1.0,-3.35365867615,-10.7317075729,39.5121955872,1.0,0.0,0.0,0.0,1.0,0.0,0.0,0.0,1.0,1.5562310791,-0.220266552734,9.97903251953,1.0,0.0,0.0,0.0,1.0,0.0,0.0,0.0,1.0
1464076286037875543,245,1464076285859525605,,46.8190994263,169.700592041,-138.366592407,0.0019729998894,1.0,0.0,0.0,0.0,1.0,0.0,0.0,0.0,1.0,-1.8902438879,-9.5731716156,38.2926864624,1.0,0.0,0.0,0.0,1.0,0.0,0.0,0.0,1.0,1.54665427246,-0.134075302102,9.99339772949,1.0,0.0,0.0,0.0,1.0,0.0,0.0,0.0,1.0
1464076286037916220,246,1464076285880228466,,47.4977493286,168.456985474,-139.772903442,0.00223700003698,1.0,0.0,0.0,0.0,1.0,0.0,0.0,0.0,1.0,-2.07317066193,-6.64634132385,36.5853652954,1.0,0.0,0.0,0.0,1.0,0.0,0.0,0.0,1.0,1.85311208496,0.148440512063,10.0125513428,1.0,0.0,0.0,0.0,1.0,0.0,0.0,0.0,1.0
1464076286038185126,247,1464076285905374232,,48.1310424805,167.112731934,-141.242904663,0.00909399986267,1.0,0.0,0.0,0.0,1.0,0.0,0.0,0.0,1.0,-2.31707310677,-3.29268312454,34.3902435303,1.0,0.0,0.0,0.0,1.0,0.0,0.0,0.0,1.0,1.62326872559,0.248996972656,9.91678327637,1.0,0.0,0.0,0.0,1.0,0.0,0.0,0.0,1.0
1464076286038225802,248,1464076285925055846,,48.7179870605,165.726470947,-142.707290649,0.00271599995904,1.0,0.0,0.0,0.0,1.0,0.0,0.0,0.0,1.0,-2.80487799644,-1.34146344662,33.7804870605,1.0,0.0,0.0,0.0,1.0,0.0,0.0,0.0,1.0,1.57059628906,0.416591088867,10.0364933594,1.0,0.0,0.0,0.0,1.0,0.0,0.0,0.0,1.0
1464076286038379917,249,1464076285945532405,,49.1840057373,164.345932007,-144.1534729,0.00127999996766,1.0,0.0,0.0,0.0,1.0,0.0,0.0,0.0,1.0,-2.01219511032,1.8902438879,35.0609741211,1.0,0.0,0.0,0.0,1.0,0.0,0.0,0.0,1.0,1.58974990234,0.316034619141,9.86889924316,1.0,0.0,0.0,0.0,1.0,0.0,0.0,0.0,1.0
1464076286038825749,250,1464076285967002660,,49.603679657,162.898925781,-145.688598633,0.00163399998564,1.0,0.0,0.0,0.0,1.0,0.0,0.0,0.0,1.0,0.304878056049,4.02439022064,35.4878044128,1.0,0.0,0.0,0.0,1.0,0.0,0.0,0.0,1.0,1.41257897949,0.258573779297,9.62469125835,1.0,0.0,0.0,0.0,1.0,0.0,0.0,0.0,1.0
1464076286039955485,251,1464076285989137497,,50.0567321777,161.459457397,-147.262588501,0.00281500001438,1.0,0.0,0.0,0.0,1.0,0.0,0.0,0.0,1.0,2.98780488968,0.975609779358,34.7560997009,1.0,0.0,0.0,0.0,1.0,0.0,0.0,0.0,1.0,1.10612116699,0.354341845703,9.53371159526,1.0,0.0,0.0,0.0,1.0,0.0,0.0,0.0,1.0
1464076286040249599,252,1464076286012291601,,50.5795898438,159.963088989,-148.925216675,0.00269700004719,1.0,0.0,0.0,0.0,1.0,0.0,0.0,0.0,1.0,4.39024400711,-1.95121955872,35.0000038147,1.0,0.0,0.0,0.0,1.0,0.0,0.0,0.0,1.0,1.16837033709,0.258573779297,9.43315395649,1.0,0.0,0.0,0.0,1.0,0.0,0.0,0.0,1.0
1464076286040965326,253,1464076286033243993,,51.1060295105,158.398498535,-150.695907593,0.00295599992387,1.0,0.0,0.0,0.0,1.0,0.0,0.0,0.0,1.0,5.73170757294,-1.8292683363,37.317073822,1.0,0.0,0.0,0.0,1.0,0.0,0.0,0.0,1.0,0.895431420898,0.105344873047,9.7587659668,1.0,0.0,0.0,0.0,1.0,0.0,0.0,0.0,1.0
1464076286064446201,254,1464076286055568412,,51.6292800903,156.687927246,-152.595870972,0.0014969999902,1.0,0.0,0.0,0.0,1.0,0.0,0.0,0.0,1.0,3.53658556938,-5.48780488968,37.1951255798,1.0,0.0,0.0,0.0,1.0,0.0,0.0,0.0,1.0,1.36469494629,0.373495458984,9.61990285503,1.0,0.0,0.0,0.0,1.0,0.0,0.0,0.0,1.0
1464076286091463264,255,1464076286076211013,,52.142906189,154.85949707,-154.531570435,0.00228199991398,1.0,0.0,0.0,0.0,1.0,0.0,0.0,0.0,1.0,0.365853667259,-6.34146356583,37.0731697083,1.0,0.0,0.0,0.0,1.0,0.0,0.0,0.0,1.0,1.03908344744,0.296881024126,9.84016882324,1.0,0.0,0.0,0.0,1.0,0.0,0.0,0.0,1.0
1464076286099784179,256,1464076286096769083,,52.6262626648,152.923217773,-156.461334229,0.00165099999867,1.0,0.0,0.0,0.0,1.0,0.0,0.0,0.0,1.0,-5.12195110321,-6.21951246262,35.2439041138,1.0,0.0,0.0,0.0,1.0,0.0,0.0,0.0,1.0,1.33117612305,0.430956298828,9.92636008301,1.0,0.0,0.0,0.0,1.0,0.0,0.0,0.0,1.0
1464076286135326636,257,1464076286120636519,,53.1234550476,150.736923218,-158.49017334,0.00192900002003,1.0,0.0,0.0,0.0,1.0,0.0,0.0,0.0,1.0,-10.2439022064,-7.80487823486,32.7439041138,1.0,0.0,0.0,0.0,1.0,0.0,0.0,0.0,1.0,1.4844050293,0.3064578125,9.91678327637,1.0,0.0,0.0,0.0,1.0,0.0,0.0,0.0,1.0
1464076286151452999,258,1464076286140769903,,53.6032333374,148.560546875,-160.391815186,0.00177700002678,1.0,0.0,0.0,0.0,1.0,0.0,0.0,0.0,1.0,-13.9634151459,-7.92682981491,29.5121974945,1.0,0.0,0.0,0.0,1.0,0.0,0.0,0.0,1.0,1.36469494629,0.263362164351,10.0317049561,1.0,0.0,0.0,0.0,1.0,0.0,0.0,0.0,1.0
1464076286177813605,259,1464076286160934536,,54.0761184692,146.354522705,-162.240234375,0.00200799992308,1.0,0.0,0.0,0.0,1.0,0.0,0.0,0.0,1.0,-15.975610733,-7.68292665482,26.2804889679,1.0,0.0,0.0,0.0,1.0,0.0,0.0,0.0,1.0,1.40300217285,0.344765039063,9.74440075684,1.0,0.0,0.0,0.0,1.0,0.0,0.0,0.0,1.0
1464076286187796235,260,1464076286182279375,,54.5229797363,144.149902344,-164.036392212,0.00280899996869,1.0,0.0,0.0,0.0,1.0,0.0,0.0,0.0,1.0,-15.548781395,-5.42682933807,24.0853652954,1.0,0.0,0.0,0.0,1.0,0.0,0.0,0.0,1.0,1.59932670898,-0.0909796630859,9.93593688965,1.0,0.0,0.0,0.0,1.0,0.0,0.0,0.0,1.0
1464076286205746603,261,1464076286202369685,,54.9544372559,141.943572998,-165.829177856,0.00352100003511,1.0,0.0,0.0,0.0,1.0,0.0,0.0,0.0,1.0,-13.2317075729,-3.04878044128,22.3170719147,1.0,0.0,0.0,0.0,1.0,0.0,0.0,0.0,1.0,1.49877023926,-0.076614453125,9.92636008301,1.0,0.0,0.0,0.0,1.0,0.0,0.0,0.0,1.0
1464076286227259983,262,1464076286224696032,,55.3240852356,139.769729614,-167.578826904,0.0015040000435,1.0,0.0,0.0,0.0,1.0,0.0,0.0,0.0,1.0,-11.7682924271,0.548780500889,19.6951236725,1.0,0.0,0.0,0.0,1.0,0.0,0.0,0.0,1.0,1.5562310791,0.124498486328,9.92157167969,1.0,0.0,0.0,0.0,1.0,0.0,0.0,0.0,1.0
1464076286249485861,263,1464076286246271443,,55.6424293518,137.727386475,-169.195053101,0.00240399991162,1.0,0.0,0.0,0.0,1.0,0.0,0.0,0.0,1.0,-9.45121955872,3.7804877758,15.7317075729,1.0,0.0,0.0,0.0,1.0,0.0,0.0,0.0,1.0,1.70945998535,0.0383072265625,9.78749638672,1.0,0.0,0.0,0.0,1.0,0.0,0.0,0.0,1.0
1464076286272624132,264,1464076286267056751,,55.9398460388,135.916275024,-170.599349976,0.00109799997881,1.0,0.0,0.0,0.0,1.0,0.0,0.0,0.0,1.0,-8.17073154449,5.60975599289,12.2560977936,1.0,0.0,0.0,0.0,1.0,0.0,0.0,0.0,1.0,1.55144267578,0.0287304199219,10.0077629395,1.0,0.0,0.0,0.0,1.0,0.0,0.0,0.0,1.0
1464076286291983768,265,1464076286288752735,,56.2538948059,134.127243042,-171.961029053,0.0020389999263,1.0,0.0,0.0,0.0,1.0,0.0,0.0,0.0,1.0,-8.23170757294,6.15853643417,10.4878053665,1.0,0.0,0.0,0.0,1.0,0.0,0.0,0.0,1.0,1.14921679688,0.114921679688,10.1083194092,1.0,0.0,0.0,0.0,1.0,0.0,0.0,0.0,1.0
1464076286333137720,266,1464076286309893616,,56.5811576843,132.358734131,-173.294403076,0.00129399995785,1.0,0.0,0.0,0.0,1.0,0.0,0.0,0.0,1.0,-8.23170757294,7.01219511032,9.26829242706,1.0,0.0,0.0,0.0,1.0,0.0,0.0,0.0,1.0,1.41736738281,-0.148440512063,10.0700121826,1.0,0.0,0.0,0.0,1.0,0.0,0.0,0.0,1.0
1464076286337948436,267,1464076286331464600,,56.910533905,130.591567993,-174.613082886,0.0019199999515,1.0,0.0,0.0,0.0,1.0,0.0,0.0,0.0,1.0,-7.37804937363,7.13414621353,7.31707334518,1.0,0.0,0.0,0.0,1.0,0.0,0.0,0.0,1.0,1.13963999023,-0.205901342773,10.0891657959,1.0,0.0,0.0,0.0,1.0,0.0,0.0,0.0,1.0
1464076286360474938,268,1464076286352331054,,57.2915916443,128.730361938,-176.010757446,0.00278199999593,1.0,0.0,0.0,0.0,1.0,0.0,0.0,0.0,1.0,-7.01219511032,5.18292713165,5.24390268326,1.0,0.0,0.0,0.0,1.0,0.0,0.0,0.0,1.0,1.00556469727,0.0,9.96945571289,1.0,0.0,0.0,0.0,1.0,0.0,0.0,0.0,1.0
1464076286389255642,269,1464076286374739379,,57.7195549011,126.799591064,-177.490997314,0.00244700000621,1.0,0.0,0.0,0.0,1.0,0.0,0.0,0.0,1.0,-6.34146356583,2.5,3.84146332741,1.0,0.0,0.0,0.0,1.0,0.0,0.0,0.0,1.0,1.1875240965,-0.225054956055,10.060435376,1.0,0.0,0.0,0.0,1.0,0.0,0.0,0.0,1.0
1464076286412496674,270,1464076286396335051,,58.1563072205,124.882408142,-178.993621826,0.00168800004758,1.0,0.0,0.0,0.0,1.0,0.0,0.0,0.0,1.0,-5.0,1.58536589146,2.80487799644,1.0,0.0,0.0,0.0,1.0,0.0,0.0,0.0,1.0,1.10612116699,-0.272938989258,10.0029745361,1.0,0.0,0.0,0.0,1.0,0.0,0.0,0.0,1.0
1464076286422351439,271,1464076286417295776,,58.595451355,122.96786499,179.464096069,0.00164699996822,1.0,0.0,0.0,0.0,1.0,0.0,0.0,0.0,1.0,-4.08536577225,-0.0609756112099,2.5,1.0,0.0,0.0,0.0,1.0,0.0,0.0,0.0,1.0,1.14442839355,-0.387860668945,10.2328178955,1.0,0.0,0.0,0.0,1.0,0.0,0.0,0.0,1.0
1464076286443842996,272,1464076286437415826,,59.0477676392,121.008796692,177.839782715,0.0017269999953,1.0,0.0,0.0,0.0,1.0,0.0,0.0,0.0,1.0,-2.31707310677,-2.07317066193,2.19512200356,1.0,0.0,0.0,0.0,1.0,0.0,0.0,0.0,1.0,1.12048637695,-0.555454785156,10.165780249,1.0,0.0,0.0,0.0,1.0,0.0,0.0,0.0,1.0
1464076286464818461,273,1464076286459257590,,59.5288734436,118.937973022,176.052780151,0.00158699997701,1.0,0.0,0.0,0.0,1.0,0.0,0.0,0.0,1.0,0.731707334518,-4.20731735229,1.2195122242,1.0,0.0,0.0,0.0,1.0,0.0,0.0,0.0,1.0,1.26413847656,-0.665588061523,10.1705686523,1.0,0.0,0.0,0.0,1.0,0.0,0.0,0.0,1.0
1464076286489101260,274,1464076286481516333,,60.0239601135,116.734939575,174.084182739,0.00291600008495,1.0,0.0,0.0,0.0,1.0,0.0,0.0,0.0,1.0,2.5,-5.0,0.731707334518,1.0,0.0,0.0,0.0,1.0,0.0,0.0,0.0,1.0,1.2737152832,-0.627280834961,10.2232410889,1.0,0.0,0.0,0.0,1.0,0.0,0.0,0.0,1.0
1464076286507209753,275,1464076286501694716,,60.49609375,114.532455444,172.077911377,0.00348900002427,1.0,0.0,0.0,0.0,1.0,0.0,0.0,0.0,1.0,3.23170733452,-5.48780488968,-1.03658533096,1.0,0.0,0.0,0.0,1.0,0.0,0.0,0.0,1.0,1.36469494629,-0.660799658203,10.0700121826,1.0,0.0,0.0,0.0,1.0,0.0,0.0,0.0,1.0
1464076286536213842,276,1464076286524025906,,60.9814720154,112.25655365,170.012283325,0.00254100002348,1.0,0.0,0.0,0.0,1.0,0.0,0.0,0.0,1.0,2.98780488968,-3.84146332741,-3.53658556938,1.0,0.0,0.0,0.0,1.0,0.0,0.0,0.0,1.0,1.1875240965,-0.928950244141,10.3477395752,1.0,0.0,0.0,0.0,1.0,0.0,0.0,0.0,1.0
1464076286552967651,277,1464076286546338294,,61.46068573,109.973373413,167.978805542,0.00192499998957,1.0,0.0,0.0,0.0,1.0,0.0,0.0,0.0,1.0,1.95121955872,0.0,-5.24390268326,1.0,0.0,0.0,0.0,1.0,0.0,0.0,0.0,1.0,1.67594116211,-0.790086547852,10.5105452881,1.0,0.0,0.0,0.0,1.0,0.0,0.0,0.0,1.0
1464076286570775468,278,1464076286566859802,,61.8933944702,107.902915955,166.194076538,0.00210799998604,1.0,0.0,0.0,0.0,1.0,0.0,0.0,0.0,1.0,0.365853667259,2.37804889679,-7.19512224197,1.0,0.0,0.0,0.0,1.0,0.0,0.0,0.0,1.0,1.47003981934,-0.943315454102,10.3716815918,1.0,0.0,0.0,0.0,1.0,0.0,0.0,0.0,1.0
1464076286593274939,279,1464076286587315216,,62.3260688782,105.811721802,164.443069458,0.00159100000747,1.0,0.0,0.0,0.0,1.0,0.0,0.0,0.0,1.0,-2.37804889679,3.90243911743,-9.45121955872,1.0,0.0,0.0,0.0,1.0,0.0,0.0,0.0,1.0,1.5322890625,-0.708683691406,10.2232410889,1.0,0.0,0.0,0.0,1.0,0.0,0.0,0.0,1.0
1464076286637211384,280,1464076286610336768,,62.7652816772,103.550758362,162.609329224,0.00185200001579,1.0,0.0,0.0,0.0,1.0,0.0,0.0,0.0,1.0,-5.24390268326,6.34146356583,-12.0731716156,1.0,0.0,0.0,0.0,1.0,0.0,0.0,0.0,1.0,1.5322890625,-0.483628735352,9.86889924316,1.0,0.0,0.0,0.0,1.0,0.0,0.0,0.0,1.0
1464076286637253311,281,1464076286631597857,,63.2071800232,101.192367554,160.761383057,0.00266700005159,1.0,0.0,0.0,0.0,1.0,0.0,0.0,0.0,1.0,-8.04878044128,8.17073154449,-12.5609760284,1.0,0.0,0.0,0.0,1.0,0.0,0.0,0.0,1.0,1.38384855957,-0.531512805087,9.75397756348,1.0,0.0,0.0,0.0,1.0,0.0,0.0,0.0,1.0
1464076286656364926,282,1464076286653182591,,63.5894966125,98.8922271729,158.995361328,0.00167100003455,1.0,0.0,0.0,0.0,1.0,0.0,0.0,0.0,1.0,-10.0609760284,9.14634132385,-10.2439022064,1.0,0.0,0.0,0.0,1.0,0.0,0.0,0.0,1.0,1.39342536621,-0.775721337891,9.8545340332,1.0,0.0,0.0,0.0,1.0,0.0,0.0,0.0,1.0
1464076286678139712,283,1464076286673606755,,63.8720932007,96.6346740723,157.283554077,0.00149599998258,1.0,0.0,0.0,0.0,1.0,0.0,0.0,0.0,1.0,-10.8536586761,12.2560977936,-5.67073154449,1.0,0.0,0.0,0.0,1.0,0.0,0.0,0.0,1.0,1.57538469238,-0.986411083984,10.2088758789,1.0,0.0,0.0,0.0,1.0,0.0,0.0,0.0,1.0
1464076286705674221,284,1464076286694385814,,64.0301055908,94.5135421753,155.721801758,0.00149799999781,1.0,0.0,0.0,0.0,1.0,0.0,0.0,0.0,1.0,-10.0,16.7073173523,-1.2804877758,1.0,0.0,0.0,0.0,1.0,0.0,0.0,0.0,1.0,1.58496149902,-1.16837033709,10.1705686523,1.0,0.0,0.0,0.0,1.0,0.0,0.0,0.0,1.0
1464076286727989109,285,1464076286715167425,,64.1256713867,92.4911880493,154.260025024,0.00170799996704,1.0,0.0,0.0,0.0,1.0,0.0,0.0,0.0,1.0,-9.20731735229,18.841463089,0.12195122242,1.0,0.0,0.0,0.0,1.0,0.0,0.0,0.0,1.0,1.64721074219,-1.13006318359,10.3285859619,1.0,0.0,0.0,0.0,1.0,0.0,0.0,0.0,1.0
1464076286750866392,286,1464076286736040025,,64.1722412109,90.5906524658,152.904815674,0.00208800006658,1.0,0.0,0.0,0.0,1.0,0.0,0.0,0.0,1.0,-8.41463470459,20.1219520569,1.64634156227,1.0,0.0,0.0,0.0,1.0,0.0,0.0,0.0,1.0,1.41257897949,-1.22104284668,10.0843773926,1.0,0.0,0.0,0.0,1.0,0.0,0.0,0.0,1.0
1464076286767752753,287,1464076286761773862,,64.2072601318,88.5465316772,151.406738281,0.00208200002089,1.0,0.0,0.0,0.0,1.0,0.0,0.0,0.0,1.0,-7.19512224197,18.9024391174,0.548780500889,1.0,0.0,0.0,0.0,1.0,0.0,0.0,0.0,1.0,1.45088620605,-1.23540805664,10.2615483154,1.0,0.0,0.0,0.0,1.0,0.0,0.0,0.0,1.0
1464076286827795769,288,1464076286781171831,,64.2433700562,86.508682251,149.871826172,0.00223600002937,1.0,0.0,0.0,0.0,1.0,0.0,0.0,0.0,1.0,-5.06097555161,16.5243911743,-1.09756100178,1.0,0.0,0.0,0.0,1.0,0.0,0.0,0.0,1.0,1.1875240965,-1.36469494629,10.1562034424,1.0,0.0,0.0,0.0,1.0,0.0,0.0,0.0,1.0
1464076286827836914,289,1464076286801400631,,64.3185577393,84.4113769531,148.198165894,0.00209799990989,1.0,0.0,0.0,0.0,1.0,0.0,0.0,0.0,1.0,-2.74390244484,13.5365858078,-3.23170733452,1.0,0.0,0.0,0.0,1.0,0.0,0.0,0.0,1.0,1.34554133301,-1.35511813965,10.3573163818,1.0,0.0,0.0,0.0,1.0,0.0,0.0,0.0,1.0
1464076286830854563,290,1464076286822931042,,64.3855133057,82.0762634277,146.269302368,0.00257000001147,1.0,0.0,0.0,0.0,1.0,0.0,0.0,0.0,1.0,-1.46341466904,12.8048782349,-3.65853667259,1.0,0.0,0.0,0.0,1.0,0.0,0.0,0.0,1.0,1.30244570312,-1.42215578613,10.4961800781,1.0,0.0,0.0,0.0,1.0,0.0,0.0,0.0,1.0
1464076286928890029,291,1464076286845051920,,64.419921875,79.8220367432,144.367538452,0.00166900001932,1.0,0.0,0.0,0.0,1.0,0.0,0.0,0.0,1.0,0.670731723309,13.841463089,-2.07317066193,1.0,0.0,0.0,0.0,1.0,0.0,0.0,0.0,1.0,1.55144267578,-1.64242233887,10.7164466309,1.0,0.0,0.0,0.0,1.0,0.0,0.0,0.0,1.0
1464076286928948727,292,1464076286866783268,,64.3960571289,77.7258453369,142.568572998,0.00185000000056,1.0,0.0,0.0,0.0,1.0,0.0,0.0,0.0,1.0,4.51219558716,15.6097564697,1.46341466904,1.0,0.0,0.0,0.0,1.0,0.0,0.0,0.0,1.0,1.31681091309,-1.67594116211,10.6446205811,1.0,0.0,0.0,0.0,1.0,0.0,0.0,0.0,1.0
1464076286929260445,293,1464076286889185917,,64.2607803345,75.827293396,140.90838623,0.00172099994961,1.0,0.0,0.0,0.0,1.0,0.0,0.0,0.0,1.0,5.79268312454,16.158536911,5.06097555161,1.0,0.0,0.0,0.0,1.0,0.0,0.0,0.0,1.0,1.0534486574,-1.26413847656,10.2807019287,1.0,0.0,0.0,0.0,1.0,0.0,0.0,0.0,1.0
1464076286929312163,294,1464076286911742054,,64.005241394,73.8942260742,139.215789795,0.00184699997772,1.0,0.0,0.0,0.0,1.0,0.0,0.0,0.0,1.0,5.42682933807,13.1707324982,8.78048801422,1.0,0.0,0.0,0.0,1.0,0.0,0.0,0.0,1.0,0.718260498047,-1.26892687988,10.1897222656,1.0,0.0,0.0,0.0,1.0,0.0,0.0,0.0,1.0
1464076286996472764,295,1464076286931955333,,63.6641235352,71.9909133911,137.52192688,0.00367100001313,1.0,0.0,0.0,0.0,1.0,0.0,0.0,0.0,1.0,6.21951246262,9.51219558716,11.2195119858,1.0,0.0,0.0,0.0,1.0,0.0,0.0,0.0,1.0,1.09175595703,-1.16358193377,10.060435376,1.0,0.0,0.0,0.0,1.0,0.0,0.0,0.0,1.0
1464076286996827399,296,1464076286954373919,,63.1927757263,69.9861602783,135.729827881,0.0034020000603,1.0,0.0,0.0,0.0,1.0,0.0,0.0,0.0,1.0,6.28048801422,8.29268264771,13.5975618362,1.0,0.0,0.0,0.0,1.0,0.0,0.0,0.0,1.0,0.948103857422,-1.21625444336,9.28950185688,1.0,0.0,0.0,0.0,1.0,0.0,0.0,0.0,1.0
1464076286996876253,297,1464076286974048606,,62.7082214355,68.0820465088,134.019226074,0.00158499996178,1.0,0.0,0.0,0.0,1.0,0.0,0.0,0.0,1.0,5.54878091812,3.71951246262,12.8658542633,1.0,0.0,0.0,0.0,1.0,0.0,0.0,0.0,1.0,0.871489404297,-1.02950671387,9.41878874653,1.0,0.0,0.0,0.0,1.0,0.0,0.0,0.0,1.0
1464076287001213533,298,1464076286996952398,,62.1153831482,65.9401397705,132.104507446,0.00191800005268,1.0,0.0,0.0,0.0,1.0,0.0,0.0,0.0,1.0,4.45121955872,1.76829278469,13.9634151459,1.0,0.0,0.0,0.0,1.0,0.0,0.0,0.0,1.0,1.08217922346,-1.2737152832,9.72524714355,1.0,0.0,0.0,0.0,1.0,0.0,0.0,0.0,1.0
1464076287080955819,299,1464076287018013488,,61.4577827454,63.9894943237,130.392929077,0.00250900001265,1.0,0.0,0.0,0.0,1.0,0.0,0.0,0.0,1.0,4.14634132385,3.59756112099,17.1951217651,1.0,0.0,0.0,0.0,1.0,0.0,0.0,0.0,1.0,1.25935007324,-1.00077629395,9.58159562847,1.0,0.0,0.0,0.0,1.0,0.0,0.0,0.0,1.0
1464076287082337690,300,1464076287042508943,,60.7671852112,62.3329925537,129.014984131,0.0016230000183,1.0,0.0,0.0,0.0,1.0,0.0,0.0,0.0,1.0,2.01219511032,7.92682981491,18.1097564697,1.0,0.0,0.0,0.0,1.0,0.0,0.0,0.0,1.0,1.40779057617,-1.05823706072,9.32780908345,1.0,0.0,0.0,0.0,1.0,0.0,0.0,0.0,1.0
1464076287082397013,301,1464076287059915250,,60.0599327087,60.6654243469,127.719863892,0.00200799992308,1.0,0.0,0.0,0.0,1.0,0.0,0.0,0.0,1.0,0.18292683363,7.68292665482,18.5975627899,1.0,0.0,0.0,0.0,1.0,0.0,0.0,0.0,1.0,1.21146604004,-1.23061965332,9.57680722515,1.0,0.0,0.0,0.0,1.0,0.0,0.0,0.0,1.0
1464076287155920514,302,1464076287086174659,,59.3306427002,58.9565544128,126.410797119,0.00307200010866,1.0,0.0,0.0,0.0,1.0,0.0,0.0,0.0,1.0,0.670731723309,5.60975599289,16.5853652954,1.0,0.0,0.0,0.0,1.0,0.0,0.0,0.0,1.0,1.21146604004,-1.19231249982,9.7348239502,1.0,0.0,0.0,0.0,1.0,0.0,0.0,0.0,1.0
1464076287156170722,303,1464076287104174611,,58.6002731323,57.3860282898,125.266456604,0.00118999998085,1.0,0.0,0.0,0.0,1.0,0.0,0.0,0.0,1.0,-2.92682933807,8.04878044128,15.6097564697,1.0,0.0,0.0,0.0,1.0,0.0,0.0,0.0,1.0,1.35511813965,-0.809240161133,9.56723041851,1.0,0.0,0.0,0.0,1.0,0.0,0.0,0.0,1.0
1464076287158246289,304,1464076287124916743,,57.9429283142,55.8676338196,124.231147766,0.00133700005244,1.0,0.0,0.0,0.0,1.0,0.0,0.0,0.0,1.0,-6.09756088257,6.58536624908,12.3780488968,1.0,0.0,0.0,0.0,1.0,0.0,0.0,0.0,1.0,0.660799658203,-0.909796630859,9.95030209961,1.0,0.0,0.0,0.0,1.0,0.0,0.0,0.0,1.0
1464076287158522799,305,1464076287145544812,,57.321762085,54.1668510437,123.033302307,0.00209599989466,1.0,0.0,0.0,0.0,1.0,0.0,0.0,0.0,1.0,-7.68292665482,3.96341490746,8.90243911743,1.0,0.0,0.0,0.0,1.0,0.0,0.0,0.0,1.0,1.10612116699,-1.04866025408,9.92157167969,1.0,0.0,0.0,0.0,1.0,0.0,0.0,0.0,1.0
1464076287213361922,306,1464076287166446423,,56.7180099487,52.3575172424,121.756347656,0.00177900004201,1.0,0.0,0.0,0.0,1.0,0.0,0.0,0.0,1.0,-8.71951198578,4.08536577225,5.73170757294,1.0,0.0,0.0,0.0,1.0,0.0,0.0,0.0,1.0,1.2497732666,-1.09175595703,9.72045874023,1.0,0.0,0.0,0.0,1.0,0.0,0.0,0.0,1.0
1464076287213707911,307,1464076287187409596,,56.1275558472,50.5990066528,120.553565979,0.00138699996751,1.0,0.0,0.0,0.0,1.0,0.0,0.0,0.0,1.0,-10.7317075729,5.18292713165,4.20731735229,1.0,0.0,0.0,0.0,1.0,0.0,0.0,0.0,1.0,0.933738647461,-1.11090957031,9.81622680664,1.0,0.0,0.0,0.0,1.0,0.0,0.0,0.0,1.0
1464076287213754734,308,1464076287209630057,,55.5221138,48.7868690491,119.359428406,0.00188400002662,1.0,0.0,0.0,0.0,1.0,0.0,0.0,0.0,1.0,-11.8292684555,5.60975599289,4.20731735229,1.0,0.0,0.0,0.0,1.0,0.0,0.0,0.0,1.0,0.986411083984,-1.25456166992,10.0652237793,1.0,0.0,0.0,0.0,1.0,0.0,0.0,0.0,1.0
1464076287238414199,309,1464076287232966557,,54.904499054,46.9848976135,118.205200195,0.00331799988635,1.0,0.0,0.0,0.0,1.0,0.0,0.0,0.0,1.0,-11.1585359573,6.46341466904,5.24390268326,1.0,0.0,0.0,0.0,1.0,0.0,0.0,0.0,1.0,1.06781401349,-1.33596452637,9.77313117676,1.0,0.0,0.0,0.0,1.0,0.0,0.0,0.0,1.0
1464076287302072049,310,1464076287252286453,,54.3057365417,45.4162368774,117.236557007,0.00180600001477,1.0,0.0,0.0,0.0,1.0,0.0,0.0,0.0,1.0,-11.7073173523,5.91463422775,5.73170757294,1.0,0.0,0.0,0.0,1.0,0.0,0.0,0.0,1.0,0.890643017578,-1.06781401349,9.56723041851,1.0,0.0,0.0,0.0,1.0,0.0,0.0,0.0,1.0
1464076287302656110,311,1464076287273895666,,53.64245224,43.8613700867,116.315956116,0.0013119999785,1.0,0.0,0.0,0.0,1.0,0.0,0.0,0.0,1.0,-11.5853662491,6.70731735229,7.37804937363,1.0,0.0,0.0,0.0,1.0,0.0,0.0,0.0,1.0,1.33117612305,-1.17794714373,9.21288798828,1.0,0.0,0.0,0.0,1.0,0.0,0.0,0.0,1.0
1464076287303107775,312,1464076287294805089,,52.9898414612,42.4189605713,115.491996765,0.00147200003266,1.0,0.0,0.0,0.0,1.0,0.0,0.0,0.0,1.0,-9.5731716156,7.56097555161,7.80487823486,1.0,0.0,0.0,0.0,1.0,0.0,0.0,0.0,1.0,1.10133276367,-1.08696755371,9.04050546875,1.0,0.0,0.0,0.0,1.0,0.0,0.0,0.0,1.0
1464076287320732572,313,1464076287316566958,,52.320514679,41.0287590027,114.688652039,0.00121200003196,1.0,0.0,0.0,0.0,1.0,0.0,0.0,0.0,1.0,-8.65853691101,5.42682933807,8.17073154449,1.0,0.0,0.0,0.0,1.0,0.0,0.0,0.0,1.0,0.976834277344,-1.1540052002,9.2416184082,1.0,0.0,0.0,0.0,1.0,0.0,0.0,0.0,1.0
1464076287344108551,314,1464076287337330757,,51.6169471741,39.7109985352,113.930679321,0.00153600005433,1.0,0.0,0.0,0.0,1.0,0.0,0.0,0.0,1.0,-6.46341466904,6.21951246262,10.1829271317,1.0,0.0,0.0,0.0,1.0,0.0,0.0,0.0,1.0,1.29286889648,-1.50355864258,9.48103915874,1.0,0.0,0.0,0.0,1.0,0.0,0.0,0.0,1.0
1464076287361939180,315,1464076287359959498,,50.9054412842,38.5330352783,113.309089661,0.00164300005417,1.0,0.0,0.0,0.0,1.0,0.0,0.0,0.0,1.0,-3.65853667259,8.90243911743,12.6219520569,1.0,0.0,0.0,0.0,1.0,0.0,0.0,0.0,1.0,0.703895288086,-1.49398183594,9.66299848491,1.0,0.0,0.0,0.0,1.0,0.0,0.0,0.0,1.0
1464076287393527325,316,1464076287381528034,,50.1674957275,37.4653511047,112.75402832,0.00184799998533,1.0,0.0,0.0,0.0,1.0,0.0,0.0,0.0,1.0,-1.52439022064,7.13414621353,13.5975618362,1.0,0.0,0.0,0.0,1.0,0.0,0.0,0.0,1.0,0.991199487305,-1.47961662598,10.165780249,1.0,0.0,0.0,0.0,1.0,0.0,0.0,0.0,1.0
1464076287425156823,317,1464076287418983975,,49.1283950806,36.2344474792,112.110908508,0.0167689993978,1.0,0.0,0.0,0.0,1.0,0.0,0.0,0.0,1.0,1.76829278469,4.93902444839,14.6951217651,1.0,0.0,0.0,0.0,1.0,0.0,0.0,0.0,1.0,0.632069238281,-1.41257897949,10.4482960449,1.0,0.0,0.0,0.0,1.0,0.0,0.0,0.0,1.0
1464076287436630282,318,1464076287431376702,,48.3508911133,35.3362312317,111.590774536,0.00117099995259,1.0,0.0,0.0,0.0,1.0,0.0,0.0,0.0,1.0,2.07317066193,0.243902444839,12.3780488968,1.0,0.0,0.0,0.0,1.0,0.0,0.0,0.0,1.0,0.545877978516,-1.35511813965,10.5775829346,1.0,0.0,0.0,0.0,1.0,0.0,0.0,0.0,1.0
1464076287459203399,319,1464076287455957261,,47.5004692078,34.3425941467,110.936439514,0.0010450000409,1.0,0.0,0.0,0.0,1.0,0.0,0.0,0.0,1.0,2.25609779358,-3.41463422775,10.2439022064,1.0,0.0,0.0,0.0,1.0,0.0,0.0,0.0,1.0,0.517147558594,-1.44130939941,10.4099888184,1.0,0.0,0.0,0.0,1.0,0.0,0.0,0.0,1.0
1464076287484055624,320,1464076287481962035,,46.5326042175,33.2298126221,110.167472839,0.00412499997765,1.0,0.0,0.0,0.0,1.0,0.0,0.0,0.0,1.0,3.71951246262,-5.73170757294,9.20731735229,1.0,0.0,0.0,0.0,1.0,0.0,0.0,0.0,1.0,0.833182177734,-1.5322890625,10.6446205811,1.0,0.0,0.0,0.0,1.0,0.0,0.0,0.0,1.0
1464076287504440204,321,1464076287497972982,,45.6768188477,32.3152923584,109.546089172,0.00131299998611,1.0,0.0,0.0,0.0,1.0,0.0,0.0,0.0,1.0,4.81707286835,-3.59756112099,10.2439022064,1.0,0.0,0.0,0.0,1.0,0.0,0.0,0.0,1.0,0.675164868164,-1.56101948242,10.6111017578,1.0,0.0,0.0,0.0,1.0,0.0,0.0,0.0,1.0
1464076287530288000,322,1464076287518832301,,44.8383140564,31.4838047028,109.0050354,0.001304000034,1.0,0.0,0.0,0.0,1.0,0.0,0.0,0.0,1.0,5.0,-1.52439022064,9.75609779358,1.0,0.0,0.0,0.0,1.0,0.0,0.0,0.0,1.0,0.593762048251,-1.45088620605,10.6685625977,1.0,0.0,0.0,0.0,1.0,0.0,0.0,0.0,1.0
1464076287542865414,323,1464076287540261879,,44.0491027832,30.687871933,108.501075745,0.00162800005637,1.0,0.0,0.0,0.0,1.0,0.0,0.0,0.0,1.0,5.18292713165,-1.8902438879,8.59756088257,1.0,0.0,0.0,0.0,1.0,0.0,0.0,0.0,1.0,0.248996972656,-1.55144267578,10.419565625,1.0,0.0,0.0,0.0,1.0,0.0,0.0,0.0,1.0
1464076287566605611,324,1464076287560916772,,43.2807693481,29.8936634064,107.981666565,0.00118699995801,1.0,0.0,0.0,0.0,1.0,0.0,0.0,0.0,1.0,4.63414621353,-3.17073178291,7.56097555161,1.0,0.0,0.0,0.0,1.0,0.0,0.0,0.0,1.0,0.593762048251,-1.36469494629,10.5153336914,1.0,0.0,0.0,0.0,1.0,0.0,0.0,0.0,1.0
1464076287586883629,325,1464076287582377391,,42.5064430237,29.1294975281,107.533119202,0.00115599995479,1.0,0.0,0.0,0.0,1.0,0.0,0.0,0.0,1.0,3.47560977936,1.15853655338,8.90243911743,1.0,0.0,0.0,0.0,1.0,0.0,0.0,0.0,1.0,0.392649072266,-1.37906015625,10.8648871338,1.0,0.0,0.0,0.0,1.0,0.0,0.0,0.0,1.0
1464076287609284402,326,1464076287603697074,,41.8069839478,28.393819809,107.154624939,0.00124000001233,1.0,0.0,0.0,0.0,1.0,0.0,0.0,0.0,1.0,3.10975623131,2.62195134163,7.92682981491,1.0,0.0,0.0,0.0,1.0,0.0,0.0,0.0,1.0,0.440533105469,-1.66636435547,10.8026378906,1.0,0.0,0.0,0.0,1.0,0.0,0.0,0.0,1.0
1464076287651443664,327,1464076287624405716,,41.1739654541,27.6827526093,106.782455444,0.00108700001147,1.0,0.0,0.0,0.0,1.0,0.0,0.0,0.0,1.0,2.86585378647,2.5,6.40243911743,1.0,0.0,0.0,0.0,1.0,0.0,0.0,0.0,1.0,0.277727392578,-1.56101948242,10.8696755371,1.0,0.0,0.0,0.0,1.0,0.0,0.0,0.0,1.0
1464076287651920486,328,1464076287645975241,,40.5318336487,26.9133853912,106.35823822,0.00125400000252,1.0,0.0,0.0,0.0,1.0,0.0,0.0,0.0,1.0,2.80487799644,1.70731711388,4.75609779358,1.0,0.0,0.0,0.0,1.0,0.0,0.0,0.0,1.0,0.316034619141,-1.72382519531,11.2096521729,1.0,0.0,0.0,0.0,1.0,0.0,0.0,0.0,1.0
1464076287679757026,329,1464076287667160549,,39.9157104492,26.1390628815,105.899902344,0.00112399994396,1.0,0.0,0.0,0.0,1.0,0.0,0.0,0.0,1.0,3.96341490746,0.365853667259,3.47560977936,1.0,0.0,0.0,0.0,1.0,0.0,0.0,0.0,1.0,-0.229843359375,-1.8626888916,11.2240173828,1.0,0.0,0.0,0.0,1.0,0.0,0.0,0.0,1.0
1464076287719960460,330,1464076287689187626,,39.2608947754,25.3758659363,105.404273987,0.00124400004279,1.0,0.0,0.0,0.0,1.0,0.0,0.0,0.0,1.0,5.48780488968,-3.17073178291,3.17073178291,1.0,0.0,0.0,0.0,1.0,0.0,0.0,0.0,1.0,0.0861912597656,-1.97761057129,11.1090957031,1.0,0.0,0.0,0.0,1.0,0.0,0.0,0.0,1.0
1464076287720477854,331,1464076287709112468,,38.6062736511,24.6829986572,104.946647644,0.00169900001492,1.0,0.0,0.0,0.0,1.0,0.0,0.0,0.0,1.0,6.64634132385,-2.80487799644,4.14634132385,1.0,0.0,0.0,0.0,1.0,0.0,0.0,0.0,1.0,0.0909796630859,-1.96803376465,11.04684646,1.0,0.0,0.0,0.0,1.0,0.0,0.0,0.0,1.0
1464076287763710290,332,1464076287730899441,,37.9417304993,24.0422115326,104.524993896,0.00145600002725,1.0,0.0,0.0,0.0,1.0,0.0,0.0,0.0,1.0,7.50000047684,-2.80487799644,5.36585378647,1.0,0.0,0.0,0.0,1.0,0.0,0.0,0.0,1.0,0.067037651051,-1.8626888916,10.9558667969,1.0,0.0,0.0,0.0,1.0,0.0,0.0,0.0,1.0
1464076287764137998,333,1464076287753098913,,37.2104187012,23.4305839539,104.156066895,0.00213399995118,1.0,0.0,0.0,0.0,1.0,0.0,0.0,0.0,1.0,7.07317113876,-2.37804889679,6.70731735229,1.0,0.0,0.0,0.0,1.0,0.0,0.0,0.0,1.0,0.229843359375,-1.56101948242,11.1569797363,1.0,0.0,0.0,0.0,1.0,0.0,0.0,0.0,1.0
1464076287778401084,334,1464076287774164637,,36.5106506348,22.8615627289,103.861946106,0.001511999988,1.0,0.0,0.0,0.0,1.0,0.0,0.0,0.0,1.0,5.67073154449,-0.670731723309,7.50000047684,1.0,0.0,0.0,0.0,1.0,0.0,0.0,0.0,1.0,0.0957680664062,-1.65199914551,10.9845972168,1.0,0.0,0.0,0.0,1.0,0.0,0.0,0.0,1.0
1464076287798968060,335,1464076287796037339,,35.8348731995,22.2893123627,103.604049683,0.00240699993446,1.0,0.0,0.0,0.0,1.0,0.0,0.0,0.0,1.0,4.08536577225,-0.670731723309,7.56097555161,1.0,0.0,0.0,0.0,1.0,0.0,0.0,0.0,1.0,0.0814028564453,-1.52271225586,10.7403886475,1.0,0.0,0.0,0.0,1.0,0.0,0.0,0.0,1.0
1464076287822138571,336,1464076287818957173,,35.1625556946,21.6677589417,103.334449768,0.00183600001037,1.0,0.0,0.0,0.0,1.0,0.0,0.0,0.0,1.0,1.46341466904,-0.914634168148,5.54878091812,1.0,0.0,0.0,0.0,1.0,0.0,0.0,0.0,1.0,0.0574608398438,-1.53707746582,10.6350437744,1.0,0.0,0.0,0.0,1.0,0.0,0.0,0.0,1.0
1464076287844646844,337,1464076287840647584,,34.5082550049,21.0028839111,103.02696991,0.00167400005739,1.0,0.0,0.0,0.0,1.0,0.0,0.0,0.0,1.0,-0.426829278469,-2.07317066193,3.04878044128,1.0,0.0,0.0,0.0,1.0,0.0,0.0,0.0,1.0,0.15801730957,-1.38863696289,10.4961800781,1.0,0.0,0.0,0.0,1.0,0.0,0.0,0.0,1.0
1464076287868819175,338,1464076287861073102,,33.8846702576,20.3059310913,102.687187195,0.0033650000114,1.0,0.0,0.0,0.0,1.0,0.0,0.0,0.0,1.0,-1.8292683363,-1.46341466904,0.975609779358,1.0,0.0,0.0,0.0,1.0,0.0,0.0,0.0,1.0,0.134075302102,-1.41257897949,10.4291424316,1.0,0.0,0.0,0.0,1.0,0.0,0.0,0.0,1.0
1464076287923706476,339,1464076287882404920,,33.2887306213,19.5611686707,102.308158875,0.00127899996005,1.0,0.0,0.0,0.0,1.0,0.0,0.0,0.0,1.0,-3.17073178291,-1.40243899822,-1.8902438879,1.0,0.0,0.0,0.0,1.0,0.0,0.0,0.0,1.0,0.263362164351,-1.45088620605,10.3621047852,1.0,0.0,0.0,0.0,1.0,0.0,0.0,0.0,1.0
1464076287923766111,340,1464076287903596426,,32.7230644226,18.7928142548,101.892379761,0.0012300000526,1.0,0.0,0.0,0.0,1.0,0.0,0.0,0.0,1.0,-3.35365867615,-0.365853667259,-3.90243911743,1.0,0.0,0.0,0.0,1.0,0.0,0.0,0.0,1.0,0.411802685547,-1.70945998535,10.3285859619,1.0,0.0,0.0,0.0,1.0,0.0,0.0,0.0,1.0
1464076288060455536,341,1464076287924621213,,32.1936416626,18.0317878723,101.471702576,0.00121899996884,1.0,0.0,0.0,0.0,1.0,0.0,0.0,0.0,1.0,-3.59756112099,1.64634156227,-4.69512224197,1.0,0.0,0.0,0.0,1.0,0.0,0.0,0.0,1.0,0.325611425781,-1.54186586914,10.2711251221,1.0,0.0,0.0,0.0,1.0,0.0,0.0,0.0,1.0
1464076288060728088,342,1464076287945487615,,31.7144622803,17.2819728851,101.064147949,0.00137600000016,1.0,0.0,0.0,0.0,1.0,0.0,0.0,0.0,1.0,-4.20731735229,2.5,-5.30487823486,1.0,0.0,0.0,0.0,1.0,0.0,0.0,0.0,1.0,0.363918652344,-1.54665427246,10.5057568848,1.0,0.0,0.0,0.0,1.0,0.0,0.0,0.0,1.0
1464076288061099233,343,1464076287965940998,,31.2827301025,16.5650863647,100.666442871,0.00125199998729,1.0,0.0,0.0,0.0,1.0,0.0,0.0,0.0,1.0,-3.65853667259,3.29268312454,-6.21951246262,1.0,0.0,0.0,0.0,1.0,0.0,0.0,0.0,1.0,0.067037651051,-1.51313544922,10.3716815918,1.0,0.0,0.0,0.0,1.0,0.0,0.0,0.0,1.0
1464076288061152357,344,1464076287986788338,,30.8342781067,15.848572731,100.239532471,0.0012450000504,1.0,0.0,0.0,0.0,1.0,0.0,0.0,0.0,1.0,-3.47560977936,2.74390244484,-7.56097555161,1.0,0.0,0.0,0.0,1.0,0.0,0.0,0.0,1.0,0.330399829102,-1.43652099609,10.1131078125,1.0,0.0,0.0,0.0,1.0,0.0,0.0,0.0,1.0
1464076288061465429,345,1464076288008668227,,30.3834438324,15.1185112,99.7977294922,0.0012150000548,1.0,0.0,0.0,0.0,1.0,0.0,0.0,0.0,1.0,-3.35365867615,2.5,-8.17073154449,1.0,0.0,0.0,0.0,1.0,0.0,0.0,0.0,1.0,0.162805712891,-1.4604630127,9.97424411621,1.0,0.0,0.0,0.0,1.0,0.0,0.0,0.0,1.0
1464076288061750272,346,1464076288029024579,,29.9394207001,14.4260063171,99.3534469604,0.00138200004585,1.0,0.0,0.0,0.0,1.0,0.0,0.0,0.0,1.0,-2.80487799644,0.18292683363,-8.84146404266,1.0,0.0,0.0,0.0,1.0,0.0,0.0,0.0,1.0,0.119710083008,-1.40300217285,9.85932243652,1.0,0.0,0.0,0.0,1.0,0.0,0.0,0.0,1.0
1464076288179652665,347,1464076288049878481,,29.455663681,13.7511997223,98.9120864868,0.00147300004028,1.0,0.0,0.0,0.0,1.0,0.0,0.0,0.0,1.0,-1.76829278469,-1.95121955872,-7.13414621353,1.0,0.0,0.0,0.0,1.0,0.0,0.0,0.0,1.0,0.162805712891,-1.58496149902,9.82101520996,1.0,0.0,0.0,0.0,1.0,0.0,0.0,0.0,1.0
1464076288180056674,348,1464076288070498843,,28.932554245,13.1332759857,98.5176239014,0.001304000034,1.0,0.0,0.0,0.0,1.0,0.0,0.0,0.0,1.0,-0.12195122242,-4.57317066193,-4.57317066193,1.0,0.0,0.0,0.0,1.0,0.0,0.0,0.0,1.0,0.124498486328,-1.53707746582,10.1035310059,1.0,0.0,0.0,0.0,1.0,0.0,0.0,0.0,1.0
1464076288180317663,349,1464076288091696286,,28.3310546875,12.5769405365,98.1952819824,0.00121000001673,1.0,0.0,0.0,0.0,1.0,0.0,0.0,0.0,1.0,1.2195122242,-4.08536577225,-0.18292683363,1.0,0.0,0.0,0.0,1.0,0.0,0.0,0.0,1.0,0.445321508789,-1.69988317871,10.2136642822,1.0,0.0,0.0,0.0,1.0,0.0,0.0,0.0,1.0
1464076288188747640,350,1464076288112731594,,27.7401371002,12.1231355667,98.0060195923,0.00123699998949,1.0,0.0,0.0,0.0,1.0,0.0,0.0,0.0,1.0,2.19512200356,-2.31707310677,4.51219558716,1.0,0.0,0.0,0.0,1.0,0.0,0.0,0.0,1.0,0.407014282227,-1.80522805176,10.2471831055,1.0,0.0,0.0,0.0,1.0,0.0,0.0,0.0,1.0
1464076288189078316,351,1464076288134461692,,27.1429977417,11.7523384094,97.9419021606,0.00123499997426,1.0,0.0,0.0,0.0,1.0,0.0,0.0,0.0,1.0,1.95121955872,-0.792682945728,7.92682981491,1.0,0.0,0.0,0.0,1.0,0.0,0.0,0.0,1.0,0.373495458984,-1.4604630127,10.4099888184,1.0,0.0,0.0,0.0,1.0,0.0,0.0,0.0,1.0
1464076288189352534,352,1464076288155517313,,26.578125,11.4137821198,97.9349212646,0.00125400000252,1.0,0.0,0.0,0.0,1.0,0.0,0.0,0.0,1.0,0.243902444839,-3.04878044128,7.25609779358,1.0,0.0,0.0,0.0,1.0,0.0,0.0,0.0,1.0,0.253785375977,-1.18273554705,10.1131078125,1.0,0.0,0.0,0.0,1.0,0.0,0.0,0.0,1.0
1464076288232573304,353,1464076288176786162,,25.9655056,11.0206794739,97.8637390137,0.00127000000793,1.0,0.0,0.0,0.0,1.0,0.0,0.0,0.0,1.0,-2.74390244484,-6.40243911743,3.71951246262,1.0,0.0,0.0,0.0,1.0,0.0,0.0,0.0,1.0,0.143652099609,-0.967257470703,10.0125513428,1.0,0.0,0.0,0.0,1.0,0.0,0.0,0.0,1.0
1464076288233992988,354,1464076288198188761,,25.3097381592,10.5534725189,97.7255706787,0.00127400003839,1.0,0.0,0.0,0.0,1.0,0.0,0.0,0.0,1.0,-4.87804889679,-6.7682929039,1.34146344662,1.0,0.0,0.0,0.0,1.0,0.0,0.0,0.0,1.0,0.584185168546,-1.09175595703,9.82101520996,1.0,0.0,0.0,0.0,1.0,0.0,0.0,0.0,1.0
1464076288234044394,355,1464076288218695425,,24.6727790833,10.0006389618,97.527557373,0.00119700003415,1.0,0.0,0.0,0.0,1.0,0.0,0.0,0.0,1.0,-6.64634132385,-5.0,-1.64634156227,1.0,0.0,0.0,0.0,1.0,0.0,0.0,0.0,1.0,0.890643017578,-1.30723410645,10.0077629395,1.0,0.0,0.0,0.0,1.0,0.0,0.0,0.0,1.0
1464076288274815170,356,1464076288239410734,,24.1127948761,9.44063472748,97.3348464966,0.00133300002199,1.0,0.0,0.0,0.0,1.0,0.0,0.0,0.0,1.0,-7.25609779358,2.13414645195,-1.46341466904,1.0,0.0,0.0,0.0,1.0,0.0,0.0,0.0,1.0,1.13963999023,-1.41736738281,9.82101520996,1.0,0.0,0.0,0.0,1.0,0.0,0.0,0.0,1.0
1464076288279536563,357,1464076288259934741,,23.717092514,8.90426063538,97.1749801636,0.00172900001053,1.0,0.0,0.0,0.0,1.0,0.0,0.0,0.0,1.0,-7.07317113876,8.65853691101,-2.01219511032,1.0,0.0,0.0,0.0,1.0,0.0,0.0,0.0,1.0,0.885854614258,-1.38863696289,9.99339772949,1.0,0.0,0.0,0.0,1.0,0.0,0.0,0.0,1.0
1464076288329822627,358,1464076288280775675,,23.4330539703,8.36480236053,97.0024032593,0.00121300003957,1.0,0.0,0.0,0.0,1.0,0.0,0.0,0.0,1.0,-7.01219511032,10.7317075729,-3.35365867615,1.0,0.0,0.0,0.0,1.0,0.0,0.0,0.0,1.0,0.790086547852,-1.42694418945,10.1178962158,1.0,0.0,0.0,0.0,1.0,0.0,0.0,0.0,1.0
1464076288329867835,359,1464076288302062701,,23.1891670227,7.81952381134,96.7914199829,0.00120399997104,1.0,0.0,0.0,0.0,1.0,0.0,0.0,0.0,1.0,-6.58536624908,11.8902444839,-5.91463422775,1.0,0.0,0.0,0.0,1.0,0.0,0.0,0.0,1.0,0.952892260742,-1.64721074219,9.97424411621,1.0,0.0,0.0,0.0,1.0,0.0,0.0,0.0,1.0
1464076288380540876,360,1464076288322986916,,22.9728145599,7.27868366241,96.5351409912,0.00120599998627,1.0,0.0,0.0,0.0,1.0,0.0,0.0,0.0,1.0,-5.48780488968,11.2804880142,-8.35365867615,1.0,0.0,0.0,0.0,1.0,0.0,0.0,0.0,1.0,0.77093293457,-1.54186586914,10.1035310059,1.0,0.0,0.0,0.0,1.0,0.0,0.0,0.0,1.0
1464076288383759513,361,1464076288344051338,,22.7490634918,6.75116014481,96.2321624756,0.00116999994498,1.0,0.0,0.0,0.0,1.0,0.0,0.0,0.0,1.0,-4.75609779358,11.4024391174,-9.02439117432,1.0,0.0,0.0,0.0,1.0,0.0,0.0,0.0,1.0,0.861912597656,-1.76213242187,10.285490332,1.0,0.0,0.0,0.0,1.0,0.0,0.0,0.0,1.0
1464076288460399151,362,1464076288365467531,,22.5310249329,6.24299573898,95.9311447144,0.00115000002552,1.0,0.0,0.0,0.0,1.0,0.0,0.0,0.0,1.0,-3.47560977936,10.8536586761,-8.96341514587,1.0,0.0,0.0,0.0,1.0,0.0,0.0,0.0,1.0,0.488417138672,-1.47003981934,10.2902787354,1.0,0.0,0.0,0.0,1.0,0.0,0.0,0.0,1.0
1464076288463247738,363,1464076288386984192,,22.3004150391,5.75997543335,95.6150894165,0.00127799995244,1.0,0.0,0.0,0.0,1.0,0.0,0.0,0.0,1.0,-2.62195134163,9.02439117432,-9.45121955872,1.0,0.0,0.0,0.0,1.0,0.0,0.0,0.0,1.0,0.531512805087,-1.67594116211,10.0317049561,1.0,0.0,0.0,0.0,1.0,0.0,0.0,0.0,1.0
1464076288463305394,364,1464076288407591845,,22.0454998016,5.32806539536,95.320930481,0.0013569999719,1.0,0.0,0.0,0.0,1.0,0.0,0.0,0.0,1.0,-1.52439022064,8.17073154449,-8.59756088257,1.0,0.0,0.0,0.0,1.0,0.0,0.0,0.0,1.0,0.679953271484,-1.66636435547,10.0508585693,1.0,0.0,0.0,0.0,1.0,0.0,0.0,0.0,1.0
1464076288488429545,365,1464076288428008665,,21.7742767334,4.93805742264,95.0459518433,0.00134299998172,1.0,0.0,0.0,0.0,1.0,0.0,0.0,0.0,1.0,0.12195122242,7.13414621353,-7.86585378647,1.0,0.0,0.0,0.0,1.0,0.0,0.0,0.0,1.0,0.612915625,-1.61369191895,10.1178962158,1.0,0.0,0.0,0.0,1.0,0.0,0.0,0.0,1.0
1464076288488489805,366,1464076288449261890,,21.4740943909,4.5766711235,94.7857208252,0.00135300005786,1.0,0.0,0.0,0.0,1.0,0.0,0.0,0.0,1.0,0.975609779358,6.82926845551,-6.34146356583,1.0,0.0,0.0,0.0,1.0,0.0,0.0,0.0,1.0,0.699106884766,-1.5562310791,10.0508585693,1.0,0.0,0.0,0.0,1.0,0.0,0.0,0.0,1.0
1464076288519033109,367,1464076288470919748,,21.1686973572,4.25334072113,94.5593414307,0.00174500001594,1.0,0.0,0.0,0.0,1.0,0.0,0.0,0.0,1.0,1.8902438879,7.68292665482,-4.63414621353,1.0,0.0,0.0,0.0,1.0,0.0,0.0,0.0,1.0,0.814028564453,-1.62805712891,10.1370498291,1.0,0.0,0.0,0.0,1.0,0.0,0.0,0.0,1.0
1464076288519093734,368,1464076288491272454,,20.9031162262,3.98481440544,94.3884353638,0.00129000004381,1.0,0.0,0.0,0.0,1.0,0.0,0.0,0.0,1.0,2.98780488968,8.96341514587,-3.53658556938,1.0,0.0,0.0,0.0,1.0,0.0,0.0,0.0,1.0,0.790086547852,-1.58974990234,10.2088758789,1.0,0.0,0.0,0.0,1.0,0.0,0.0,0.0,1.0
1464076288560425029,369,1464076288512898438,,20.6469936371,3.73602962494,94.2251586914,0.00149099994451,1.0,0.0,0.0,0.0,1.0,0.0,0.0,0.0,1.0,3.71951246262,8.59756088257,-3.04878044128,1.0,0.0,0.0,0.0,1.0,0.0,0.0,0.0,1.0,0.502782348633,-1.61369191895,10.1418382324,1.0,0.0,0.0,0.0,1.0,0.0,0.0,0.0,1.0
1464076288560627424,370,1464076288534660306,,20.3699989319,3.50303173065,94.0556640625,0.00142700003926,1.0,0.0,0.0,0.0,1.0,0.0,0.0,0.0,1.0,3.96341490746,7.37804937363,-4.08536577225,1.0,0.0,0.0,0.0,1.0,0.0,0.0,0.0,1.0,0.555454785156,-1.45567460937,9.92636008301,1.0,0.0,0.0,0.0,1.0,0.0,0.0,0.0,1.0
1464076288597194045,371,1464076288556118061,,20.0795021057,3.27345895767,93.8723526001,0.00147200003266,1.0,0.0,0.0,0.0,1.0,0.0,0.0,0.0,1.0,3.59756112099,5.91463422775,-5.18292713165,1.0,0.0,0.0,0.0,1.0,0.0,0.0,0.0,1.0,0.569819995117,-1.39821376953,9.97424411621,1.0,0.0,0.0,0.0,1.0,0.0,0.0,0.0,1.0
1464076288599174977,372,1464076288577097432,,19.7833614349,3.04770970345,93.6913604736,0.00137199996971,1.0,0.0,0.0,0.0,1.0,0.0,0.0,0.0,1.0,3.23170733452,5.91463422775,-4.39024400711,1.0,0.0,0.0,0.0,1.0,0.0,0.0,0.0,1.0,0.588973571866,-1.5562310791,9.97903251953,1.0,0.0,0.0,0.0,1.0,0.0,0.0,0.0,1.0
1464076288635078996,373,1464076288599056540,,19.4952373505,2.81803131104,93.5391311646,0.00135499995667,1.0,0.0,0.0,0.0,1.0,0.0,0.0,0.0,1.0,2.07317066193,6.7682929039,-2.37804889679,1.0,0.0,0.0,0.0,1.0,0.0,0.0,0.0,1.0,0.598550451572,-1.41736738281,10.0317049561,1.0,0.0,0.0,0.0,1.0,0.0,0.0,0.0,1.0
1464076288636073732,374,1464076288619194819,,19.2210388184,2.59502792358,93.423034668,0.00152299995534,1.0,0.0,0.0,0.0,1.0,0.0,0.0,0.0,1.0,1.2195122242,6.15853643417,-1.40243899822,1.0,0.0,0.0,0.0,1.0,0.0,0.0,0.0,1.0,0.598550451572,-1.52271225586,10.1370498291,1.0,0.0,0.0,0.0,1.0,0.0,0.0,0.0,1.0
1464076288683129856,375,1464076288640595804,,18.9431304932,2.34783530235,93.3324432373,0.00139999995008,1.0,0.0,0.0,0.0,1.0,0.0,0.0,0.0,1.0,-0.304878056049,5.97560977936,-0.12195122242,1.0,0.0,0.0,0.0,1.0,0.0,0.0,0.0,1.0,0.588973571866,-1.54665427246,10.0269165527,1.0,0.0,0.0,0.0,1.0,0.0,0.0,0.0,1.0
1464076288683171731,376,1464076288662212517,,18.6607990265,2.09939932823,93.26953125,0.0013119999785,1.0,0.0,0.0,0.0,1.0,0.0,0.0,0.0,1.0,-0.731707334518,5.60975599289,1.2195122242,1.0,0.0,0.0,0.0,1.0,0.0,0.0,0.0,1.0,0.598550451572,-1.4604630127,10.1418382324,1.0,0.0,0.0,0.0,1.0,0.0,0.0,0.0,1.0
1464076288725640003,377,1464076288684220895,,18.3708019257,1.84186792374,93.2431030273,0.00150000001304,1.0,0.0,0.0,0.0,1.0,0.0,0.0,0.0,1.0,-1.95121955872,5.30487823486,2.13414645195,1.0,0.0,0.0,0.0,1.0,0.0,0.0,0.0,1.0,0.60812722168,-1.54665427246,10.2423947021,1.0,0.0,0.0,0.0,1.0,0.0,0.0,0.0,1.0
1464076288725705575,378,1464076288705441463,,18.0835571289,1.58576321602,93.2394790649,0.00129000004381,1.0,0.0,0.0,0.0,1.0,0.0,0.0,0.0,1.0,-2.98780488968,4.81707286835,3.23170733452,1.0,0.0,0.0,0.0,1.0,0.0,0.0,0.0,1.0,0.545877978516,-1.31202250977,10.0795889893,1.0,0.0,0.0,0.0,1.0,0.0,0.0,0.0,1.0
1464076288756414868,379,1464076288726777916,,17.7844734192,1.31248259544,93.2510757446,0.00132399995346,1.0,0.0,0.0,0.0,1.0,0.0,0.0,0.0,1.0,-3.41463422775,3.96341490746,3.10975623131,1.0,0.0,0.0,0.0,1.0,0.0,0.0,0.0,1.0,0.584185168546,-1.52271225586,10.0939541992,1.0,0.0,0.0,0.0,1.0,0.0,0.0,0.0,1.0
1464076288756477576,380,1464076288747311768,,17.479675293,1.04682576656,93.2672576904,0.0014009999577,1.0,0.0,0.0,0.0,1.0,0.0,0.0,0.0,1.0,-4.20731735229,3.23170733452,3.59756112099,1.0,0.0,0.0,0.0,1.0,0.0,0.0,0.0,1.0,0.502782348633,-1.4604630127,10.0029745361,1.0,0.0,0.0,0.0,1.0,0.0,0.0,0.0,1.0
1464076288782735214,381,1464076288768765773,,17.1596908569,0.763427197933,93.2976226807,0.0013490000274,1.0,0.0,0.0,0.0,1.0,0.0,0.0,0.0,1.0,-5.30487823486,1.8292683363,3.90243911743,1.0,0.0,0.0,0.0,1.0,0.0,0.0,0.0,1.0,0.545877978516,-1.57538469238,10.1274730225,1.0,0.0,0.0,0.0,1.0,0.0,0.0,0.0,1.0
1464076288799272566,382,1464076288789291551,,16.8309020996,0.479043364525,93.3346862793,0.00151099998038,1.0,0.0,0.0,0.0,1.0,0.0,0.0,0.0,1.0,-5.79268312454,1.2195122242,4.20731735229,1.0,0.0,0.0,0.0,1.0,0.0,0.0,0.0,1.0,0.646434448242,-1.4604630127,10.2184526855,1.0,0.0,0.0,0.0,1.0,0.0,0.0,0.0,1.0
1464076288818471577,383,1464076288809888371,,16.5019626617,0.189177826047,93.3615875244,0.0016680000117,1.0,0.0,0.0,0.0,1.0,0.0,0.0,0.0,1.0,-5.67073154449,-0.304878056049,3.23170733452,1.0,0.0,0.0,0.0,1.0,0.0,0.0,0.0,1.0,0.502782348633,-1.44609780273,10.1418382324,1.0,0.0,0.0,0.0,1.0,0.0,0.0,0.0,1.0
1464076288858066887,384,1464076288831574771,,16.1243076324,-0.115492776036,93.3574905396,0.00132999999914,1.0,0.0,0.0,0.0,1.0,0.0,0.0,0.0,1.0,-5.73170757294,-0.426829278469,1.64634156227,1.0,0.0,0.0,0.0,1.0,0.0,0.0,0.0,1.0,0.775721337891,-1.5083470459,10.2567599121,1.0,0.0,0.0,0.0,1.0,0.0,0.0,0.0,1.0
1464076288864034736,385,1464076288852670808,,15.7707633972,-0.407381206751,93.3433761597,0.00124600005802,1.0,0.0,0.0,0.0,1.0,0.0,0.0,0.0,1.0,-5.30487823486,1.15853655338,1.52439022064,1.0,0.0,0.0,0.0,1.0,0.0,0.0,0.0,1.0,0.651222851562,-1.60890351563,10.1897222656,1.0,0.0,0.0,0.0,1.0,0.0,0.0,0.0,1.0
1464076288883434528,386,1464076288873118097,,15.4523706436,-0.680559575558,93.3159408569,0.00128900003619,1.0,0.0,0.0,0.0,1.0,0.0,0.0,0.0,1.0,-4.75609779358,2.19512200356,0.548780500889,1.0,0.0,0.0,0.0,1.0,0.0,0.0,0.0,1.0,0.632069238281,-1.59932670898,10.1753570557,1.0,0.0,0.0,0.0,1.0,0.0,0.0,0.0,1.0
1464076288909263000,387,1464076288895004809,,15.1553630829,-0.966418981552,93.2674713135,0.00137299997732,1.0,0.0,0.0,0.0,1.0,0.0,0.0,0.0,1.0,-4.57317066193,2.68292689323,-0.975609779358,1.0,0.0,0.0,0.0,1.0,0.0,0.0,0.0,1.0,0.598550451572,-1.4604630127,10.1370498291,1.0,0.0,0.0,0.0,1.0,0.0,0.0,0.0,1.0
1464076288926875609,388,1464076288915579181,,14.8925275803,-1.22628343105,93.1843643188,0.00144499994349,1.0,0.0,0.0,0.0,1.0,0.0,0.0,0.0,1.0,-3.65853667259,2.5,-2.37804889679,1.0,0.0,0.0,0.0,1.0,0.0,0.0,0.0,1.0,0.493205541992,-1.5562310791,10.1705686523,1.0,0.0,0.0,0.0,1.0,0.0,0.0,0.0,1.0
1464076288949982682,389,1464076288937302873,,14.6179895401,-1.48355472088,93.0742645264,0.00143900001422,1.0,0.0,0.0,0.0,1.0,0.0,0.0,0.0,1.0,-3.23170733452,2.68292689323,-3.84146332741,1.0,0.0,0.0,0.0,1.0,0.0,0.0,0.0,1.0,0.593762048251,-1.5322890625,10.1131078125,1.0,0.0,0.0,0.0,1.0,0.0,0.0,0.0,1.0
1464076288966790398,390,1464076288959043127,,14.3605928421,-1.73382103443,92.9425506592,0.00139099999797,1.0,0.0,0.0,0.0,1.0,0.0,0.0,0.0,1.0,-2.19512200356,3.47560977936,-4.2682929039,1.0,0.0,0.0,0.0,1.0,0.0,0.0,0.0,1.0,0.521935925381,-1.63284553223,10.2328178955,1.0,0.0,0.0,0.0,1.0,0.0,0.0,0.0,1.0
1464076288988188465,391,1464076288979435051,,14.1373844147,-1.95102286339,92.8065032959,0.00165400002152,1.0,0.0,0.0,0.0,1.0,0.0,0.0,0.0,1.0,-1.46341466904,3.41463422775,-4.57317066193,1.0,0.0,0.0,0.0,1.0,0.0,0.0,0.0,1.0,0.45489831543,-1.6041151123,10.0700121826,1.0,0.0,0.0,0.0,1.0,0.0,0.0,0.0,1.0
1464076289002422281,392,1464076288999672601,,13.9338998795,-2.14610934258,92.6756439209,0.0016380000161,1.0,0.0,0.0,0.0,1.0,0.0,0.0,0.0,1.0,0.18292683363,4.32926845551,-4.08536577225,1.0,0.0,0.0,0.0,1.0,0.0,0.0,0.0,1.0,0.325611425781,-1.57059628906,10.1083194092,1.0,0.0,0.0,0.0,1.0,0.0,0.0,0.0,1.0
1464076289029769760,393,1464076289021299679,,13.727432251,-2.31590867043,92.5607757568,0.00128299999051,1.0,0.0,0.0,0.0,1.0,0.0,0.0,0.0,1.0,0.487804889679,4.14634132385,-3.10975623131,1.0,0.0,0.0,0.0,1.0,0.0,0.0,0.0,1.0,0.316034619141,-1.6041151123,10.3908352051,1.0,0.0,0.0,0.0,1.0,0.0,0.0,0.0,1.0
1464076289061501238,394,1464076289042354362,,13.5356864929,-2.45862078667,92.4618606567,0.0013269999763,1.0,0.0,0.0,0.0,1.0,0.0,0.0,0.0,1.0,0.670731723309,3.04878044128,-2.74390244484,1.0,0.0,0.0,0.0,1.0,0.0,0.0,0.0,1.0,0.301669427446,-1.41736738281,10.0221281494,1.0,0.0,0.0,0.0,1.0,0.0,0.0,0.0,1.0
1464076289110964595,395,1464076289062795974,,13.3270816803,-2.59338116646,92.3727798462,0.00127100001555,1.0,0.0,0.0,0.0,1.0,0.0,0.0,0.0,1.0,-0.0609756112099,2.01219511032,-3.04878044128,1.0,0.0,0.0,0.0,1.0,0.0,0.0,0.0,1.0,0.421379492187,-1.57059628906,10.2423947021,1.0,0.0,0.0,0.0,1.0,0.0,0.0,0.0,1.0
1464076289111230063,396,1464076289083477116,,13.0979175568,-2.73522472382,92.2901763916,0.00138399994466,1.0,0.0,0.0,0.0,1.0,0.0,0.0,0.0,1.0,-0.18292683363,1.2804877758,-2.31707310677,1.0,0.0,0.0,0.0,1.0,0.0,0.0,0.0,1.0,0.526724328702,-1.58974990234,10.0221281494,1.0,0.0,0.0,0.0,1.0,0.0,0.0,0.0,1.0
1464076289138611187,397,1464076289104095030,,12.8687105179,-2.8695640564,92.2270736694,0.00125900004059,1.0,0.0,0.0,0.0,1.0,0.0,0.0,0.0,1.0,-1.2195122242,1.15853655338,-1.64634156227,1.0,0.0,0.0,0.0,1.0,0.0,0.0,0.0,1.0,0.421379492187,-1.38384855957,10.0748005859,1.0,0.0,0.0,0.0,1.0,0.0,0.0,0.0,1.0
1464076289138695926,398,1464076289125751951,,12.6161460876,-3.03337621689,92.1656112671,0.00145500001963,1.0,0.0,0.0,0.0,1.0,0.0,0.0,0.0,1.0,-2.31707310677,1.03658533096,-1.09756100178,1.0,0.0,0.0,0.0,1.0,0.0,0.0,0.0,1.0,0.339976635742,-1.40300217285,10.1562034424,1.0,0.0,0.0,0.0,1.0,0.0,0.0,0.0,1.0
1464076289177979571,399,1464076289146907259,,12.388297081,-3.20040392876,92.1296310425,0.00133500003722,1.0,0.0,0.0,0.0,1.0,0.0,0.0,0.0,1.0,-3.23170733452,1.09756100178,-0.731707334518,1.0,0.0,0.0,0.0,1.0,0.0,0.0,0.0,1.0,0.339976635742,-1.36469494629,9.98860932617,1.0,0.0,0.0,0.0,1.0,0.0,0.0,0.0,1.0
1464076289178051602,400,1464076289168414440,,12.1526050568,-3.38312411308,92.1047286987,0.00144200003706,1.0,0.0,0.0,0.0,1.0,0.0,0.0,0.0,1.0,-4.57317066193,0.670731723309,-0.0609756112099,1.0,0.0,0.0,0.0,1.0,0.0,0.0,0.0,1.0,0.325611425781,-1.32159931641,9.91678327637,1.0,0.0,0.0,0.0,1.0,0.0,0.0,0.0,1.0
1464076289201852840,401,1464076289189459332,,11.9282417297,-3.59246683121,92.0861740112,0.00166900001932,1.0,0.0,0.0,0.0,1.0,0.0,0.0,0.0,1.0,-5.73170757294,-0.0609756112099,0.487804889679,1.0,0.0,0.0,0.0,1.0,0.0,0.0,0.0,1.0,0.282515795898,-1.32638771973,10.0795889893,1.0,0.0,0.0,0.0,1.0,0.0,0.0,0.0,1.0
1464076289223413303,402,1464076289210947868,,11.685585022,-3.81981015205,92.0696868896,0.00130999996327,1.0,0.0,0.0,0.0,1.0,0.0,0.0,0.0,1.0,-5.73170757294,-0.18292683363,0.243902444839,1.0,0.0,0.0,0.0,1.0,0.0,0.0,0.0,1.0,0.354341845703,-1.36469494629,10.2232410889,1.0,0.0,0.0,0.0,1.0,0.0,0.0,0.0,1.0
1464076289259675967,403,1464076289232487133,,11.4454107285,-4.04868173599,92.0562973022,0.00127999996766,1.0,0.0,0.0,0.0,1.0,0.0,0.0,0.0,1.0,-6.40243911743,0.792682945728,0.18292683363,1.0,0.0,0.0,0.0,1.0,0.0,0.0,0.0,1.0,0.330399829102,-1.49398183594,9.87368764648,1.0,0.0,0.0,0.0,1.0,0.0,0.0,0.0,1.0
1464076289308950157,404,1464076289253093328,,11.231593132,-4.27011156082,92.0422134399,0.00144200003706,1.0,0.0,0.0,0.0,1.0,0.0,0.0,0.0,1.0,-6.09756088257,0.853658556938,0.243902444839,1.0,0.0,0.0,0.0,1.0,0.0,0.0,0.0,1.0,0.344765039063,-1.53707746582,10.2328178955,1.0,0.0,0.0,0.0,1.0,0.0,0.0,0.0,1.0
1464076289309202396,405,1464076289273966501,,11.0193853378,-4.49058485031,92.030456543,0.00131500000134,1.0,0.0,0.0,0.0,1.0,0.0,0.0,0.0,1.0,-5.73170757294,0.853658556938,0.487804889679,1.0,0.0,0.0,0.0,1.0,0.0,0.0,0.0,1.0,0.368707055664,-1.49877023926,10.0556469727,1.0,0.0,0.0,0.0,1.0,0.0,0.0,0.0,1.0
1464076289309345573,406,1464076289295299048,,10.8157587051,-4.69662666321,92.0215301514,0.00121000001673,1.0,0.0,0.0,0.0,1.0,0.0,0.0,0.0,1.0,-5.30487823486,1.52439022064,0.853658556938,1.0,0.0,0.0,0.0,1.0,0.0,0.0,0.0,1.0,0.344765039063,-1.49877023926,10.2519715088,1.0,0.0,0.0,0.0,1.0,0.0,0.0,0.0,1.0
1464076289329775258,407,1464076289316449512,,10.6416378021,-4.88226222992,92.0121002197,0.00120399997104,1.0,0.0,0.0,0.0,1.0,0.0,0.0,0.0,1.0,-4.20731735229,1.52439022064,0.670731723309,1.0,0.0,0.0,0.0,1.0,0.0,0.0,0.0,1.0,0.31124621582,-1.54186586914,10.4099888184,1.0,0.0,0.0,0.0,1.0,0.0,0.0,0.0,1.0
1464076289362839700,408,1464076289337279977,,10.463973999,-5.04535865784,91.9953460693,0.00122600002214,1.0,0.0,0.0,0.0,1.0,0.0,0.0,0.0,1.0,-3.59756112099,0.792682945728,-0.18292683363,1.0,0.0,0.0,0.0,1.0,0.0,0.0,0.0,1.0,0.248996972656,-1.61848032227,10.3812583984,1.0,0.0,0.0,0.0,1.0,0.0,0.0,0.0,1.0
1464076289367948489,409,1464076289358631795,,10.2658872604,-5.19044733047,91.9718399048,0.00125199998729,1.0,0.0,0.0,0.0,1.0,0.0,0.0,0.0,1.0,-1.8902438879,-0.426829278469,-0.548780500889,1.0,0.0,0.0,0.0,1.0,0.0,0.0,0.0,1.0,0.359130249023,-1.61369191895,10.1226846191,1.0,0.0,0.0,0.0,1.0,0.0,0.0,0.0,1.0
1464076289409680669,410,1464076289380078196,,10.044462204,-5.31322908401,91.9416656494,0.00138699996751,1.0,0.0,0.0,0.0,1.0,0.0,0.0,0.0,1.0,-0.609756112099,0.0,-0.731707334518,1.0,0.0,0.0,0.0,1.0,0.0,0.0,0.0,1.0,0.296881024126,-1.64242233887,10.2088758789,1.0,0.0,0.0,0.0,1.0,0.0,0.0,0.0,1.0
1464076289411463945,411,1464076289400942515,,9.84530830383,-5.39371442795,91.9227523804,0.00112599995919,1.0,0.0,0.0,0.0,1.0,0.0,0.0,0.0,1.0,0.792682945728,0.18292683363,0.243902444839,1.0,0.0,0.0,0.0,1.0,0.0,0.0,0.0,1.0,0.383072265625,-1.56101948242,10.2280294922,1.0,0.0,0.0,0.0,1.0,0.0,0.0,0.0,1.0
1464076289455794607,412,1464076289422367874,,9.66011428833,-5.4442782402,91.9181518555,0.0011930000037,1.0,0.0,0.0,0.0,1.0,0.0,0.0,0.0,1.0,1.15853655338,1.76829278469,0.487804889679,1.0,0.0,0.0,0.0,1.0,0.0,0.0,0.0,1.0,0.545877978516,-1.6041151123,10.2328178955,1.0,0.0,0.0,0.0,1.0,0.0,0.0,0.0,1.0
1464076289456163513,413,1464076289444117555,,9.50409126282,-5.48777627945,91.9117660522,0.00642100023106,1.0,0.0,0.0,0.0,1.0,0.0,0.0,0.0,1.0,1.76829278469,1.8902438879,0.12195122242,1.0,0.0,0.0,0.0,1.0,0.0,0.0,0.0,1.0,0.402225878906,-1.53707746582,10.285490332,1.0,0.0,0.0,0.0,1.0,0.0,0.0,0.0,1.0
1464076289514527627,414,1464076289466031403,,9.35527610779,-5.52440547943,91.8937301636,0.00163199997041,1.0,0.0,0.0,0.0,1.0,0.0,0.0,0.0,1.0,1.95121955872,2.13414645195,0.0,1.0,0.0,0.0,0.0,1.0,0.0,0.0,0.0,1.0,0.287304199219,-1.4844050293,10.2423947021,1.0,0.0,0.0,0.0,1.0,0.0,0.0,0.0,1.0
1464076289518858188,415,1464076289487211398,,9.22190570831,-5.55901145935,91.8719024658,0.00122199999169,1.0,0.0,0.0,0.0,1.0,0.0,0.0,0.0,1.0,1.64634156227,2.92682933807,-0.12195122242,1.0,0.0,0.0,0.0,1.0,0.0,0.0,0.0,1.0,0.392649072266,-1.55144267578,10.1514150391,1.0,0.0,0.0,0.0,1.0,0.0,0.0,0.0,1.0
1464076289519386312,416,1464076289508552903,,9.09558677673,-5.5987405777,91.8448410034,0.00125099997967,1.0,0.0,0.0,0.0,1.0,0.0,0.0,0.0,1.0,1.15853655338,3.90243911743,-0.670731723309,1.0,0.0,0.0,0.0,1.0,0.0,0.0,0.0,1.0,0.339976635742,-1.5083470459,10.180145459,1.0,0.0,0.0,0.0,1.0,0.0,0.0,0.0,1.0
1464076289540376724,417,1464076289529142067,,9.00646686554,-5.64291334152,91.8068695068,0.00153600005433,1.0,0.0,0.0,0.0,1.0,0.0,0.0,0.0,1.0,0.975609779358,4.45121955872,-1.46341466904,1.0,0.0,0.0,0.0,1.0,0.0,0.0,0.0,1.0,0.215478149414,-1.40779057617,10.2423947021,1.0,0.0,0.0,0.0,1.0,0.0,0.0,0.0,1.0
1464076289553902469,418,1464076289550320187,,8.90525150299,-5.69838047028,91.7497329712,0.00181399995927,1.0,0.0,0.0,0.0,1.0,0.0,0.0,0.0,1.0,0.487804889679,3.65853667259,-1.8902438879,1.0,0.0,0.0,0.0,1.0,0.0,0.0,0.0,1.0,0.435744702148,-1.39821376953,10.2902787354,1.0,0.0,0.0,0.0,1.0,0.0,0.0,0.0,1.0
1464076289592651220,419,1464076289571303048,,8.80751609802,-5.7739944458,91.6852874756,0.00117699999828,1.0,0.0,0.0,0.0,1.0,0.0,0.0,0.0,1.0,0.304878056049,4.32926845551,-1.8902438879,1.0,0.0,0.0,0.0,1.0,0.0,0.0,0.0,1.0,0.445321508789,-1.62326872559,10.2711251221,1.0,0.0,0.0,0.0,1.0,0.0,0.0,0.0,1.0
1464076289609167321,420,1464076289592237158,,8.71965122223,-5.84196043015,91.6242141724,0.00115300004836,1.0,0.0,0.0,0.0,1.0,0.0,0.0,0.0,1.0,0.426829278469,4.87804889679,-1.58536589146,1.0,0.0,0.0,0.0,1.0,0.0,0.0,0.0,1.0,0.416591088867,-1.58496149902,10.2136642822,1.0,0.0,0.0,0.0,1.0,0.0,0.0,0.0,1.0
1464076289666947843,421,1464076289613341945,,8.65403461456,-5.90886688232,91.5781021118,0.00132299994584,1.0,0.0,0.0,0.0,1.0,0.0,0.0,0.0,1.0,0.670731723309,5.60975599289,-0.792682945728,1.0,0.0,0.0,0.0,1.0,0.0,0.0,0.0,1.0,0.263362164351,-1.6041151123,10.1514150391,1.0,0.0,0.0,0.0,1.0,0.0,0.0,0.0,1.0
1464076289668693203,422,1464076289634219337,,8.590716362,-5.96885585785,91.5365142822,0.00118599995039,1.0,0.0,0.0,0.0,1.0,0.0,0.0,0.0,1.0,1.52439022064,5.60975599289,-0.670731723309,1.0,0.0,0.0,0.0,1.0,0.0,0.0,0.0,1.0,0.301669427446,-1.52750065918,10.1609918457,1.0,0.0,0.0,0.0,1.0,0.0,0.0,0.0,1.0
1464076289669198619,423,1464076289654856365,,8.53015422821,-6.00865411758,91.4921569824,0.00126599997748,1.0,0.0,0.0,0.0,1.0,0.0,0.0,0.0,1.0,1.70731711388,3.96341490746,-1.2804877758,1.0,0.0,0.0,0.0,1.0,0.0,0.0,0.0,1.0,0.229843359375,-1.54665427246,10.0364933594,1.0,0.0,0.0,0.0,1.0,0.0,0.0,0.0,1.0
1464076289755292867,424,1464076289675674903,,8.44000530243,-6.04792976379,91.4399108887,0.00124300003517,1.0,0.0,0.0,0.0,1.0,0.0,0.0,0.0,1.0,1.46341466904,3.35365867615,-1.58536589146,1.0,0.0,0.0,0.0,1.0,0.0,0.0,0.0,1.0,0.378283862305,-1.62805712891,10.046070166,1.0,0.0,0.0,0.0,1.0,0.0,0.0,0.0,1.0
1464076289755651303,425,1464076289698668539,,8.3423538208,-6.09122180939,91.3809509277,0.00353999994695,1.0,0.0,0.0,0.0,1.0,0.0,0.0,0.0,1.0,1.70731711388,3.90243911743,-1.58536589146,1.0,0.0,0.0,0.0,1.0,0.0,0.0,0.0,1.0,0.282515795898,-1.56101948242,10.0556469727,1.0,0.0,0.0,0.0,1.0,0.0,0.0,0.0,1.0
1464076289757198018,426,1464076289718974370,,8.26306915283,-6.12218666077,91.3376464844,0.00242600007914,1.0,0.0,0.0,0.0,1.0,0.0,0.0,0.0,1.0,1.34146344662,3.53658556938,-1.2195122242,1.0,0.0,0.0,0.0,1.0,0.0,0.0,0.0,1.0,0.268150604204,-1.5562310791,10.0556469727,1.0,0.0,0.0,0.0,1.0,0.0,0.0,0.0,1.0
1464076289757681819,427,1464076289740262334,,8.17875957489,-6.16296815872,91.3100509644,0.00240499991924,1.0,0.0,0.0,0.0,1.0,0.0,0.0,0.0,1.0,0.426829278469,3.59756112099,-0.0609756112099,1.0,0.0,0.0,0.0,1.0,0.0,0.0,0.0,1.0,0.339976635742,-1.51792385254,10.1131078125,1.0,0.0,0.0,0.0,1.0,0.0,0.0,0.0,1.0
1464076290156101844,428,1464076289762578941,,8.09658050537,-6.21540927887,91.2985992432,0.00138100003824,1.0,0.0,0.0,0.0,1.0,0.0,0.0,0.0,1.0,0.12195122242,4.02439022064,0.853658556938,1.0,0.0,0.0,0.0,1.0,0.0,0.0,0.0,1.0,0.359130249023,-1.45088620605,10.1131078125,1.0,0.0,0.0,0.0,1.0,0.0,0.0,0.0,1.0
1464076290156175281,429,1464076289782390711,,8.04023170471,-6.27227306366,91.2999954224,0.00235099997371,1.0,0.0,0.0,0.0,1.0,0.0,0.0,0.0,1.0,0.12195122242,4.08536577225,1.03658533096,1.0,0.0,0.0,0.0,1.0,0.0,0.0,0.0,1.0,0.258573779297,-1.58496149902,10.2088758789,1.0,0.0,0.0,0.0,1.0,0.0,0.0,0.0,1.0
1464076290156310542,430,1464076289804566172,,7.96612119675,-6.32396221161,91.302482605,0.00176699995063,1.0,0.0,0.0,0.0,1.0,0.0,0.0,0.0,1.0,-0.792682945728,3.84146332741,0.853658556938,1.0,0.0,0.0,0.0,1.0,0.0,0.0,0.0,1.0,0.517147558594,-1.55144267578,10.1945106689,1.0,0.0,0.0,0.0,1.0,0.0,0.0,0.0,1.0
1464076290156767103,431,1464076289824604608,,7.89136981964,-6.39681434631,91.3025817871,0.0024389999453,1.0,0.0,0.0,0.0,1.0,0.0,0.0,0.0,1.0,-0.670731723309,3.17073178291,1.09756100178,1.0,0.0,0.0,0.0,1.0,0.0,0.0,0.0,1.0,0.134075302102,-1.5562310791,10.1992990723,1.0,0.0,0.0,0.0,1.0,0.0,0.0,0.0,1.0
1464076290156874603,432,1464076289846680434,,7.79672908783,-6.46560811996,91.2999572754,0.00156000000425,1.0,0.0,0.0,0.0,1.0,0.0,0.0,0.0,1.0,-0.487804889679,2.80487799644,0.487804889679,1.0,0.0,0.0,0.0,1.0,0.0,0.0,0.0,1.0,0.335188232422,-1.59453830566,10.2088758789,1.0,0.0,0.0,0.0,1.0,0.0,0.0,0.0,1.0
1464076290156914134,433,1464076289868549074,,7.70115995407,-6.53186321259,91.2950286865,0.00167300004978,1.0,0.0,0.0,0.0,1.0,0.0,0.0,0.0,1.0,-0.243902444839,2.86585378647,0.487804889679,1.0,0.0,0.0,0.0,1.0,0.0,0.0,0.0,1.0,0.292092584273,-1.58974990234,9.90720646973,1.0,0.0,0.0,0.0,1.0,0.0,0.0,0.0,1.0
1464076290157101373,434,1464076289888213969,,7.61250829697,-6.59207010269,91.289680481,0.00241399998777,1.0,0.0,0.0,0.0,1.0,0.0,0.0,0.0,1.0,0.0609756112099,3.59756112099,0.731707334518,1.0,0.0,0.0,0.0,1.0,0.0,0.0,0.0,1.0,0.349553442383,-1.62326872559,10.0652237793,1.0,0.0,0.0,0.0,1.0,0.0,0.0,0.0,1.0
1464076290161392403,435,1464076289909702869,,7.53242540359,-6.64605712891,91.2790527344,0.00138899998274,1.0,0.0,0.0,0.0,1.0,0.0,0.0,0.0,1.0,0.304878056049,4.08536577225,0.609756112099,1.0,0.0,0.0,0.0,1.0,0.0,0.0,0.0,1.0,0.368707055664,-1.44609780273,10.0029745361,1.0,0.0,0.0,0.0,1.0,0.0,0.0,0.0,1.0
1464076290161467715,436,1464076289931989789,,7.47362184525,-6.69299507141,91.2555847168,0.00429200008512,1.0,0.0,0.0,0.0,1.0,0.0,0.0,0.0,1.0,0.304878056049,4.57317066193,-0.670731723309,1.0,0.0,0.0,0.0,1.0,0.0,0.0,0.0,1.0,0.282515795898,-1.47003981934,9.99339772949,1.0,0.0,0.0,0.0,1.0,0.0,0.0,0.0,1.0
1464076290161507559,437,1464076289952950774,,7.41776847839,-6.73045635223,91.2121887207,0.00126599997748,1.0,0.0,0.0,0.0,1.0,0.0,0.0,0.0,1.0,0.0609756112099,4.08536577225,-1.2804877758,1.0,0.0,0.0,0.0,1.0,0.0,0.0,0.0,1.0,0.263362164351,-1.39821376953,10.0125513428,1.0,0.0,0.0,0.0,1.0,0.0,0.0,0.0,1.0
1464076290161548548,438,1464076289973924624,,7.34639215469,-6.7827129364,91.1535873413,0.00130300002638,1.0,0.0,0.0,0.0,1.0,0.0,0.0,0.0,1.0,-0.0609756112099,3.17073178291,-1.70731711388,1.0,0.0,0.0,0.0,1.0,0.0,0.0,0.0,1.0,0.292092584273,-1.56580788574,10.0269165527,1.0,0.0,0.0,0.0,1.0,0.0,0.0,0.0,1.0
1464076290161585996,439,1464076289994699412,,7.27120828629,-6.84091663361,91.1026229858,0.00122600002214,1.0,0.0,0.0,0.0,1.0,0.0,0.0,0.0,1.0,0.0,3.35365867615,-1.2195122242,1.0,0.0,0.0,0.0,1.0,0.0,0.0,0.0,1.0,0.201112939453,-1.49398183594,10.165780249,1.0,0.0,0.0,0.0,1.0,0.0,0.0,0.0,1.0
1464076290161620579,440,1464076290015352482,,7.19856643677,-6.89210414886,91.0630111694,0.00119600002654,1.0,0.0,0.0,0.0,1.0,0.0,0.0,0.0,1.0,-0.426829278469,2.80487799644,-0.792682945728,1.0,0.0,0.0,0.0,1.0,0.0,0.0,0.0,1.0,0.316034619141,-1.47003981934,10.0556469727,1.0,0.0,0.0,0.0,1.0,0.0,0.0,0.0,1.0
1464076290161837141,441,1464076290036101645,,7.12160110474,-6.94797086716,91.0350418091,0.00121400004718,1.0,0.0,0.0,0.0,1.0,0.0,0.0,0.0,1.0,-0.18292683363,2.56097555161,-0.304878056049,1.0,0.0,0.0,0.0,1.0,0.0,0.0,0.0,1.0,0.263362164351,-1.60890351563,10.2040874756,1.0,0.0,0.0,0.0,1.0,0.0,0.0,0.0,1.0
1464076290161897714,442,1464076290057661014,,7.04085540771,-6.99887514114,91.015411377,0.00126100005582,1.0,0.0,0.0,0.0,1.0,0.0,0.0,0.0,1.0,-0.426829278469,2.19512200356,-0.12195122242,1.0,0.0,0.0,0.0,1.0,0.0,0.0,0.0,1.0,0.215478149414,-1.52750065918,10.2136642822,1.0,0.0,0.0,0.0,1.0,0.0,0.0,0.0,1.0
1464076290166940930,443,1464076290078421427,,6.95729112625,-7.04480552673,91.0051879883,0.00114599999506,1.0,0.0,0.0,0.0,1.0,0.0,0.0,0.0,1.0,0.12195122242,2.80487799644,0.487804889679,1.0,0.0,0.0,0.0,1.0,0.0,0.0,0.0,1.0,0.31124621582,-1.52271225586,10.0843773926,1.0,0.0,0.0,0.0,1.0,0.0,0.0,0.0,1.0
1464076290167059263,444,1464076290099768089,,6.87866783142,-7.09056663513,91.0071792603,0.00133999995887,1.0,0.0,0.0,0.0,1.0,0.0,0.0,0.0,1.0,0.12195122242,2.62195134163,0.853658556938,1.0,0.0,0.0,0.0,1.0,0.0,0.0,0.0,1.0,0.31124621582,-1.5083470459,10.1705686523,1.0,0.0,0.0,0.0,1.0,0.0,0.0,0.0,1.0
1464076290169377954,445,1464076290120253347,,6.81621408463,-7.12545919418,91.0048751831,0.00125900004059,1.0,0.0,0.0,0.0,1.0,0.0,0.0,0.0,1.0,0.365853667259,2.56097555161,0.426829278469,1.0,0.0,0.0,0.0,1.0,0.0,0.0,0.0,1.0,0.0814028564453,-1.44609780273,10.1418382324,1.0,0.0,0.0,0.0,1.0,0.0,0.0,0.0,1.0
1464076290173161798,446,1464076290140946104,,6.73289251328,-7.16081523895,90.992401123,0.00124999997206,1.0,0.0,0.0,0.0,1.0,0.0,0.0,0.0,1.0,-0.18292683363,2.07317066193,-0.0609756112099,1.0,0.0,0.0,0.0,1.0,0.0,0.0,0.0,1.0,0.258573779297,-1.5083470459,10.1945106689,1.0,0.0,0.0,0.0,1.0,0.0,0.0,0.0,1.0
1464076290366277218,447,1464076290162698077,,6.65007352829,-7.20599603653,90.9729995728,0.00143499998376,1.0,0.0,0.0,0.0,1.0,0.0,0.0,0.0,1.0,-0.0609756112099,2.56097555161,-0.0609756112099,1.0,0.0,0.0,0.0,1.0,0.0,0.0,0.0,1.0,0.335188232422,-1.66157595215,10.1514150391,1.0,0.0,0.0,0.0,1.0,0.0,0.0,0.0,1.0
1464076290366328468,448,1464076290183799999,,6.58097505569,-7.24843025208,90.9560775757,0.00117599999066,1.0,0.0,0.0,0.0,1.0,0.0,0.0,0.0,1.0,-0.304878056049,3.59756112099,0.0609756112099,1.0,0.0,0.0,0.0,1.0,0.0,0.0,0.0,1.0,0.483628735352,-1.63284553223,10.0556469727,1.0,0.0,0.0,0.0,1.0,0.0,0.0,0.0,1.0
1464076290366364978,449,1464076290204470256,,6.54010486603,-7.28648328781,90.9311752319,0.00123299995903,1.0,0.0,0.0,0.0,1.0,0.0,0.0,0.0,1.0,0.243902444839,4.2682929039,-0.670731723309,1.0,0.0,0.0,0.0,1.0,0.0,0.0,0.0,1.0,0.124498486328,-1.4844050293,10.2615483154,1.0,0.0,0.0,0.0,1.0,0.0,0.0,0.0,1.0
1464076290366718415,450,1464076290225260930,,6.50911521912,-7.32694673538,90.8902435303,0.00121400004718,1.0,0.0,0.0,0.0,1.0,0.0,0.0,0.0,1.0,-0.487804889679,3.59756112099,-1.03658533096,1.0,0.0,0.0,0.0,1.0,0.0,0.0,0.0,1.0,0.124498486328,-1.35990654297,10.2136642822,1.0,0.0,0.0,0.0,1.0,0.0,0.0,0.0,1.0
1464076290366759248,451,1464076290245742281,,6.4583272934,-7.37595367432,90.8474960327,0.00125099997967,1.0,0.0,0.0,0.0,1.0,0.0,0.0,0.0,1.0,-0.731707334518,2.86585378647,-1.15853655338,1.0,0.0,0.0,0.0,1.0,0.0,0.0,0.0,1.0,0.0957680664062,-1.4604630127,10.1035310059,1.0,0.0,0.0,0.0,1.0,0.0,0.0,0.0,1.0
1464076290367005289,452,1464076290266352694,,6.39788532257,-7.42897987366,90.807510376,0.00122800003737,1.0,0.0,0.0,0.0,1.0,0.0,0.0,0.0,1.0,-0.304878056049,2.56097555161,-1.2195122242,1.0,0.0,0.0,0.0,1.0,0.0,0.0,0.0,1.0,0.215478149414,-1.62805712891,10.1992990723,1.0,0.0,0.0,0.0,1.0,0.0,0.0,0.0,1.0
1464076290367379090,453,1464076290287930657,,6.32783269882,-7.48199558258,90.7731781006,0.00121899996884,1.0,0.0,0.0,0.0,1.0,0.0,0.0,0.0,1.0,-0.548780500889,1.70731711388,-0.731707334518,1.0,0.0,0.0,0.0,1.0,0.0,0.0,0.0,1.0,0.143652099609,-1.63763393555,10.1992990723,1.0,0.0,0.0,0.0,1.0,0.0,0.0,0.0,1.0
1464076290367427944,454,1464076290309642578,,6.24487543106,-7.53044748306,90.7456359863,0.00153899996076,1.0,0.0,0.0,0.0,1.0,0.0,0.0,0.0,1.0,-0.365853667259,1.2195122242,-0.487804889679,1.0,0.0,0.0,0.0,1.0,0.0,0.0,0.0,1.0,0.196324536133,-1.47003981934,10.2040874756,1.0,0.0,0.0,0.0,1.0,0.0,0.0,0.0,1.0
1464076290367860964,455,1464076290330548460,,6.1550450325,-7.57442855835,90.7246932983,0.00125400000252,1.0,0.0,0.0,0.0,1.0,0.0,0.0,0.0,1.0,-0.304878056049,0.548780500889,-0.548780500889,1.0,0.0,0.0,0.0,1.0,0.0,0.0,0.0,1.0,0.248996972656,-1.54186586914,10.3190091553,1.0,0.0,0.0,0.0,1.0,0.0,0.0,0.0,1.0
1464076290459200302,456,1464076290351463820,,6.05751276016,-7.61224365234,90.7134399414,0.00148300000001,1.0,0.0,0.0,0.0,1.0,0.0,0.0,0.0,1.0,-0.0609756112099,0.731707334518,0.304878056049,1.0,0.0,0.0,0.0,1.0,0.0,0.0,0.0,1.0,0.210689746094,-1.58496149902,10.1418382324,1.0,0.0,0.0,0.0,1.0,0.0,0.0,0.0,1.0
1464076290459413323,457,1464076290372243452,,5.96575784683,-7.64459371567,90.7115020752,0.00111299997661,1.0,0.0,0.0,0.0,1.0,0.0,0.0,0.0,1.0,-0.304878056049,-0.0609756112099,0.548780500889,1.0,0.0,0.0,0.0,1.0,0.0,0.0,0.0,1.0,0.181959326172,-1.58496149902,10.0891657959,1.0,0.0,0.0,0.0,1.0,0.0,0.0,0.0,1.0
1464076290460308945,458,1464076290394124071,,5.85141468048,-7.67591905594,90.7210769653,0.00124400004279,1.0,0.0,0.0,0.0,1.0,0.0,0.0,0.0,1.0,-0.609756112099,-0.304878056049,1.34146344662,1.0,0.0,0.0,0.0,1.0,0.0,0.0,0.0,1.0,0.296881024126,-1.49398183594,10.0795889893,1.0,0.0,0.0,0.0,1.0,0.0,0.0,0.0,1.0
1464076290461114151,459,1464076290415078598,,5.73863363266,-7.71463823318,90.7416381836,0.00121799996123,1.0,0.0,0.0,0.0,1.0,0.0,0.0,0.0,1.0,-0.914634168148,-0.487804889679,1.15853655338,1.0,0.0,0.0,0.0,1.0,0.0,0.0,0.0,1.0,0.0814028564453,-1.42215578613,10.2471831055,1.0,0.0,0.0,0.0,1.0,0.0,0.0,0.0,1.0
1464076290491236571,460,1464076290438049422,,5.61103439331,-7.76417922974,90.763458252,0.00592300016433,1.0,0.0,0.0,0.0,1.0,0.0,0.0,0.0,1.0,-2.01219511032,-1.58536589146,1.09756100178,1.0,0.0,0.0,0.0,1.0,0.0,0.0,0.0,1.0,0.239420166016,-1.47003981934,10.2711251221,1.0,0.0,0.0,0.0,1.0,0.0,0.0,0.0,1.0
1464076290491582038,461,1464076290460956287,,5.47515535355,-7.83540964127,90.7882461548,0.00375599996187,1.0,0.0,0.0,0.0,1.0,0.0,0.0,0.0,1.0,-2.68292689323,-1.95121955872,1.34146344662,1.0,0.0,0.0,0.0,1.0,0.0,0.0,0.0,1.0,0.110133276367,-1.47003981934,10.3046439453,1.0,0.0,0.0,0.0,1.0,0.0,0.0,0.0,1.0
1464076290520104514,462,1464076290480557016,,5.34026050568,-7.90630912781,90.8165206909,0.00296800001524,1.0,0.0,0.0,0.0,1.0,0.0,0.0,0.0,1.0,-3.04878044128,-0.853658556938,1.58536589146,1.0,0.0,0.0,0.0,1.0,0.0,0.0,0.0,1.0,0.344765039063,-1.5083470459,10.2184526855,1.0,0.0,0.0,0.0,1.0,0.0,0.0,0.0,1.0
1464076290520414826,463,1464076290502428780,,5.23205137253,-7.98188257217,90.8343887329,0.00207699998282,1.0,0.0,0.0,0.0,1.0,0.0,0.0,0.0,1.0,-2.56097555161,0.670731723309,0.914634168148,1.0,0.0,0.0,0.0,1.0,0.0,0.0,0.0,1.0,0.435744702148,-1.47961662598,10.1131078125,1.0,0.0,0.0,0.0,1.0,0.0,0.0,0.0,1.0
1464076290562404609,464,1464076290522466070,,5.15596723557,-8.05305862427,90.83152771,0.00138699996751,1.0,0.0,0.0,0.0,1.0,0.0,0.0,0.0,1.0,-2.56097555161,1.58536589146,-0.0609756112099,1.0,0.0,0.0,0.0,1.0,0.0,0.0,0.0,1.0,0.421379492187,-1.55144267578,10.1609918457,1.0,0.0,0.0,0.0,1.0,0.0,0.0,0.0,1.0
1464076290562460025,465,1464076290543225858,,5.09384298325,-8.11567306519,90.8160171509,0.00127200002316,1.0,0.0,0.0,0.0,1.0,0.0,0.0,0.0,1.0,-2.31707310677,2.13414645195,-0.487804889679,1.0,0.0,0.0,0.0,1.0,0.0,0.0,0.0,1.0,0.450109912109,-1.56580788574,10.2615483154,1.0,0.0,0.0,0.0,1.0,0.0,0.0,0.0,1.0
1464076290614906135,466,1464076290564885644,,5.04693984985,-8.18606376648,90.7838973999,0.00240199989639,1.0,0.0,0.0,0.0,1.0,0.0,0.0,0.0,1.0,-1.52439022064,2.80487799644,-0.853658556938,1.0,0.0,0.0,0.0,1.0,0.0,0.0,0.0,1.0,0.177170922852,-1.56101948242,10.2328178955,1.0,0.0,0.0,0.0,1.0,0.0,0.0,0.0,1.0
1464076290614961551,467,1464076290588437664,,5.0033531189,-8.24196720123,90.740852356,0.0031959998887,1.0,0.0,0.0,0.0,1.0,0.0,0.0,0.0,1.0,-0.792682945728,2.98780488968,-1.09756100178,1.0,0.0,0.0,0.0,1.0,0.0,0.0,0.0,1.0,0.416591088867,-1.58974990234,10.0748005859,1.0,0.0,0.0,0.0,1.0,0.0,0.0,0.0,1.0
1464076290615006082,468,1464076290608999380,,4.97270917892,-8.27443599701,90.7040710449,0.00179200002458,1.0,0.0,0.0,0.0,1.0,0.0,0.0,0.0,1.0,-0.304878056049,3.65853667259,-0.914634168148,1.0,0.0,0.0,0.0,1.0,0.0,0.0,0.0,1.0,0.397437475586,-1.63763393555,9.99818613281,1.0,0.0,0.0,0.0,1.0,0.0,0.0,0.0,1.0
1464076290676517167,469,1464076290630830571,,4.96309185028,-8.29633998871,90.6614074707,0.00283599994145,1.0,0.0,0.0,0.0,1.0,0.0,0.0,0.0,1.0,0.365853667259,4.14634132385,-1.15853655338,1.0,0.0,0.0,0.0,1.0,0.0,0.0,0.0,1.0,0.268150604204,-1.6041151123,10.0317049561,1.0,0.0,0.0,0.0,1.0,0.0,0.0,0.0,1.0
1464076290676564980,470,1464076290650976142,,4.96491670609,-8.29429626465,90.615524292,0.00166199996602,1.0,0.0,0.0,0.0,1.0,0.0,0.0,0.0,1.0,0.548780500889,3.65853667259,-1.76829278469,1.0,0.0,0.0,0.0,1.0,0.0,0.0,0.0,1.0,0.253785375977,-1.47003981934,10.1466266357,1.0,0.0,0.0,0.0,1.0,0.0,0.0,0.0,1.0
1464076290676618157,471,1464076290672091554,,4.95136451721,-8.30251312256,90.5721359253,0.00121400004718,1.0,0.0,0.0,0.0,1.0,0.0,0.0,0.0,1.0,0.426829278469,2.74390244484,-1.09756100178,1.0,0.0,0.0,0.0,1.0,0.0,0.0,0.0,1.0,0.268150604204,-1.61369191895,10.0700121826,1.0,0.0,0.0,0.0,1.0,0.0,0.0,0.0,1.0
1464076290739985226,472,1464076290693233477,,4.91348648071,-8.31001853943,90.5457839966,0.00126599997748,1.0,0.0,0.0,0.0,1.0,0.0,0.0,0.0,1.0,0.853658556938,2.56097555161,-0.12195122242,1.0,0.0,0.0,0.0,1.0,0.0,0.0,0.0,1.0,0.191536132812,-1.57538469238,10.0700121826,1.0,0.0,0.0,0.0,1.0,0.0,0.0,0.0,1.0
1464076290740141580,473,1464076290720824184,,4.88320684433,-8.30858325958,90.531829834,0.00578999985009,1.0,0.0,0.0,0.0,1.0,0.0,0.0,0.0,1.0,1.2195122242,2.01219511032,0.426829278469,1.0,0.0,0.0,0.0,1.0,0.0,0.0,0.0,1.0,0.0287304199219,-1.5322890625,9.97424411621,1.0,0.0,0.0,0.0,1.0,0.0,0.0,0.0,1.0
1464076290764564431,474,1464076290740340069,,4.8507027626,-8.30188846588,90.5403671265,0.00144000002183,1.0,0.0,0.0,0.0,1.0,0.0,0.0,0.0,1.0,0.548780500889,1.46341466904,1.15853655338,1.0,0.0,0.0,0.0,1.0,0.0,0.0,0.0,1.0,0.258573779297,-1.40779057617,10.1035310059,1.0,0.0,0.0,0.0,1.0,0.0,0.0,0.0,1.0
1464076290764727087,475,1464076290760448922,,4.80992412567,-8.31901454926,90.5702438354,0.00483299978077,1.0,0.0,0.0,0.0,1.0,0.0,0.0,0.0,1.0,-0.365853667259,1.40243899822,1.95121955872,1.0,0.0,0.0,0.0,1.0,0.0,0.0,0.0,1.0,0.205901342773,-1.51313544922,10.2232410889,1.0,0.0,0.0,0.0,1.0,0.0,0.0,0.0,1.0
1464076290783729484,476,1464076290781262460,,4.76757335663,-8.34123325348,90.6081314087,0.00119800004177,1.0,0.0,0.0,0.0,1.0,0.0,0.0,0.0,1.0,-0.731707334518,1.8292683363,2.31707310677,1.0,0.0,0.0,0.0,1.0,0.0,0.0,0.0,1.0,0.335188232422,-1.44609780273,10.0748005859,1.0,0.0,0.0,0.0,1.0,0.0,0.0,0.0,1.0
1464076290808282075,477,1464076290801951831,,4.73190832138,-8.37390708923,90.6435775757,0.00124300003517,1.0,0.0,0.0,0.0,1.0,0.0,0.0,0.0,1.0,-1.46341466904,1.2195122242,1.64634156227,1.0,0.0,0.0,0.0,1.0,0.0,0.0,0.0,1.0,0.244208569336,-1.43652099609,10.0269165527,1.0,0.0,0.0,0.0,1.0,0.0,0.0,0.0,1.0
1464076290836376635,478,1464076290822973025,,4.67872953415,-8.4192647934,90.6720275879,0.00124400004279,1.0,0.0,0.0,0.0,1.0,0.0,0.0,0.0,1.0,-2.43902444839,1.34146344662,1.40243899822,1.0,0.0,0.0,0.0,1.0,0.0,0.0,0.0,1.0,0.301669427446,-1.72861359863,10.0269165527,1.0,0.0,0.0,0.0,1.0,0.0,0.0,0.0,1.0
1464076290852058207,479,1464076290843442605,,4.63319921494,-8.48405170441,90.6929168701,0.00122700002976,1.0,0.0,0.0,0.0,1.0,0.0,0.0,0.0,1.0,-2.98780488968,2.01219511032,1.46341466904,1.0,0.0,0.0,0.0,1.0,0.0,0.0,0.0,1.0,0.368707055664,-1.66636435547,10.1178962158,1.0,0.0,0.0,0.0,1.0,0.0,0.0,0.0,1.0
1464076290985407850,480,1464076290866076868,,4.61138486862,-8.56461906433,90.7171707153,0.0019340000581,1.0,0.0,0.0,0.0,1.0,0.0,0.0,0.0,1.0,-3.23170733452,4.08536577225,2.01219511032,1.0,0.0,0.0,0.0,1.0,0.0,0.0,0.0,1.0,0.234631762695,-1.61848032227,10.3285859619,1.0,0.0,0.0,0.0,1.0,0.0,0.0,0.0,1.0
1464076290985459412,481,1464076290887884830,,4.62395381927,-8.64126873016,90.7286911011,0.00336099998094,1.0,0.0,0.0,0.0,1.0,0.0,0.0,0.0,1.0,-3.23170733452,4.02439022064,1.09756100178,1.0,0.0,0.0,0.0,1.0,0.0,0.0,0.0,1.0,0.205901342773,-1.62326872559,10.1609918457,1.0,0.0,0.0,0.0,1.0,0.0,0.0,0.0,1.0
1464076290985714047,482,1464076290909567063,,4.62605905533,-8.72340774536,90.7168579102,0.00140299997292,1.0,0.0,0.0,0.0,1.0,0.0,0.0,0.0,1.0,-3.10975623131,3.96341490746,0.365853667259,1.0,0.0,0.0,0.0,1.0,0.0,0.0,0.0,1.0,0.325611425781,-1.54665427246,10.1370498291,1.0,0.0,0.0,0.0,1.0,0.0,0.0,0.0,1.0
1464076290986006181,483,1464076290929702218,,4.63376140594,-8.7985086441,90.6865539551,0.00137600000016,1.0,0.0,0.0,0.0,1.0,0.0,0.0,0.0,1.0,-2.56097555161,4.45121955872,-0.792682945728,1.0,0.0,0.0,0.0,1.0,0.0,0.0,0.0,1.0,0.316034619141,-1.62805712891,10.2471831055,1.0,0.0,0.0,0.0,1.0,0.0,0.0,0.0,1.0
1464076290986270764,484,1464076290950587422,,4.65242910385,-8.86131381989,90.6463088989,0.00114700000267,1.0,0.0,0.0,0.0,1.0,0.0,0.0,0.0,1.0,-1.95121955872,5.12195110321,-0.975609779358,1.0,0.0,0.0,0.0,1.0,0.0,0.0,0.0,1.0,0.296881024126,-1.56580788574,10.2376062988,1.0,0.0,0.0,0.0,1.0,0.0,0.0,0.0,1.0
1464076290986314826,485,1464076290972163562,,4.68048477173,-8.91499328613,90.6070480347,0.00124699994922,1.0,0.0,0.0,0.0,1.0,0.0,0.0,0.0,1.0,-1.64634156227,6.34146356583,-0.731707334518,1.0,0.0,0.0,0.0,1.0,0.0,0.0,0.0,1.0,0.445321508789,-1.69509477539,10.0077629395,1.0,0.0,0.0,0.0,1.0,0.0,0.0,0.0,1.0
1464076291046878987,486,1464076290992714393,,4.72596883774,-8.95783615112,90.569190979,0.00118599995039,1.0,0.0,0.0,0.0,1.0,0.0,0.0,0.0,1.0,-0.914634168148,6.34146356583,-0.731707334518,1.0,0.0,0.0,0.0,1.0,0.0,0.0,0.0,1.0,0.15322890625,-1.58974990234,10.2040874756,1.0,0.0,0.0,0.0,1.0,0.0,0.0,0.0,1.0
1464076291047277007,487,1464076291013338087,,4.77293491364,-8.98376369476,90.5368728638,0.00119700003415,1.0,0.0,0.0,0.0,1.0,0.0,0.0,0.0,1.0,0.0609756112099,6.09756088257,0.12195122242,1.0,0.0,0.0,0.0,1.0,0.0,0.0,0.0,1.0,0.229843359375,-1.68072956543,10.2615483154,1.0,0.0,0.0,0.0,1.0,0.0,0.0,0.0,1.0
1464076291087992783,488,1464076291036098755,,4.8087220192,-8.99477291107,90.520362854,0.00255200010724,1.0,0.0,0.0,0.0,1.0,0.0,0.0,0.0,1.0,0.18292683363,5.30487823486,1.03658533096,1.0,0.0,0.0,0.0,1.0,0.0,0.0,0.0,1.0,0.287304199219,-1.56580788574,10.1370498291,1.0,0.0,0.0,0.0,1.0,0.0,0.0,0.0,1.0
1464076291088056585,489,1464076291061842801,,4.83826828003,-9.00134277344,90.5216140747,0.00660100020468,1.0,0.0,0.0,0.0,1.0,0.0,0.0,0.0,1.0,0.18292683363,4.32926845551,0.914634168148,1.0,0.0,0.0,0.0,1.0,0.0,0.0,0.0,1.0,0.162805712891,-1.62326872559,10.0364933594,1.0,0.0,0.0,0.0,1.0,0.0,0.0,0.0,1.0
1464076291088386792,490,1464076291083128421,,4.84189367294,-8.9988489151,90.5257492065,0.00140399998054,1.0,0.0,0.0,0.0,1.0,0.0,0.0,0.0,1.0,0.12195122242,2.80487799644,1.15853655338,1.0,0.0,0.0,0.0,1.0,0.0,0.0,0.0,1.0,0.244208569336,-1.65678754883,10.2328178955,1.0,0.0,0.0,0.0,1.0,0.0,0.0,0.0,1.0
1464076291143527269,491,1464076291103882324,,4.82391309738,-9.0053768158,90.541015625,0.00123699998949,1.0,0.0,0.0,0.0,1.0,0.0,0.0,0.0,1.0,-0.243902444839,2.25609779358,1.58536589146,1.0,0.0,0.0,0.0,1.0,0.0,0.0,0.0,1.0,0.181959326172,-1.68551796875,10.1178962158,1.0,0.0,0.0,0.0,1.0,0.0,0.0,0.0,1.0
1464076291143838154,492,1464076291125353516,,4.79187250137,-9.01425170898,90.5691375732,0.00124799995683,1.0,0.0,0.0,0.0,1.0,0.0,0.0,0.0,1.0,-0.853658556938,2.43902444839,2.13414645195,1.0,0.0,0.0,0.0,1.0,0.0,0.0,0.0,1.0,0.258573779297,-1.64242233887,10.2328178955,1.0,0.0,0.0,0.0,1.0,0.0,0.0,0.0,1.0
1464076291194374216,493,1464076291146199919,,4.75745534897,-9.02544403076,90.6042404175,0.00120199995581,1.0,0.0,0.0,0.0,1.0,0.0,0.0,0.0,1.0,-0.853658556938,1.03658533096,2.01219511032,1.0,0.0,0.0,0.0,1.0,0.0,0.0,0.0,1.0,0.215478149414,-1.54186586914,10.1131078125,1.0,0.0,0.0,0.0,1.0,0.0,0.0,0.0,1.0
1464076291194436248,494,1464076291167865798,,4.69762706757,-9.04039859772,90.634147644,0.00161799998023,1.0,0.0,0.0,0.0,1.0,0.0,0.0,0.0,1.0,-0.975609779358,-0.548780500889,1.2804877758,1.0,0.0,0.0,0.0,1.0,0.0,0.0,0.0,1.0,0.167594116211,-1.52750065918,10.1609918457,1.0,0.0,0.0,0.0,1.0,0.0,0.0,0.0,1.0
1464076291194481091,495,1464076291188222462,,4.6101899147,-9.06334018707,90.662399292,0.00124000001233,1.0,0.0,0.0,0.0,1.0,0.0,0.0,0.0,1.0,-1.46341466904,-1.2804877758,1.58536589146,1.0,0.0,0.0,0.0,1.0,0.0,0.0,0.0,1.0,0.229843359375,-1.5322890625,10.0843773926,1.0,0.0,0.0,0.0,1.0,0.0,0.0,0.0,1.0
1464076291241018154,496,1464076291208861730,,4.51252698898,-9.0923204422,90.6998901367,0.0012450000504,1.0,0.0,0.0,0.0,1.0,0.0,0.0,0.0,1.0,-1.15853655338,-0.548780500889,2.62195134163,1.0,0.0,0.0,0.0,1.0,0.0,0.0,0.0,1.0,0.239420166016,-1.58496149902,10.1322614258,1.0,0.0,0.0,0.0,1.0,0.0,0.0,0.0,1.0
1464076291242904086,497,1464076291229835059,,4.42913007736,-9.12411975861,90.7552719116,0.00130500004161,1.0,0.0,0.0,0.0,1.0,0.0,0.0,0.0,1.0,-1.58536589146,-0.365853667259,3.04878044128,1.0,0.0,0.0,0.0,1.0,0.0,0.0,0.0,1.0,0.373495458984,-1.56101948242,10.0029745361,1.0,0.0,0.0,0.0,1.0,0.0,0.0,0.0,1.0
1464076291264920486,498,1464076291251076408,,4.3599896431,-9.15600776672,90.8202590942,0.00115999998525,1.0,0.0,0.0,0.0,1.0,0.0,0.0,0.0,1.0,-1.2804877758,0.426829278469,3.59756112099,1.0,0.0,0.0,0.0,1.0,0.0,0.0,0.0,1.0,0.45489831543,-1.57059628906,10.1897222656,1.0,0.0,0.0,0.0,1.0,0.0,0.0,0.0,1.0
1464076291314807643,499,1464076291272865100,,4.29909276962,-9.1800031662,90.8839492798,0.00117399997544,1.0,0.0,0.0,0.0,1.0,0.0,0.0,0.0,1.0,-1.15853655338,1.34146344662,3.41463422775,1.0,0.0,0.0,0.0,1.0,0.0,0.0,0.0,1.0,0.205901342773,-1.59453830566,10.1274730225,1.0,0.0,0.0,0.0,1.0,0.0,0.0,0.0,1.0
1464076291315245090,500,1464076291293743325,,4.26110506058,-9.20284366608,90.9365234375,0.00150100002065,1.0,0.0,0.0,0.0,1.0,0.0,0.0,0.0,1.0,-1.09756100178,1.2195122242,2.74390244484,1.0,0.0,0.0,0.0,1.0,0.0,0.0,0.0,1.0,0.225054956055,-1.63763393555,10.2567599121,1.0,0.0,0.0,0.0,1.0,0.0,0.0,0.0,1.0
1464076291338469976,501,1464076291315197747,,4.21915102005,-9.22026729584,90.9739837646,0.0011930000037,1.0,0.0,0.0,0.0,1.0,0.0,0.0,0.0,1.0,-0.853658556938,1.58536589146,2.19512200356,1.0,0.0,0.0,0.0,1.0,0.0,0.0,0.0,1.0,0.296881024126,-1.65199914551,10.1178962158,1.0,0.0,0.0,0.0,1.0,0.0,0.0,0.0,1.0
1464076291346041362,502,1464076291340925073,,4.18063831329,-9.23853492737,90.9915771484,0.00596900004894,1.0,0.0,0.0,0.0,1.0,0.0,0.0,0.0,1.0,0.243902444839,1.64634156227,0.731707334518,1.0,0.0,0.0,0.0,1.0,0.0,0.0,0.0,1.0,0.191536132812,-1.65678754883,10.2040874756,1.0,0.0,0.0,0.0,1.0,0.0,0.0,0.0,1.0
1464076291366883441,503,1464076291361267727,,4.14399623871,-9.24608039856,90.9867782593,0.00121799996123,1.0,0.0,0.0,0.0,1.0,0.0,0.0,0.0,1.0,0.0,1.46341466904,0.12195122242,1.0,0.0,0.0,0.0,1.0,0.0,0.0,0.0,1.0,0.220266552734,-1.66636435547,10.1131078125,1.0,0.0,0.0,0.0,1.0,0.0,0.0,0.0,1.0
1464076291688863359,504,1464076291381815537,,4.11034822464,-9.24941444397,90.9751281738,0.00123199995141,1.0,0.0,0.0,0.0,1.0,0.0,0.0,0.0,1.0,0.487804889679,2.07317066193,-0.0609756112099,1.0,0.0,0.0,0.0,1.0,0.0,0.0,0.0,1.0,0.272938989258,-1.69509477539,10.1897222656,1.0,0.0,0.0,0.0,1.0,0.0,0.0,0.0,1.0
1464076291689803305,505,1464076291402757095,,4.0767326355,-9.24209117889,90.9647674561,0.00136300001759,1.0,0.0,0.0,0.0,1.0,0.0,0.0,0.0,1.0,0.792682945728,2.5,0.243902444839,1.0,0.0,0.0,0.0,1.0,0.0,0.0,0.0,1.0,0.387860668945,-1.69509477539,10.1370498291,1.0,0.0,0.0,0.0,1.0,0.0,0.0,0.0,1.0
1464076291693107515,506,1464076291424434120,,4.05934143066,-9.23041152954,90.9517059326,0.00131299998611,1.0,0.0,0.0,0.0,1.0,0.0,0.0,0.0,1.0,1.2195122242,2.43902444839,0.0,1.0,0.0,0.0,0.0,1.0,0.0,0.0,0.0,1.0,0.196324536133,-1.58496149902,10.1609918457,1.0,0.0,0.0,0.0,1.0,0.0,0.0,0.0,1.0
1464076291694048866,507,1464076291445956667,,4.05402231216,-9.21160984039,90.9301528931,0.00132299994584,1.0,0.0,0.0,0.0,1.0,0.0,0.0,0.0,1.0,1.09756100178,2.56097555161,-0.426829278469,1.0,0.0,0.0,0.0,1.0,0.0,0.0,0.0,1.0,0.15322890625,-1.61848032227,9.99339772949,1.0,0.0,0.0,0.0,1.0,0.0,0.0,0.0,1.0
1464076291694105168,508,1464076291466569112,,4.04248285294,-9.19173145294,90.9021835327,0.00138100003824,1.0,0.0,0.0,0.0,1.0,0.0,0.0,0.0,1.0,0.670731723309,2.56097555161,-0.853658556938,1.0,0.0,0.0,0.0,1.0,0.0,0.0,0.0,1.0,0.138863696289,-1.57059628906,10.060435376,1.0,0.0,0.0,0.0,1.0,0.0,0.0,0.0,1.0
1464076291695645320,509,1464076291487336295,,4.03084087372,-9.1859369278,90.8743209839,0.00133100000676,1.0,0.0,0.0,0.0,1.0,0.0,0.0,0.0,1.0,0.304878056049,2.43902444839,-0.853658556938,1.0,0.0,0.0,0.0,1.0,0.0,0.0,0.0,1.0,0.138863696289,-1.62326872559,10.1083194092,1.0,0.0,0.0,0.0,1.0,0.0,0.0,0.0,1.0
1464076291695733862,510,1464076291508127438,,4.02053403854,-9.18422794342,90.847946167,0.00133600004483,1.0,0.0,0.0,0.0,1.0,0.0,0.0,0.0,1.0,0.243902444839,3.29268312454,-0.487804889679,1.0,0.0,0.0,0.0,1.0,0.0,0.0,0.0,1.0,0.282515795898,-1.61369191895,10.1992990723,1.0,0.0,0.0,0.0,1.0,0.0,0.0,0.0,1.0
1464076291695919278,511,1464076291528665924,,4.02521419525,-9.18719959259,90.8203201294,0.00129799998831,1.0,0.0,0.0,0.0,1.0,0.0,0.0,0.0,1.0,-0.18292683363,3.47560977936,-0.548780500889,1.0,0.0,0.0,0.0,1.0,0.0,0.0,0.0,1.0,0.215478149414,-1.55144267578,10.2184526855,1.0,0.0,0.0,0.0,1.0,0.0,0.0,0.0,1.0
1464076291697084691,512,1464076291550277637,,4.03365421295,-9.19789028168,90.782951355,0.00134700001217,1.0,0.0,0.0,0.0,1.0,0.0,0.0,0.0,1.0,-0.548780500889,2.86585378647,-1.03658533096,1.0,0.0,0.0,0.0,1.0,0.0,0.0,0.0,1.0,0.363918652344,-1.49398183594,10.2376062988,1.0,0.0,0.0,0.0,1.0,0.0,0.0,0.0,1.0
1464076291700360308,513,1464076291571293675,,4.03396272659,-9.21684074402,90.7375793457,0.00124400004279,1.0,0.0,0.0,0.0,1.0,0.0,0.0,0.0,1.0,-0.426829278469,3.53658556938,-1.52439022064,1.0,0.0,0.0,0.0,1.0,0.0,0.0,0.0,1.0,0.191536132812,-1.59932670898,10.1226846191,1.0,0.0,0.0,0.0,1.0,0.0,0.0,0.0,1.0
1464076291701304003,514,1464076291591928723,,4.04189586639,-9.22943592072,90.6932907104,0.00126000004821,1.0,0.0,0.0,0.0,1.0,0.0,0.0,0.0,1.0,-0.731707334518,4.2682929039,-1.15853655338,1.0,0.0,0.0,0.0,1.0,0.0,0.0,0.0,1.0,0.248996972656,-1.61369191895,10.1562034424,1.0,0.0,0.0,0.0,1.0,0.0,0.0,0.0,1.0
1464076291701358638,515,1464076291612375075,,4.06045532227,-9.24503231049,90.6580505371,0.00146199995652,1.0,0.0,0.0,0.0,1.0,0.0,0.0,0.0,1.0,-0.243902444839,5.06097555161,-0.243902444839,1.0,0.0,0.0,0.0,1.0,0.0,0.0,0.0,1.0,0.15322890625,-1.57059628906,10.0269165527,1.0,0.0,0.0,0.0,1.0,0.0,0.0,0.0,1.0
1464076291702655354,516,1464076291633728351,,4.09769153595,-9.25475502014,90.6329421997,0.00134399998933,1.0,0.0,0.0,0.0,1.0,0.0,0.0,0.0,1.0,-0.18292683363,5.36585378647,0.243902444839,1.0,0.0,0.0,0.0,1.0,0.0,0.0,0.0,1.0,0.229843359375,-1.52750065918,10.314220752,1.0,0.0,0.0,0.0,1.0,0.0,0.0,0.0,1.0
1464076291704258422,517,1464076291654883190,,4.14127349854,-9.26111888885,90.6123809814,0.00128500000574,1.0,0.0,0.0,0.0,1.0,0.0,0.0,0.0,1.0,-0.365853667259,5.12195110321,0.304878056049,1.0,0.0,0.0,0.0,1.0,0.0,0.0,0.0,1.0,0.172382519531,-1.57538469238,9.86889924316,1.0,0.0,0.0,0.0,1.0,0.0,0.0,0.0,1.0
1464076291706363885,518,1464076291676488757,,4.17306900024,-9.26116371155,90.5864028931,0.00132999999914,1.0,0.0,0.0,0.0,1.0,0.0,0.0,0.0,1.0,-0.365853667259,4.32926845551,-0.304878056049,1.0,0.0,0.0,0.0,1.0,0.0,0.0,0.0,1.0,0.215478149414,-1.36948334961,9.95030209961,1.0,0.0,0.0,0.0,1.0,0.0,0.0,0.0,1.0
1464076291708817785,519,1464076291697222139,,4.19566059113,-9.27215480804,90.5658340454,0.00141400005668,1.0,0.0,0.0,0.0,1.0,0.0,0.0,0.0,1.0,-0.670731723309,4.51219558716,0.18292683363,1.0,0.0,0.0,0.0,1.0,0.0,0.0,0.0,1.0,0.15322890625,-1.54665427246,10.1370498291,1.0,0.0,0.0,0.0,1.0,0.0,0.0,0.0,1.0
1464076291860571545,520,1464076291718035937,,4.22335004807,-9.28635406494,90.5633163452,0.00115899997763,1.0,0.0,0.0,0.0,1.0,0.0,0.0,0.0,1.0,-0.731707334518,5.24390268326,1.70731711388,1.0,0.0,0.0,0.0,1.0,0.0,0.0,0.0,1.0,0.234631762695,-1.52750065918,10.1226846191,1.0,0.0,0.0,0.0,1.0,0.0,0.0,0.0,1.0
1464076291860616336,521,1464076291739657858,,4.27319335938,-9.28980636597,90.581817627,0.00135899998713,1.0,0.0,0.0,0.0,1.0,0.0,0.0,0.0,1.0,-0.853658556938,5.18292713165,2.13414645195,1.0,0.0,0.0,0.0,1.0,0.0,0.0,0.0,1.0,0.205901342773,-1.47003981934,10.1274730225,1.0,0.0,0.0,0.0,1.0,0.0,0.0,0.0,1.0
1464076291860817794,522,1464076291760716292,,4.32664299011,-9.29541397095,90.6059951782,0.00139099999797,1.0,0.0,0.0,0.0,1.0,0.0,0.0,0.0,1.0,-1.03658533096,5.06097555161,2.5,1.0,0.0,0.0,0.0,1.0,0.0,0.0,0.0,1.0,0.134075302102,-1.44609780273,10.1035310059,1.0,0.0,0.0,0.0,1.0,0.0,0.0,0.0,1.0
1464076291860862013,523,1464076291781482069,,4.37224388123,-9.30017089844,90.6308135986,0.00164300005417,1.0,0.0,0.0,0.0,1.0,0.0,0.0,0.0,1.0,-0.975609779358,5.0,2.43902444839,1.0,0.0,0.0,0.0,1.0,0.0,0.0,0.0,1.0,0.129286889648,-1.42694418945,10.1705686523,1.0,0.0,0.0,0.0,1.0,0.0,0.0,0.0,1.0
1464076291861102481,524,1464076291802195399,,4.41307258606,-9.31045818329,90.675239563,0.0014380000066,1.0,0.0,0.0,0.0,1.0,0.0,0.0,0.0,1.0,-1.2804877758,4.63414621353,3.47560977936,1.0,0.0,0.0,0.0,1.0,0.0,0.0,0.0,1.0,0.0861912597656,-1.43173259277,10.2519715088,1.0,0.0,0.0,0.0,1.0,0.0,0.0,0.0,1.0
1464076291862132061,525,1464076291825126692,,4.46622467041,-9.3197851181,90.7381820679,0.0024759999942,1.0,0.0,0.0,0.0,1.0,0.0,0.0,0.0,1.0,-1.2804877758,4.51219558716,4.45121955872,1.0,0.0,0.0,0.0,1.0,0.0,0.0,0.0,1.0,0.067037651051,-1.51792385254,10.2519715088,1.0,0.0,0.0,0.0,1.0,0.0,0.0,0.0,1.0
1464076291878949464,526,1464076291847262987,,4.51154708862,-9.3165512085,90.8283920288,0.00223500002176,1.0,0.0,0.0,0.0,1.0,0.0,0.0,0.0,1.0,-0.914634168148,3.90243911743,5.30487823486,1.0,0.0,0.0,0.0,1.0,0.0,0.0,0.0,1.0,0.210689746094,-1.49398183594,10.1466266357,1.0,0.0,0.0,0.0,1.0,0.0,0.0,0.0,1.0
1464076291879007797,527,1464076291868013556,,4.54895210266,-9.31449127197,90.9351654053,0.00124400004279,1.0,0.0,0.0,0.0,1.0,0.0,0.0,0.0,1.0,0.0609756112099,4.69512224197,6.52439069748,1.0,0.0,0.0,0.0,1.0,0.0,0.0,0.0,1.0,0.229843359375,-1.50355864258,10.1178962158,1.0,0.0,0.0,0.0,1.0,0.0,0.0,0.0,1.0
1464076291920634769,528,1464076291889155739,,4.60204458237,-9.29528808594,91.0679321289,0.00233700009994,1.0,0.0,0.0,0.0,1.0,0.0,0.0,0.0,1.0,0.304878056049,4.32926845551,7.31707334518,1.0,0.0,0.0,0.0,1.0,0.0,0.0,0.0,1.0,0.172382519531,-1.5083470459,10.2376062988,1.0,0.0,0.0,0.0,1.0,0.0,0.0,0.0,1.0
1464076291922281900,529,1464076291910758233,,4.65097093582,-9.26125144958,91.2011413574,0.00211500003934,1.0,0.0,0.0,0.0,1.0,0.0,0.0,0.0,1.0,0.914634168148,3.84146332741,6.89024400711,1.0,0.0,0.0,0.0,1.0,0.0,0.0,0.0,1.0,0.148440512063,-1.5562310791,10.2376062988,1.0,0.0,0.0,0.0,1.0,0.0,0.0,0.0,1.0
1464076291958261231,530,1464076291931809010,,4.67724323273,-9.21852684021,91.3314208984,0.00122600002214,1.0,0.0,0.0,0.0,1.0,0.0,0.0,0.0,1.0,1.64634156227,3.41463422775,7.19512224197,1.0,0.0,0.0,0.0,1.0,0.0,0.0,0.0,1.0,0.220266552734,-1.57538469238,10.1562034424,1.0,0.0,0.0,0.0,1.0,0.0,0.0,0.0,1.0
1464076291958319199,531,1464076291952507756,,4.70433425903,-9.17620849609,91.4596786499,0.00122099998407,1.0,0.0,0.0,0.0,1.0,0.0,0.0,0.0,1.0,1.8292683363,3.10975623131,6.7682929039,1.0,0.0,0.0,0.0,1.0,0.0,0.0,0.0,1.0,0.138863696289,-1.68072956543,10.0843773926,1.0,0.0,0.0,0.0,1.0,0.0,0.0,0.0,1.0
1464076292005793655,532,1464076291973348117,,4.72081947327,-9.11562919617,91.5804214478,0.00117800000589,1.0,0.0,0.0,0.0,1.0,0.0,0.0,0.0,1.0,3.17073178291,2.86585378647,6.46341466904,1.0,0.0,0.0,0.0,1.0,0.0,0.0,0.0,1.0,0.172382519531,-1.56101948242,10.0412817627,1.0,0.0,0.0,0.0,1.0,0.0,0.0,0.0,1.0
1464076292005836311,533,1464076291997072429,,4.7336192131,-9.02938747406,91.6956710815,0.00405600015074,1.0,0.0,0.0,0.0,1.0,0.0,0.0,0.0,1.0,3.23170733452,3.47560977936,6.34146356583,1.0,0.0,0.0,0.0,1.0,0.0,0.0,0.0,1.0,0.177170922852,-1.49398183594,9.90241806641,1.0,0.0,0.0,0.0,1.0,0.0,0.0,0.0,1.0
1464076292020504293,534,1464076292017024719,,4.7603764534,-8.94677352905,91.8142852783,0.0012450000504,1.0,0.0,0.0,0.0,1.0,0.0,0.0,0.0,1.0,2.92682933807,4.39024400711,6.21951246262,1.0,0.0,0.0,0.0,1.0,0.0,0.0,0.0,1.0,-0.0383072265625,-1.36948334961,9.98860932617,1.0,0.0,0.0,0.0,1.0,0.0,0.0,0.0,1.0
1464076292127588485,535,1464076292036682479,,4.8111872673,-8.86911487579,91.9317016602,0.00147599994671,1.0,0.0,0.0,0.0,1.0,0.0,0.0,0.0,1.0,2.37804889679,3.29268312454,6.21951246262,1.0,0.0,0.0,0.0,1.0,0.0,0.0,0.0,1.0,-0.0191536132812,-1.25456166992,9.97903251953,1.0,0.0,0.0,0.0,1.0,0.0,0.0,0.0,1.0
1464076292144380263,536,1464076292057333725,,4.85473680496,-8.79669475555,92.0419311523,0.0014159999555,1.0,0.0,0.0,0.0,1.0,0.0,0.0,0.0,1.0,0.304878056049,2.68292689323,5.85365867615,1.0,0.0,0.0,0.0,1.0,0.0,0.0,0.0,1.0,-0.349553442383,-1.05823706072,9.97424411621,1.0,0.0,0.0,0.0,1.0,0.0,0.0,0.0,1.0
1464076292144432659,537,1464076292078104868,,4.87981796265,-8.77353477478,92.1472702026,0.00139300001319,1.0,0.0,0.0,0.0,1.0,0.0,0.0,0.0,1.0,-1.64634156227,0.853658556938,5.42682933807,1.0,0.0,0.0,0.0,1.0,0.0,0.0,0.0,1.0,-0.31124621582,-1.24498486328,9.7348239502,1.0,0.0,0.0,0.0,1.0,0.0,0.0,0.0,1.0
1464076292144468440,538,1464076292098068043,,4.88037824631,-8.79469013214,92.2609405518,0.00127100001555,1.0,0.0,0.0,0.0,1.0,0.0,0.0,0.0,1.0,-2.68292689323,1.2195122242,6.52439069748,1.0,0.0,0.0,0.0,1.0,0.0,0.0,0.0,1.0,-0.248996972656,-1.35511813965,9.8545340332,1.0,0.0,0.0,0.0,1.0,0.0,0.0,0.0,1.0
1464076292180097302,539,1464076292120179390,,4.89651203156,-8.83645915985,92.4094772339,0.00214400002733,1.0,0.0,0.0,0.0,1.0,0.0,0.0,0.0,1.0,-2.31707310677,2.19512200356,7.86585378647,1.0,0.0,0.0,0.0,1.0,0.0,0.0,0.0,1.0,-0.124498486328,-1.41257897949,9.88326445312,1.0,0.0,0.0,0.0,1.0,0.0,0.0,0.0,1.0
1464076292180430583,540,1464076292140959230,,4.93944406509,-8.86252784729,92.5616760254,0.00254500005394,1.0,0.0,0.0,0.0,1.0,0.0,0.0,0.0,1.0,-1.2195122242,4.08536577225,8.65853691101,1.0,0.0,0.0,0.0,1.0,0.0,0.0,0.0,1.0,-0.0430956298828,-1.52271225586,9.67736311035,1.0,0.0,0.0,0.0,1.0,0.0,0.0,0.0,1.0
1464076292198223764,541,1464076292161667716,,5.02479362488,-8.85982131958,92.7249298096,0.00107500003651,1.0,0.0,0.0,0.0,1.0,0.0,0.0,0.0,1.0,-0.0609756112099,6.58536624908,9.08536529541,1.0,0.0,0.0,0.0,1.0,0.0,0.0,0.0,1.0,-0.0287304199219,-1.4604630127,9.58159562847,1.0,0.0,0.0,0.0,1.0,0.0,0.0,0.0,1.0
1464076292198444857,542,1464076292184723592,,5.17436313629,-8.83874130249,92.8877105713,0.00188700004946,1.0,0.0,0.0,0.0,1.0,0.0,0.0,0.0,1.0,1.34146344662,8.59756088257,9.20731735229,1.0,0.0,0.0,0.0,1.0,0.0,0.0,0.0,1.0,-0.119710083008,-1.5322890625,9.62947966167,1.0,0.0,0.0,0.0,1.0,0.0,0.0,0.0,1.0
1464076292247136185,543,1464076292204884736,,5.36334466934,-8.79601860046,93.0327072144,0.00123699998949,1.0,0.0,0.0,0.0,1.0,0.0,0.0,0.0,1.0,1.58536589146,8.29268264771,7.86585378647,1.0,0.0,0.0,0.0,1.0,0.0,0.0,0.0,1.0,-0.526724328702,-1.55144267578,9.92157167969,1.0,0.0,0.0,0.0,1.0,0.0,0.0,0.0,1.0
1464076292247760871,544,1464076292225717336,,5.52186489105,-8.74308681488,93.1583709717,0.00171700003557,1.0,0.0,0.0,0.0,1.0,0.0,0.0,0.0,1.0,2.37804889679,6.40243911743,7.37804937363,1.0,0.0,0.0,0.0,1.0,0.0,0.0,0.0,1.0,-0.46447512207,-1.5083470459,9.99818613281,1.0,0.0,0.0,0.0,1.0,0.0,0.0,0.0,1.0
1464076292297148603,545,1464076292246817592,,5.64755964279,-8.6800031662,93.2903137207,0.00133999995887,1.0,0.0,0.0,0.0,1.0,0.0,0.0,0.0,1.0,1.34146344662,5.91463422775,7.74390268326,1.0,0.0,0.0,0.0,1.0,0.0,0.0,0.0,1.0,-0.531512805087,-1.27850368652,10.1945106689,1.0,0.0,0.0,0.0,1.0,0.0,0.0,0.0,1.0
1464076292297203655,546,1464076292267602432,,5.77835226059,-8.6385269165,93.4278259277,0.00128199998289,1.0,0.0,0.0,0.0,1.0,0.0,0.0,0.0,1.0,-1.2195122242,4.57317066193,7.56097555161,1.0,0.0,0.0,0.0,1.0,0.0,0.0,0.0,1.0,-0.660799658203,-1.19710090314,10.2567599121,1.0,0.0,0.0,0.0,1.0,0.0,0.0,0.0,1.0
1464076292373150691,547,1464076292288433627,,5.8709692955,-8.64656639099,93.5779571533,0.00119800004177,1.0,0.0,0.0,0.0,1.0,0.0,0.0,0.0,1.0,-5.12195110321,2.07317066193,7.92682981491,1.0,0.0,0.0,0.0,1.0,0.0,0.0,0.0,1.0,-0.517147558594,-1.07739082014,10.2423947021,1.0,0.0,0.0,0.0,1.0,0.0,0.0,0.0,1.0
1464076292373240535,548,1464076292309617320,,5.92989015579,-8.74181365967,93.7537994385,0.00129499996547,1.0,0.0,0.0,0.0,1.0,0.0,0.0,0.0,1.0,-9.02439117432,-0.12195122242,8.90243911743,1.0,0.0,0.0,0.0,1.0,0.0,0.0,0.0,1.0,-0.842758984375,-1.24019645996,10.3333743652,1.0,0.0,0.0,0.0,1.0,0.0,0.0,0.0,1.0
1464076292373285534,549,1464076292331068044,,5.92914485931,-8.91326332092,93.9625091553,0.00117299996782,1.0,0.0,0.0,0.0,1.0,0.0,0.0,0.0,1.0,-11.8902444839,-4.39024400711,10.0609760284,1.0,0.0,0.0,0.0,1.0,0.0,0.0,0.0,1.0,-0.837970581055,-1.27850368652,10.419565625,1.0,0.0,0.0,0.0,1.0,0.0,0.0,0.0,1.0
1464076292373324701,550,1464076292351946529,,5.86175918579,-9.14304161072,94.2042770386,0.00120199995581,1.0,0.0,0.0,0.0,1.0,0.0,0.0,0.0,1.0,-15.4268302917,-6.89024400711,11.6463422775,1.0,0.0,0.0,0.0,1.0,0.0,0.0,0.0,1.0,-0.833182177734,-1.38863696289,10.5823713379,1.0,0.0,0.0,0.0,1.0,0.0,0.0,0.0,1.0
1464076292407759661,551,1464076292372566682,,5.74895334244,-9.42486667633,94.4913635254,0.00124899996445,1.0,0.0,0.0,0.0,1.0,0.0,0.0,0.0,1.0,-17.134147644,-9.32926845551,13.4146347046,1.0,0.0,0.0,0.0,1.0,0.0,0.0,0.0,1.0,-0.881066210937,-1.49877023926,10.8600987305,1.0,0.0,0.0,0.0,1.0,0.0,0.0,0.0,1.0
1464076292407963566,552,1464076292393440012,,5.59208679199,-9.73854064941,94.82447052,0.0012300000526,1.0,0.0,0.0,0.0,1.0,0.0,0.0,0.0,1.0,-19.0243911743,-11.9512195587,14.8170728683,1.0,0.0,0.0,0.0,1.0,0.0,0.0,0.0,1.0,-0.727837304687,-1.38863696289,11.01811604,1.0,0.0,0.0,0.0,1.0,0.0,0.0,0.0,1.0
1464076292447329190,553,1464076292414466257,,5.39795017242,-10.0783929825,95.1790008545,0.001215999946,1.0,0.0,0.0,0.0,1.0,0.0,0.0,0.0,1.0,-20.3658542633,-13.5975618362,15.4878053665,1.0,0.0,0.0,0.0,1.0,0.0,0.0,0.0,1.0,-0.866701000977,-1.57059628906,11.0276928467,1.0,0.0,0.0,0.0,1.0,0.0,0.0,0.0,1.0
1464076292447783720,554,1464076292435125421,,5.17972898483,-10.4345531464,95.5500869751,0.00126900000032,1.0,0.0,0.0,0.0,1.0,0.0,0.0,0.0,1.0,-20.5487823486,-14.8170728683,15.4268302917,1.0,0.0,0.0,0.0,1.0,0.0,0.0,0.0,1.0,-0.732625708008,-1.50355864258,10.8888291504,1.0,0.0,0.0,0.0,1.0,0.0,0.0,0.0,1.0
1464076292531739172,555,1464076292455762292,,4.94550943375,-10.7814903259,95.911026001,0.00120499997865,1.0,0.0,0.0,0.0,1.0,0.0,0.0,0.0,1.0,-21.0365848541,-14.2073173523,14.8170728683,1.0,0.0,0.0,0.0,1.0,0.0,0.0,0.0,1.0,-0.550666381836,-1.4844050293,10.912771167,1.0,0.0,0.0,0.0,1.0,0.0,0.0,0.0,1.0
1464076292536696815,556,1464076292476716299,,4.72543668747,-11.1376094818,96.2579040527,0.00120900000911,1.0,0.0,0.0,0.0,1.0,0.0,0.0,0.0,1.0,-20.2439022064,-14.3902444839,13.3536586761,1.0,0.0,0.0,0.0,1.0,0.0,0.0,0.0,1.0,-0.531512805087,-1.57059628906,10.6398321777,1.0,0.0,0.0,0.0,1.0,0.0,0.0,0.0,1.0
1464076292536752440,557,1464076292498553636,,4.49242687225,-11.4707574844,96.5865859985,0.00126199994702,1.0,0.0,0.0,0.0,1.0,0.0,0.0,0.0,1.0,-18.5975627899,-13.9634151459,12.0731716156,1.0,0.0,0.0,0.0,1.0,0.0,0.0,0.0,1.0,-0.560243188477,-1.56101948242,10.5727945312,1.0,0.0,0.0,0.0,1.0,0.0,0.0,0.0,1.0
1464076292539361443,558,1464076292519177435,,4.2774515152,-11.7647647858,96.8879394531,0.00118200003635,1.0,0.0,0.0,0.0,1.0,0.0,0.0,0.0,1.0,-17.2560977936,-14.2073173523,11.341463089,1.0,0.0,0.0,0.0,1.0,0.0,0.0,0.0,1.0,-0.732625708008,-1.52750065918,10.4530844482,1.0,0.0,0.0,0.0,1.0,0.0,0.0,0.0,1.0
1464076292660166119,559,1464076292539921806,,4.05683279037,-12.019490242,97.1802902222,0.00139400002081,1.0,0.0,0.0,0.0,1.0,0.0,0.0,0.0,1.0,-14.8780498505,-14.4512205124,11.4024391174,1.0,0.0,0.0,0.0,1.0,0.0,0.0,0.0,1.0,-0.737414111328,-1.63763393555,10.4866032715,1.0,0.0,0.0,0.0,1.0,0.0,0.0,0.0,1.0
1464076292660471327,560,1464076292561330395,,3.83439326286,-12.2300682068,97.4927215576,0.00127500004601,1.0,0.0,0.0,0.0,1.0,0.0,0.0,0.0,1.0,-12.6219520569,-15.3658533096,11.9512195587,1.0,0.0,0.0,0.0,1.0,0.0,0.0,0.0,1.0,-0.636857641602,-1.54665427246,10.2807019287,1.0,0.0,0.0,0.0,1.0,0.0,0.0,0.0,1.0
1464076292661015648,561,1464076292582424817,,3.61303830147,-12.3783912659,97.8147506714,0.00121999997646,1.0,0.0,0.0,0.0,1.0,0.0,0.0,0.0,1.0,-9.93902492523,-16.7073173523,12.2560977936,1.0,0.0,0.0,0.0,1.0,0.0,0.0,0.0,1.0,-0.560243188477,-1.54665427246,9.99339772949,1.0,0.0,0.0,0.0,1.0,0.0,0.0,0.0,1.0
1464076292661383095,562,1464076292603682625,,3.35104513168,-12.4780540466,98.1373977661,0.0012309999438,1.0,0.0,0.0,0.0,1.0,0.0,0.0,0.0,1.0,-8.17073154449,-17.9878044128,11.4024391174,1.0,0.0,0.0,0.0,1.0,0.0,0.0,0.0,1.0,-0.430956298828,-1.57059628906,9.90720646973,1.0,0.0,0.0,0.0,1.0,0.0,0.0,0.0,1.0
1464076292662884081,563,1464076292624612621,,3.08017110825,-12.5336637497,98.4543609619,0.00123499997426,1.0,0.0,0.0,0.0,1.0,0.0,0.0,0.0,1.0,-5.79268312454,-18.7195110321,11.341463089,1.0,0.0,0.0,0.0,1.0,0.0,0.0,0.0,1.0,-0.651222851562,-1.4604630127,10.0029745361,1.0,0.0,0.0,0.0,1.0,0.0,0.0,0.0,1.0
1464076292665355376,564,1464076292645795741,,2.77984023094,-12.5417833328,98.7677383423,0.00128099997528,1.0,0.0,0.0,0.0,1.0,0.0,0.0,0.0,1.0,-3.96341490746,-20.0,10.548781395,1.0,0.0,0.0,0.0,1.0,0.0,0.0,0.0,1.0,-0.651222851562,-1.38863696289,9.81143840332,1.0,0.0,0.0,0.0,1.0,0.0,0.0,0.0,1.0
1464076292709168384,565,1464076292666525738,,2.46654939651,-12.5220489502,99.0563201904,0.00135599996429,1.0,0.0,0.0,0.0,1.0,0.0,0.0,0.0,1.0,-2.80487799644,-19.9390239716,9.20731735229,1.0,0.0,0.0,0.0,1.0,0.0,0.0,0.0,1.0,-0.569819995117,-1.44609780273,9.80186159668,1.0,0.0,0.0,0.0,1.0,0.0,0.0,0.0,1.0
1464076292710783796,566,1464076292687036464,,2.1589474678,-12.4805030823,99.2944869995,0.00119099998847,1.0,0.0,0.0,0.0,1.0,0.0,0.0,0.0,1.0,-2.19512200356,-19.1463432312,5.97560977936,1.0,0.0,0.0,0.0,1.0,0.0,0.0,0.0,1.0,-0.435744702148,-1.42215578613,9.90241806641,1.0,0.0,0.0,0.0,1.0,0.0,0.0,0.0,1.0
1464076292748110154,567,1464076292709513748,,1.84619820118,-12.4182348251,99.4652252197,0.00122900004499,1.0,0.0,0.0,0.0,1.0,0.0,0.0,0.0,1.0,-1.70731711388,-20.1219520569,2.43902444839,1.0,0.0,0.0,0.0,1.0,0.0,0.0,0.0,1.0,-0.560243188477,-1.26413847656,9.79707319336,1.0,0.0,0.0,0.0,1.0,0.0,0.0,0.0,1.0
1464076292748587861,568,1464076292729421559,,1.51228511333,-12.3774795532,99.573097229,0.00126799999271,1.0,0.0,0.0,0.0,1.0,0.0,0.0,0.0,1.0,-2.5,-18.841463089,0.487804889679,1.0,0.0,0.0,0.0,1.0,0.0,0.0,0.0,1.0,-0.478840332031,-1.34554133301,9.76834277344,1.0,0.0,0.0,0.0,1.0,0.0,0.0,0.0,1.0
1464076292778430906,569,1464076292752482799,,1.18997061253,-12.3570518494,99.6300201416,0.00303000002168,1.0,0.0,0.0,0.0,1.0,0.0,0.0,0.0,1.0,-2.37804889679,-13.2317075729,-0.548780500889,1.0,0.0,0.0,0.0,1.0,0.0,0.0,0.0,1.0,0.521935925381,-1.55144267578,9.70130512695,1.0,0.0,0.0,0.0,1.0,0.0,0.0,0.0,1.0
1464076292778749187,570,1464076292773047952,,1.07359611988,-12.3567657471,99.6487884521,0.00176899996586,1.0,0.0,0.0,0.0,1.0,0.0,0.0,0.0,1.0,0.0609756112099,-2.19512200356,0.487804889679,1.0,0.0,0.0,0.0,1.0,0.0,0.0,0.0,1.0,0.134075302102,-2.06859023437,9.7827079834,1.0,0.0,0.0,0.0,1.0,0.0,0.0,0.0,1.0
1464076292821556676,571,1464076292794280291,,1.10803973675,-12.3070650101,99.6748123169,0.00163199997041,1.0,0.0,0.0,0.0,1.0,0.0,0.0,0.0,1.0,2.37804889679,8.17073154449,4.51219558716,1.0,0.0,0.0,0.0,1.0,0.0,0.0,0.0,1.0,0.684741674805,-1.95366855469,10.2088758789,1.0,0.0,0.0,0.0,1.0,0.0,0.0,0.0,1.0
1464076292821683968,572,1464076292814556174,,1.37402558327,-12.2138252258,99.7603912354,0.0012009999482,1.0,0.0,0.0,0.0,1.0,0.0,0.0,0.0,1.0,1.8902438879,19.7560977936,10.1219511032,1.0,0.0,0.0,0.0,1.0,0.0,0.0,0.0,1.0,0.751779321289,-1.55144267578,10.0508585693,1.0,0.0,0.0,0.0,1.0,0.0,0.0,0.0,1.0
1464076292955231214,573,1464076292835279035,,1.8389787674,-12.1253795624,99.870300293,0.00120199995581,1.0,0.0,0.0,0.0,1.0,0.0,0.0,0.0,1.0,-0.609756112099,29.9390258789,11.4024391174,1.0,0.0,0.0,0.0,1.0,0.0,0.0,0.0,1.0,0.928950244141,-1.17794714373,9.97424411621,1.0,0.0,0.0,0.0,1.0,0.0,0.0,0.0,1.0
1464076292955290849,574,1464076292856233250,,2.5068333149,-12.0929021835,99.916557312,0.00114599999506,1.0,0.0,0.0,0.0,1.0,0.0,0.0,0.0,1.0,-2.68292689323,33.1707305908,7.07317113876,1.0,0.0,0.0,0.0,1.0,0.0,0.0,0.0,1.0,-0.445321508789,-1.41736738281,9.80186159668,1.0,0.0,0.0,0.0,1.0,0.0,0.0,0.0,1.0
1464076292955331422,575,1464076292876642622,,3.11896657944,-12.109913826,99.8645629883,0.00115899997763,1.0,0.0,0.0,0.0,1.0,0.0,0.0,0.0,1.0,-5.06097555161,22.9268302917,1.8902438879,1.0,0.0,0.0,0.0,1.0,0.0,0.0,0.0,1.0,-0.569819995117,-1.4844050293,9.90241806641,1.0,0.0,0.0,0.0,1.0,0.0,0.0,0.0,1.0
1464076292955369130,576,1464076292897943763,,3.53352451324,-12.2025766373,99.8256454468,0.00116400001571,1.0,0.0,0.0,0.0,1.0,0.0,0.0,0.0,1.0,-7.19512224197,15.1219511032,3.23170733452,1.0,0.0,0.0,0.0,1.0,0.0,0.0,0.0,1.0,0.105344873047,-1.80043964844,10.4530844482,1.0,0.0,0.0,0.0,1.0,0.0,0.0,0.0,1.0
1464076292955453453,577,1464076292919531622,,3.79369497299,-12.3497333527,99.8642883301,0.00123599998187,1.0,0.0,0.0,0.0,1.0,0.0,0.0,0.0,1.0,-7.98780536652,14.5731706619,7.68292665482,1.0,0.0,0.0,0.0,1.0,0.0,0.0,0.0,1.0,0.536301208408,-1.95366855469,10.419565625,1.0,0.0,0.0,0.0,1.0,0.0,0.0,0.0,1.0
1464076292988768415,578,1464076292940987918,,4.08283138275,-12.5027799606,100.003410339,0.00118300004397,1.0,0.0,0.0,0.0,1.0,0.0,0.0,0.0,1.0,-7.74390268326,19.6951236725,12.8658542633,1.0,0.0,0.0,0.0,1.0,0.0,0.0,0.0,1.0,0.742202514648,-2.1691467041,10.2328178955,1.0,0.0,0.0,0.0,1.0,0.0,0.0,0.0,1.0
1464076292988903884,579,1464076292961917967,,4.50586175919,-12.6394987106,100.152893066,0.00119900004938,1.0,0.0,0.0,0.0,1.0,0.0,0.0,0.0,1.0,-5.30487823486,19.0853652954,11.4024391174,1.0,0.0,0.0,0.0,1.0,0.0,0.0,0.0,1.0,-0.521935925381,-2.28406838379,9.79228479004,1.0,0.0,0.0,0.0,1.0,0.0,0.0,0.0,1.0
1464076293023950092,580,1464076292983036139,,4.840259552,-12.7235994339,100.306915283,0.00135999999475,1.0,0.0,0.0,0.0,1.0,0.0,0.0,0.0,1.0,-2.43902444839,10.1829271317,11.8292684555,1.0,0.0,0.0,0.0,1.0,0.0,0.0,0.0,1.0,-0.15801730957,-2.26012636719,9.98860932617,1.0,0.0,0.0,0.0,1.0,0.0,0.0,0.0,1.0
1464076293024195560,581,1464076293004300457,,5.0192732811,-12.7618579865,100.554634094,0.00129199994262,1.0,0.0,0.0,0.0,1.0,0.0,0.0,0.0,1.0,-0.548780500889,7.98780536652,16.8292694092,1.0,0.0,0.0,0.0,1.0,0.0,0.0,0.0,1.0,0.201112939453,-2.5234885498,10.2088758789,1.0,0.0,0.0,0.0,1.0,0.0,0.0,0.0,1.0
1464076293072208035,582,1464076293025675244,,5.17221879959,-12.7405281067,100.936660767,0.00118799996562,1.0,0.0,0.0,0.0,1.0,0.0,0.0,0.0,1.0,2.25609779358,5.54878091812,22.5609760284,1.0,0.0,0.0,0.0,1.0,0.0,0.0,0.0,1.0,0.296881024126,-2.48996972656,10.0700121826,1.0,0.0,0.0,0.0,1.0,0.0,0.0,0.0,1.0
1464076293074436311,583,1464076293046555969,,5.29133892059,-12.648888588,101.421783447,0.00130200001877,1.0,0.0,0.0,0.0,1.0,0.0,0.0,0.0,1.0,4.14634132385,7.19512224197,27.5,1.0,0.0,0.0,0.0,1.0,0.0,0.0,0.0,1.0,0.641646044922,-2.22181914063,9.8784760498,1.0,0.0,0.0,0.0,1.0,0.0,0.0,0.0,1.0
1464076293103534774,584,1464076293067779506,,5.47474336624,-12.526632309,101.942939758,0.00140499998815,1.0,0.0,0.0,0.0,1.0,0.0,0.0,0.0,1.0,6.28048801422,10.1829271317,28.475610733,1.0,0.0,0.0,0.0,1.0,0.0,0.0,0.0,1.0,0.234631762695,-2.26970317383,9.16021555176,1.0,0.0,0.0,0.0,1.0,0.0,0.0,0.0,1.0
1464076293103581858,585,1464076293090362830,,5.71396160126,-12.3736801147,102.505645752,0.00425799982622,1.0,0.0,0.0,0.0,1.0,0.0,0.0,0.0,1.0,8.29268264771,5.06097555161,25.9146347046,1.0,0.0,0.0,0.0,1.0,0.0,0.0,0.0,1.0,-0.162805712891,-2.49475812988,9.33259748677,1.0,0.0,0.0,0.0,1.0,0.0,0.0,0.0,1.0
1464076293140872070,586,1464076293111233139,,5.80618429184,-12.1793479919,103.014358521,0.00129100005142,1.0,0.0,0.0,0.0,1.0,0.0,0.0,0.0,1.0,9.08536529541,0.243902444839,25.9146347046,1.0,0.0,0.0,0.0,1.0,0.0,0.0,0.0,1.0,0.119710083008,-2.37504819301,10.0269165527,1.0,0.0,0.0,0.0,1.0,0.0,0.0,0.0,1.0
1464076293140926445,587,1464076293132863706,,5.79040431976,-11.9542970657,103.571342468,0.00121100002434,1.0,0.0,0.0,0.0,1.0,0.0,0.0,0.0,1.0,8.35365867615,-2.68292689323,26.2804889679,1.0,0.0,0.0,0.0,1.0,0.0,0.0,0.0,1.0,0.272938989258,-2.17872351074,10.2088758789,1.0,0.0,0.0,0.0,1.0,0.0,0.0,0.0,1.0
1464076293179086030,588,1464076293154344482,,5.72698640823,-11.7619771957,104.10484314,0.00124699994922,1.0,0.0,0.0,0.0,1.0,0.0,0.0,0.0,1.0,7.80487823486,-5.36585378647,23.0487823486,1.0,0.0,0.0,0.0,1.0,0.0,0.0,0.0,1.0,0.277727392578,-2.41814367676,9.87368764648,1.0,0.0,0.0,0.0,1.0,0.0,0.0,0.0,1.0
1464076293179877070,589,1464076293175523800,,5.59876060486,-11.601269722,104.561935425,0.00126100005582,1.0,0.0,0.0,0.0,1.0,0.0,0.0,0.0,1.0,7.86585378647,-4.63414621353,19.3902435303,1.0,0.0,0.0,0.0,1.0,0.0,0.0,0.0,1.0,0.517147558594,-2.40856701625,9.88805285645,1.0,0.0,0.0,0.0,1.0,0.0,0.0,0.0,1.0
1464076293219165766,590,1464076293196579785,,5.505818367,-11.4470081329,104.93989563,0.00126799999271,1.0,0.0,0.0,0.0,1.0,0.0,0.0,0.0,1.0,9.08536529541,-2.92682933807,17.0121955872,1.0,0.0,0.0,0.0,1.0,0.0,0.0,0.0,1.0,0.0526724365234,-2.30801040039,9.78749638672,1.0,0.0,0.0,0.0,1.0,0.0,0.0,0.0,1.0
1464076293223580911,591,1464076293217596031,,5.42589855194,-11.2669143677,105.282928467,0.00166700000409,1.0,0.0,0.0,0.0,1.0,0.0,0.0,0.0,1.0,9.02439117432,-0.975609779358,16.2804889679,1.0,0.0,0.0,0.0,1.0,0.0,0.0,0.0,1.0,0.301669427446,-2.21224233398,9.99818613281,1.0,0.0,0.0,0.0,1.0,0.0,0.0,0.0,1.0
1464076293241102114,592,1464076293238760401,,5.40812492371,-11.1120948792,105.60005188,0.00142500002403,1.0,0.0,0.0,0.0,1.0,0.0,0.0,0.0,1.0,8.17073154449,3.47560977936,16.5853652954,1.0,0.0,0.0,0.0,1.0,0.0,0.0,0.0,1.0,0.421379492187,-2.56179577637,10.1131078125,1.0,0.0,0.0,0.0,1.0,0.0,0.0,0.0,1.0
1464076293264727988,593,1464076293259725293,,5.51693296432,-10.972325325,105.911392212,0.00187299994286,1.0,0.0,0.0,0.0,1.0,0.0,0.0,0.0,1.0,8.5365858078,7.07317113876,16.6463413239,1.0,0.0,0.0,0.0,1.0,0.0,0.0,0.0,1.0,-0.268150604204,-2.45645090332,10.2519715088,1.0,0.0,0.0,0.0,1.0,0.0,0.0,0.0,1.0
1464076293282319139,594,1464076293280560081,,5.67684745789,-10.8349924088,106.222663879,0.00144899997395,1.0,0.0,0.0,0.0,1.0,0.0,0.0,0.0,1.0,8.65853691101,4.81707286835,17.317073822,1.0,0.0,0.0,0.0,1.0,0.0,0.0,0.0,1.0,-0.344765039063,-2.60010300293,10.1945106689,1.0,0.0,0.0,0.0,1.0,0.0,0.0,0.0,1.0
1464076293326211156,595,1464076293300931953,,5.80629873276,-10.6863708496,106.566642761,0.00115000002552,1.0,0.0,0.0,0.0,1.0,0.0,0.0,0.0,1.0,8.84146404266,1.8292683363,18.7195110321,1.0,0.0,0.0,0.0,1.0,0.0,0.0,0.0,1.0,-0.890643017578,-2.4277204834,10.0891657959,1.0,0.0,0.0,0.0,1.0,0.0,0.0,0.0,1.0
1464076293339502840,596,1464076293329522918,,5.85214424133,-10.4887256622,107.110954285,0.0112100001425,1.0,0.0,0.0,0.0,1.0,0.0,0.0,0.0,1.0,5.60975599289,-2.25609779358,21.0975627899,1.0,0.0,0.0,0.0,1.0,0.0,0.0,0.0,1.0,-0.138863696289,-2.25533796387,10.2567599121,1.0,0.0,0.0,0.0,1.0,0.0,0.0,0.0,1.0
1464076293359390130,597,1464076293350332446,,5.87947320938,-10.3919992447,107.579246521,0.00308699999005,1.0,0.0,0.0,0.0,1.0,0.0,0.0,0.0,1.0,4.63414621353,-1.2804877758,24.4512195587,1.0,0.0,0.0,0.0,1.0,0.0,0.0,0.0,1.0,-0.497993945312,-2.27449157715,9.97424411621,1.0,0.0,0.0,0.0,1.0,0.0,0.0,0.0,1.0
1464076293409988067,598,1464076293371965825,,5.92838335037,-10.3082437515,108.126777649,0.00146699999459,1.0,0.0,0.0,0.0,1.0,0.0,0.0,0.0,1.0,2.31707310677,-2.62195134163,27.3780498505,1.0,0.0,0.0,0.0,1.0,0.0,0.0,0.0,1.0,-0.45968671875,-2.05901342773,9.60553764507,1.0,0.0,0.0,0.0,1.0,0.0,0.0,0.0,1.0
1464076293410482076,599,1464076293393510351,,5.96425962448,-10.2729854584,108.745498657,0.00218500010669,1.0,0.0,0.0,0.0,1.0,0.0,0.0,0.0,1.0,-0.243902444839,0.548780500889,31.8292694092,1.0,0.0,0.0,0.0,1.0,0.0,0.0,0.0,1.0,-0.191536132812,-2.07337849156,9.72524714355,1.0,0.0,0.0,0.0,1.0,0.0,0.0,0.0,1.0
1464076293451807070,600,1464076293413707641,,6.09728240967,-10.2717199326,109.429153442,0.00191099999938,1.0,0.0,0.0,0.0,1.0,0.0,0.0,0.0,1.0,-3.47560977936,0.853658556938,35.1829299927,1.0,0.0,0.0,0.0,1.0,0.0,0.0,0.0,1.0,-0.502782348633,-1.85311208496,9.71567033691,1.0,0.0,0.0,0.0,1.0,0.0,0.0,0.0,1.0
1464076293451871757,601,1464076293436048674,,6.22946071625,-10.3304224014,110.220909119,0.00203399988823,1.0,0.0,0.0,0.0,1.0,0.0,0.0,0.0,1.0,-6.70731735229,2.25609779358,37.2560958862,1.0,0.0,0.0,0.0,1.0,0.0,0.0,0.0,1.0,-0.426167895508,-1.93930334473,9.44273076313,1.0,0.0,0.0,0.0,1.0,0.0,0.0,0.0,1.0
1464076293462155792,602,1464076293458934394,,6.36983919144,-10.465880394,111.026947021,0.00384599994868,1.0,0.0,0.0,0.0,1.0,0.0,0.0,0.0,1.0,-8.96341514587,0.304878056049,35.5487823486,1.0,0.0,0.0,0.0,1.0,0.0,0.0,0.0,1.0,-0.220266552734,-2.07337849156,9.50498117534,1.0,0.0,0.0,0.0,1.0,0.0,0.0,0.0,1.0
1464076293483625995,603,1464076293480878502,,6.45744514465,-10.6378116608,111.74243927,0.00169900001492,1.0,0.0,0.0,0.0,1.0,0.0,0.0,0.0,1.0,-7.92682981491,0.365853667259,33.1707305908,1.0,0.0,0.0,0.0,1.0,0.0,0.0,0.0,1.0,-0.330399829102,-2.46123930664,9.74918916016,1.0,0.0,0.0,0.0,1.0,0.0,0.0,0.0,1.0
1464076293515188046,604,1464076293503008703,,6.49674129486,-10.7884178162,112.433525085,0.00397600000724,1.0,0.0,0.0,0.0,1.0,0.0,0.0,0.0,1.0,-7.50000047684,-0.609756112099,29.0243911743,1.0,0.0,0.0,0.0,1.0,0.0,0.0,0.0,1.0,0.0526724365234,-2.07816689489,9.80186159668,1.0,0.0,0.0,0.0,1.0,0.0,0.0,0.0,1.0
1464076293526863639,605,1464076293524439167,,6.506067276,-10.9259901047,112.954223633,0.00152599997818,1.0,0.0,0.0,0.0,1.0,0.0,0.0,0.0,1.0,-6.15853643417,0.731707334518,23.5975627899,1.0,0.0,0.0,0.0,1.0,0.0,0.0,0.0,1.0,0.177170922852,-2.32237546422,9.63905646831,1.0,0.0,0.0,0.0,1.0,0.0,0.0,0.0,1.0
1464076293548415196,606,1464076293545091611,,6.51082134247,-11.0506191254,113.359428406,0.00195900001563,1.0,0.0,0.0,0.0,1.0,0.0,0.0,0.0,1.0,-2.5,0.609756112099,17.4390239716,1.0,0.0,0.0,0.0,1.0,0.0,0.0,0.0,1.0,0.181959326172,-2.60010300293,9.52413478862,1.0,0.0,0.0,0.0,1.0,0.0,0.0,0.0,1.0
1464076293570630657,607,1464076293566061190,,6.49406147003,-11.1087789536,113.64200592,0.00155100005213,1.0,0.0,0.0,0.0,1.0,0.0,0.0,0.0,1.0,0.243902444839,2.98780488968,12.1951217651,1.0,0.0,0.0,0.0,1.0,0.0,0.0,0.0,1.0,0.296881024126,-2.40856701625,9.86411083984,1.0,0.0,0.0,0.0,1.0,0.0,0.0,0.0,1.0
1464076293592808931,608,1464076293587307956,,6.52067565918,-11.1206350327,113.802627563,0.00167699996382,1.0,0.0,0.0,0.0,1.0,0.0,0.0,0.0,1.0,2.62195134163,6.21951246262,7.07317113876,1.0,0.0,0.0,0.0,1.0,0.0,0.0,0.0,1.0,0.0239420166016,-2.58094938965,10.2136642822,1.0,0.0,0.0,0.0,1.0,0.0,0.0,0.0,1.0
1464076293617533136,609,1464076293610786800,,6.58794403076,-11.09953022,113.843360901,0.00221600010991,1.0,0.0,0.0,0.0,1.0,0.0,0.0,0.0,1.0,6.64634132385,7.31707334518,1.40243899822,1.0,0.0,0.0,0.0,1.0,0.0,0.0,0.0,1.0,-0.0478840332031,-2.77248552246,10.3621047852,1.0,0.0,0.0,0.0,1.0,0.0,0.0,0.0,1.0
1464076293633917675,610,1464076293630666538,,6.65228271484,-11.015791893,113.785240173,0.00273799989372,1.0,0.0,0.0,0.0,1.0,0.0,0.0,0.0,1.0,8.5365858078,8.65853691101,-2.31707310677,1.0,0.0,0.0,0.0,1.0,0.0,0.0,0.0,1.0,0.244208569336,-2.76290871582,10.6302553711,1.0,0.0,0.0,0.0,1.0,0.0,0.0,0.0,1.0
1464076293654693661,611,1464076293651850804,,6.73869752884,-10.8997831345,113.636940002,0.00245200004429,1.0,0.0,0.0,0.0,1.0,0.0,0.0,0.0,1.0,10.548781395,13.2926826477,-5.79268312454,1.0,0.0,0.0,0.0,1.0,0.0,0.0,0.0,1.0,0.263362164351,-2.67192905273,10.658985791,1.0,0.0,0.0,0.0,1.0,0.0,0.0,0.0,1.0
1464076293677377350,612,1464076293675039804,,6.90461826324,-10.7404279709,113.327049255,0.00999800022691,1.0,0.0,0.0,0.0,1.0,0.0,0.0,0.0,1.0,11.6463422775,14.5731706619,-11.0365858078,1.0,0.0,0.0,0.0,1.0,0.0,0.0,0.0,1.0,0.00957680664062,-2.49475812988,10.3429511719,1.0,0.0,0.0,0.0,1.0,0.0,0.0,0.0,1.0
1464076293721783429,613,1464076293696532663,,7.04844760895,-10.6038856506,112.962036133,0.00183700001799,1.0,0.0,0.0,0.0,1.0,0.0,0.0,0.0,1.0,11.7682924271,12.9268293381,-15.1829271317,1.0,0.0,0.0,0.0,1.0,0.0,0.0,0.0,1.0,-0.0861912597656,-2.54264216309,10.405200415,1.0,0.0,0.0,0.0,1.0,0.0,0.0,0.0,1.0
1464076293722154522,614,1464076293717242556,,7.14026117325,-10.473107338,112.543708801,0.00238600000739,1.0,0.0,0.0,0.0,1.0,0.0,0.0,0.0,1.0,13.7804880142,9.69512176514,-18.2317085266,1.0,0.0,0.0,0.0,1.0,0.0,0.0,0.0,1.0,-0.253785375977,-2.7102362793,10.4004120117,1.0,0.0,0.0,0.0,1.0,0.0,0.0,0.0,1.0
1464076293743636391,615,1464076293740880774,,7.1387219429,-10.2847452164,112.055778503,0.002431999892,1.0,0.0,0.0,0.0,1.0,0.0,0.0,0.0,1.0,15.0609760284,10.548781395,-19.3292694092,1.0,0.0,0.0,0.0,1.0,0.0,0.0,0.0,1.0,0.526724328702,-2.26970317383,10.1226846191,1.0,0.0,0.0,0.0,1.0,0.0,0.0,0.0,1.0
1464076293763731077,616,1464076293761355302,,7.19335842133,-10.0778150558,111.59602356,0.00248900009319,1.0,0.0,0.0,0.0,1.0,0.0,0.0,0.0,1.0,12.3170728683,13.7804880142,-18.5365848541,1.0,0.0,0.0,0.0,1.0,0.0,0.0,0.0,1.0,0.205901342773,-1.83395847168,9.88805285645,1.0,0.0,0.0,0.0,1.0,0.0,0.0,0.0,1.0
1464076293796583489,617,1464076293782327225,,7.31024169922,-9.92928123474,111.144332886,0.00139300001319,1.0,0.0,0.0,0.0,1.0,0.0,0.0,0.0,1.0,9.08536529541,15.4878053665,-17.5609760284,1.0,0.0,0.0,0.0,1.0,0.0,0.0,0.0,1.0,-0.0814028564453,-1.90578452148,10.0029745361,1.0,0.0,0.0,0.0,1.0,0.0,0.0,0.0,1.0
1464076293821568786,618,1464076293804966331,,7.45517444611,-9.86569690704,110.676376343,0.00152199994773,1.0,0.0,0.0,0.0,1.0,0.0,0.0,0.0,1.0,7.86585378647,8.96341514587,-19.817073822,1.0,0.0,0.0,0.0,1.0,0.0,0.0,0.0,1.0,-0.569819995117,-2.32716386754,10.1131078125,1.0,0.0,0.0,0.0,1.0,0.0,0.0,0.0,1.0
1464076293833758754,619,1464076293826870335,,7.44704675674,-9.84330463409,110.185577393,0.00206100009382,1.0,0.0,0.0,0.0,1.0,0.0,0.0,0.0,1.0,8.41463470459,1.09756100178,-20.4268302917,1.0,0.0,0.0,0.0,1.0,0.0,0.0,0.0,1.0,-0.622492431641,-2.74375510254,10.8840407471,1.0,0.0,0.0,0.0,1.0,0.0,0.0,0.0,1.0
1464076293853994897,620,1464076293850048033,,7.30989074707,-9.81705665588,109.74672699,0.00246699992567,1.0,0.0,0.0,0.0,1.0,0.0,0.0,0.0,1.0,12.3170728683,-2.25609779358,-17.3780498505,1.0,0.0,0.0,0.0,1.0,0.0,0.0,0.0,1.0,-0.636857641602,-3.31357509766,10.9941740234,1.0,0.0,0.0,0.0,1.0,0.0,0.0,0.0,1.0
1464076293885379240,621,1464076293871675631,,7.13059329987,-9.70548725128,109.419761658,0.00166599999648,1.0,0.0,0.0,0.0,1.0,0.0,0.0,0.0,1.0,16.6463413239,-2.07317066193,-12.2560977936,1.0,0.0,0.0,0.0,1.0,0.0,0.0,0.0,1.0,-0.191536132812,-3.21780703125,10.8600987305,1.0,0.0,0.0,0.0,1.0,0.0,0.0,0.0,1.0
1464076293899868524,622,1464076293892230368,,6.98581647873,-9.47041797638,109.185585022,0.00248100003228,1.0,0.0,0.0,0.0,1.0,0.0,0.0,0.0,1.0,19.3292694092,1.64634156227,-7.31707334518,1.0,0.0,0.0,0.0,1.0,0.0,0.0,0.0,1.0,-0.0957680664062,-2.82036955566,10.6063133545,1.0,0.0,0.0,0.0,1.0,0.0,0.0,0.0,1.0
1464076293967704072,623,1464076293913106354,,6.94264173508,-9.18348312378,109.046813965,0.00123900000472,1.0,0.0,0.0,0.0,1.0,0.0,0.0,0.0,1.0,21.0975627899,0.243902444839,-4.2682929039,1.0,0.0,0.0,0.0,1.0,0.0,0.0,0.0,1.0,-0.474051928711,-2.63362182617,10.4147772217,1.0,0.0,0.0,0.0,1.0,0.0,0.0,0.0,1.0
1464076293968169018,624,1464076293934177703,,6.8667383194,-8.85257911682,108.962554932,0.00121100002434,1.0,0.0,0.0,0.0,1.0,0.0,0.0,0.0,1.0,20.4268302917,-1.46341466904,-2.86585378647,1.0,0.0,0.0,0.0,1.0,0.0,0.0,0.0,1.0,-0.497993945312,-2.1691467041,10.0891657959,1.0,0.0,0.0,0.0,1.0,0.0,0.0,0.0,1.0
1464076293968633600,625,1464076293954664471,,6.74166202545,-8.52967357635,108.885864258,0.00106599996798,1.0,0.0,0.0,0.0,1.0,0.0,0.0,0.0,1.0,17.317073822,-5.73170757294,-4.32926845551,1.0,0.0,0.0,0.0,1.0,0.0,0.0,0.0,1.0,-0.751779321289,-1.66636435547,9.45230756977,1.0,0.0,0.0,0.0,1.0,0.0,0.0,0.0,1.0
1464076293984154392,626,1464076293977050922,,6.52827310562,-8.26926994324,108.779388428,0.00288600008935,1.0,0.0,0.0,0.0,1.0,0.0,0.0,0.0,1.0,14.2682924271,-8.71951198578,-6.70731735229,1.0,0.0,0.0,0.0,1.0,0.0,0.0,0.0,1.0,-0.555454785156,-1.86747729492,9.32780908345,1.0,0.0,0.0,0.0,1.0,0.0,0.0,0.0,1.0
1464076294013364470,627,1464076294002727363,,6.2333779335,-8.08508872986,108.619308472,0.00188300001901,1.0,0.0,0.0,0.0,1.0,0.0,0.0,0.0,1.0,13.2317075729,-13.7804880142,-10.2439022064,1.0,0.0,0.0,0.0,1.0,0.0,0.0,0.0,1.0,-0.493205541992,-1.97761057129,8.9351605957,1.0,0.0,0.0,0.0,1.0,0.0,0.0,0.0,1.0
1464076294033032959,628,1464076294024858971,,5.72042131424,-7.92994070053,108.322608948,0.00743199978024,1.0,0.0,0.0,0.0,1.0,0.0,0.0,0.0,1.0,12.4390249252,-17.317073822,-13.5365858078,1.0,0.0,0.0,0.0,1.0,0.0,0.0,0.0,1.0,-0.359130249023,-2.18830031738,8.93037219238,1.0,0.0,0.0,0.0,1.0,0.0,0.0,0.0,1.0
1464076294073057487,629,1464076294045894904,,5.25424289703,-7.81004524231,108.045700073,0.00130799994804,1.0,0.0,0.0,0.0,1.0,0.0,0.0,0.0,1.0,13.5365858078,-17.6829280853,-15.0609760284,1.0,0.0,0.0,0.0,1.0,0.0,0.0,0.0,1.0,-0.0957680664062,-2.23618435059,8.93037219238,1.0,0.0,0.0,0.0,1.0,0.0,0.0,0.0,1.0
1464076294073236393,630,1464076294066840941,,4.81567430496,-7.6728849411,107.765068054,0.00172800000291,1.0,0.0,0.0,0.0,1.0,0.0,0.0,0.0,1.0,13.2926826477,-16.4024391174,-14.3292694092,1.0,0.0,0.0,0.0,1.0,0.0,0.0,0.0,1.0,-0.15801730957,-2.1691467041,9.09796630859,1.0,0.0,0.0,0.0,1.0,0.0,0.0,0.0,1.0
1464076294095925342,631,1464076294091094939,,4.43828725815,-7.55377101898,107.50553894,0.00164399994537,1.0,0.0,0.0,0.0,1.0,0.0,0.0,0.0,1.0,12.9268293381,-14.4512205124,-12.9878053665,1.0,0.0,0.0,0.0,1.0,0.0,0.0,0.0,1.0,-0.268150604204,-2.31279880371,9.53849999858,1.0,0.0,0.0,0.0,1.0,0.0,0.0,0.0,1.0
1464076294116933255,632,1464076294110438793,,4.09593486786,-7.38413143158,107.274391174,0.0077769998461,1.0,0.0,0.0,0.0,1.0,0.0,0.0,0.0,1.0,12.6219520569,-12.6219520569,-10.8536586761,1.0,0.0,0.0,0.0,1.0,0.0,0.0,0.0,1.0,-0.320823022461,-1.88184250488,9.63426806499,1.0,0.0,0.0,0.0,1.0,0.0,0.0,0.0,1.0
1464076294172208575,633,1464076294133251076,,3.77621126175,-7.2210392952,107.064598083,0.0018759999657,1.0,0.0,0.0,0.0,1.0,0.0,0.0,0.0,1.0,7.13414621353,-11.0975618362,-10.6707315445,1.0,0.0,0.0,0.0,1.0,0.0,0.0,0.0,1.0,-0.067037651051,-1.24498486328,9.65342167827,1.0,0.0,0.0,0.0,1.0,0.0,0.0,0.0,1.0
1464076294172561699,634,1464076294154272374,,3.53267478943,-7.16414213181,106.856697083,0.00142500002403,1.0,0.0,0.0,0.0,1.0,0.0,0.0,0.0,1.0,-0.609756112099,-9.45121955872,-11.7073173523,1.0,0.0,0.0,0.0,1.0,0.0,0.0,0.0,1.0,-0.100556469727,-1.18273554705,9.99339772949,1.0,0.0,0.0,0.0,1.0,0.0,0.0,0.0,1.0
1464076294181812404,635,1464076294174501121,,3.292345047,-7.26448202133,106.606048584,0.00118999998085,1.0,0.0,0.0,0.0,1.0,0.0,0.0,0.0,1.0,-9.39024448395,-9.02439117432,-14.0853662491,1.0,0.0,0.0,0.0,1.0,0.0,0.0,0.0,1.0,-0.0239420166016,-0.909796630859,10.3333743652,1.0,0.0,0.0,0.0,1.0,0.0,0.0,0.0,1.0
1464076294212609613,636,1464076294206057131,,3.04091191292,-7.58057785034,106.277267456,0.00181100005284,1.0,0.0,0.0,0.0,1.0,0.0,0.0,0.0,1.0,-17.8658542633,-8.71951198578,-17.8658542633,1.0,0.0,0.0,0.0,1.0,0.0,0.0,0.0,1.0,-0.124498486328,-1.32159931641,10.4626612549,1.0,0.0,0.0,0.0,1.0,0.0,0.0,0.0,1.0
1464076294219716625,637,1464076294218280796,,2.7886121273,-8.07849884033,105.882789612,0.00176100002136,1.0,0.0,0.0,0.0,1.0,0.0,0.0,0.0,1.0,-22.3780498505,-8.5365858078,-20.6707324982,1.0,0.0,0.0,0.0,1.0,0.0,0.0,0.0,1.0,-0.0191536132812,-1.92014973145,10.7643306641,1.0,0.0,0.0,0.0,1.0,0.0,0.0,0.0,1.0
1464076294248709516,638,1464076294239236781,,2.55413985252,-8.63355255127,105.437942505,0.00437599979341,1.0,0.0,0.0,0.0,1.0,0.0,0.0,0.0,1.0,-23.3536586761,-6.0365858078,-22.8658542633,1.0,0.0,0.0,0.0,1.0,0.0,0.0,0.0,1.0,0.177170922852,-2.07816689489,10.793061084,1.0,0.0,0.0,0.0,1.0,0.0,0.0,0.0,1.0
1464076294274046688,639,1464076294261536878,,2.34452056885,-9.25168323517,104.891441345,0.00286399992183,1.0,0.0,0.0,0.0,1.0,0.0,0.0,0.0,1.0,-23.8414649963,0.12195122242,-23.7804889679,1.0,0.0,0.0,0.0,1.0,0.0,0.0,0.0,1.0,0.76614453125,-1.92493813477,10.3764699951,1.0,0.0,0.0,0.0,1.0,0.0,0.0,0.0,1.0
