%time,field.header.seq,field.header.stamp,field.header.frame_id,field.orientation.x,field.orientation.y,field.orientation.z,field.orientation.w,field.orientation_covariance0,field.orientation_covariance1,field.orientation_covariance2,field.orientation_covariance3,field.orientation_covariance4,field.orientation_covariance5,field.orientation_covariance6,field.orientation_covariance7,field.orientation_covariance8,field.angular_velocity.x,field.angular_velocity.y,field.angular_velocity.z,field.angular_velocity_covariance0,field.angular_velocity_covariance1,field.angular_velocity_covariance2,field.angular_velocity_covariance3,field.angular_velocity_covariance4,field.angular_velocity_covariance5,field.angular_velocity_covariance6,field.angular_velocity_covariance7,field.angular_velocity_covariance8,field.linear_acceleration.x,field.linear_acceleration.y,field.linear_acceleration.z,field.linear_acceleration_covariance0,field.linear_acceleration_covariance1,field.linear_acceleration_covariance2,field.linear_acceleration_covariance3,field.linear_acceleration_covariance4,field.linear_acceleration_covariance5,field.linear_acceleration_covariance6,field.linear_acceleration_covariance7,field.linear_acceleration_covariance8
1446040993257477896,4481,1446040993202088117,robocape,-66.2495815361,19.4888570035,-62.4251785159,0.0,10.0,0.0,0.0,0.0,10.0,0.0,0.0,0.0,10.0,0.00878843159726,0.0284958236638,0.00279631914458,1.0,0.0,0.0,0.0,1.0,0.0,0.0,0.0,1.0,-1.85374511719,-3.23088134766,9.0819140625,0.1,0.0,0.0,0.0,0.1,0.0,0.0,0.0,0.1
1446040993311548396,4482,1446040993257869005,robocape,-65.7396000785,19.7254994189,-61.9192291563,0.0,10.0,0.0,0.0,0.0,10.0,0.0,0.0,0.0,10.0,-0.0233026595382,0.0307595105904,0.0336889877895,1.0,0.0,0.0,0.0,1.0,0.0,0.0,0.0,1.0,-1.50766479492,-3.17819091797,9.05556884766,0.1,0.0,0.0,0.0,0.1,0.0,0.0,0.0,0.1
1446040993316771896,4483,1446040993293710947,robocape,-65.3673382619,20.082930082,-61.353322327,0.0,10.0,0.0,0.0,0.0,10.0,0.0,0.0,0.0,10.0,-0.107591708039,0.03222424919,0.105594337222,1.0,0.0,0.0,0.0,1.0,0.0,0.0,0.0,1.0,-1.79865966797,-3.37338500977,8.9705456543,0.1,0.0,0.0,0.0,0.1,0.0,0.0,0.0,0.1
1446040993355515813,4484,1446040993337985038,robocape,-64.982965686,20.40767418,-60.7825786938,0.0,10.0,0.0,0.0,0.0,10.0,0.0,0.0,0.0,10.0,-0.0988032764419,0.0207726565026,0.0974716958969,1.0,0.0,0.0,0.0,1.0,0.0,0.0,0.0,1.0,-1.44419677734,-3.60330688477,8.98252075195,0.1,0.0,0.0,0.0,0.1,0.0,0.0,0.0,0.1
1446040993382733313,4485,1446040993379384994,robocape,-64.4593647918,20.631849402,-60.2803712824,0.0,10.0,0.0,0.0,0.0,10.0,0.0,0.0,0.0,10.0,-0.00426105774413,0.0215716048296,0.0462058449129,1.0,0.0,0.0,0.0,1.0,0.0,0.0,0.0,1.0,-2.18904785156,-3.24405395508,9.03042114258,0.1,0.0,0.0,0.0,0.1,0.0,0.0,0.0,0.1
1446040993425115563,4486,1446040993409503936,robocape,-64.0065325106,20.8165965702,-59.8027134216,0.0,10.0,0.0,0.0,0.0,10.0,0.0,0.0,0.0,10.0,-0.0462058449129,0.0347542522255,0.0162452826495,1.0,0.0,0.0,0.0,1.0,0.0,0.0,0.0,1.0,-2.30640380859,-3.36260742188,9.00048339844,0.1,0.0,0.0,0.0,0.1,0.0,0.0,0.0,0.1
1446040993449394272,4487,1446040993446219921,robocape,-63.5693027729,21.0090488467,-59.3133218504,0.0,10.0,0.0,0.0,0.0,10.0,0.0,0.0,0.0,10.0,-0.0531300637471,0.0288952978274,0.0276968753368,1.0,0.0,0.0,0.0,1.0,0.0,0.0,0.0,1.0,-1.43701171875,-3.30512695313,9.01245849609,0.1,0.0,0.0,0.0,0.1,0.0,0.0,0.0,0.1
1446040993479275397,4488,1446040993476326942,robocape,-63.1516383836,21.2328549417,-58.8057267705,0.0,10.0,0.0,0.0,0.0,10.0,0.0,0.0,0.0,10.0,-0.0625842856169,0.0249005561922,0.0525974315291,1.0,0.0,0.0,0.0,1.0,0.0,0.0,0.0,1.0,-1.47173950195,-3.50870361328,8.95258300781,0.1,0.0,0.0,0.0,0.1,0.0,0.0,0.0,0.1
1446040993516224438,4489,1446040993513164043,robocape,-62.8297440409,21.5758836885,-58.2317487233,0.0,10.0,0.0,0.0,0.0,10.0,0.0,0.0,0.0,10.0,-0.123038042362,0.0223705531567,0.128364364542,1.0,0.0,0.0,0.0,1.0,0.0,0.0,0.0,1.0,-1.88248535156,-3.43445800781,8.97533569336,0.1,0.0,0.0,0.0,0.1,0.0,0.0,0.0,0.1
1446040993552633355,4490,1446040993548861026,robocape,-62.4287085233,21.8086013638,-57.7169505702,0.0,10.0,0.0,0.0,0.0,10.0,0.0,0.0,0.0,10.0,-0.0683100819605,0.0211721306661,0.068176923906,1.0,0.0,0.0,0.0,1.0,0.0,0.0,0.0,1.0,-2.10043212891,-3.55061645508,9.01006347656,0.1,0.0,0.0,0.0,0.1,0.0,0.0,0.0,0.1
1446040993586743772,4491,1446040993583714962,robocape,-61.8547775227,21.8421280776,-57.3211125649,0.0,10.0,0.0,0.0,0.0,10.0,0.0,0.0,0.0,10.0,0.0511326929295,0.0201068662301,-0.0448742643678,1.0,0.0,0.0,0.0,1.0,0.0,0.0,0.0,1.0,-2.47405517578,-3.71228027344,8.95857055664,0.1,0.0,0.0,0.0,0.1,0.0,0.0,0.0,0.1
1446040993621870897,4492,1446040993618626117,robocape,-61.039158023,21.6257273229,-57.0938096491,0.0,10.0,0.0,0.0,0.0,10.0,0.0,0.0,0.0,10.0,0.219577631877,0.0225037112112,-0.191614440431,1.0,0.0,0.0,0.0,1.0,0.0,0.0,0.0,1.0,-2.39382202148,-3.42727294922,9.03401367187,0.1,0.0,0.0,0.0,0.1,0.0,0.0,0.0,0.1
1446040993657478522,4493,1446040993654232978,robocape,-60.1229356186,21.3209342813,-56.9648883646,0.0,10.0,0.0,0.0,0.0,10.0,0.0,0.0,0.0,10.0,0.296143513217,0.0363521488796,-0.252334513285,1.0,0.0,0.0,0.0,1.0,0.0,0.0,0.0,1.0,-2.32316894531,-3.1458581543,9.07113647461,0.1,0.0,0.0,0.0,0.1,0.0,0.0,0.0,0.1
1446040993691450230,4494,1446040993687932968,robocape,-59.4928452256,21.242309214,-56.6991929642,0.0,10.0,0.0,0.0,0.0,10.0,0.0,0.0,0.0,10.0,0.113450662437,0.0431432096593,-0.122771726253,1.0,0.0,0.0,0.0,1.0,0.0,0.0,0.0,1.0,-0.889749755859,-3.27878173828,9.07353149414,0.1,0.0,0.0,0.0,0.1,0.0,0.0,0.0,0.1
1446040993726411230,4495,1446040993722820997,robocape,-58.950959548,21.3216082385,-56.3104989383,0.0,10.0,0.0,0.0,0.0,10.0,0.0,0.0,0.0,10.0,0.0544616442921,0.0226368692657,-0.0105194863058,1.0,0.0,0.0,0.0,1.0,0.0,0.0,0.0,1.0,-0.969982910156,-3.51109863281,8.85438720703,0.1,0.0,0.0,0.0,0.1,0.0,0.0,0.0,0.1
1446040993763167855,4496,1446040993760014057,robocape,-58.5911408387,21.5445643459,-55.808276873,0.0,10.0,0.0,0.0,0.0,10.0,0.0,0.0,0.0,10.0,-0.0640490242164,0.016112124595,0.083223784065,1.0,0.0,0.0,0.0,1.0,0.0,0.0,0.0,1.0,-1.71243896484,-2.93988647461,9.13340698242,0.1,0.0,0.0,0.0,0.1,0.0,0.0,0.0,0.1
1446040993801734272,4497,1446040993798401117,robocape,-58.3659387744,21.8634868459,-55.2635755708,0.0,10.0,0.0,0.0,0.0,10.0,0.0,0.0,0.0,10.0,-0.148604388826,0.0311589847539,0.134622793104,1.0,0.0,0.0,0.0,1.0,0.0,0.0,0.0,1.0,-2.04654418945,-3.16501831055,9.07951904297,0.1,0.0,0.0,0.0,0.1,0.0,0.0,0.0,0.1
1446040993838676355,4498,1446040993835586071,robocape,-57.9551867822,22.0315175848,-54.8196635001,0.0,10.0,0.0,0.0,0.0,10.0,0.0,0.0,0.0,10.0,-0.0237021337017,0.0245010820287,0.0508663768205,1.0,0.0,0.0,0.0,1.0,0.0,0.0,0.0,1.0,-1.6130456543,-3.27399169922,8.98491577148,0.1,0.0,0.0,0.0,0.1,0.0,0.0,0.0,0.1
1446040993869666480,4499,1446040993866357088,robocape,-57.4446014327,22.1323240678,-54.4293616278,0.0,10.0,0.0,0.0,0.0,10.0,0.0,0.0,0.0,10.0,0.0459395288039,0.0223705531567,0.0145142279409,1.0,0.0,0.0,0.0,1.0,0.0,0.0,0.0,1.0,-2.37705688477,-3.142265625,8.98012573242,0.1,0.0,0.0,0.0,0.1,0.0,0.0,0.0,0.1
1446040993904154022,4500,1446040993900821924,robocape,-56.9572012387,22.1415524584,-54.1092412672,0.0,10.0,0.0,0.0,0.0,10.0,0.0,0.0,0.0,10.0,0.0414121549507,0.033289513626,-0.049401638221,1.0,0.0,0.0,0.0,1.0,0.0,0.0,0.0,1.0,-2.27646606445,-3.31231201172,8.94779296875,0.1,0.0,0.0,0.0,0.1,0.0,0.0,0.0,0.1
1446040993940486563,4501,1446040993937443017,robocape,-56.4972356625,22.2071035987,-53.7558285065,0.0,10.0,0.0,0.0,0.0,10.0,0.0,0.0,0.0,10.0,0.0249005561922,0.031957933081,-0.0110521185238,1.0,0.0,0.0,0.0,1.0,0.0,0.0,0.0,1.0,-1.24900268555,-3.27399169922,8.97413818359,0.1,0.0,0.0,0.0,0.1,0.0,0.0,0.0,0.1
1446040993969909688,4502,1446040993966444969,robocape,-56.0313922081,22.3160465141,-53.3739365158,0.0,10.0,0.0,0.0,0.0,10.0,0.0,0.0,0.0,10.0,0.0288952978274,0.0271642431188,0.0225037112112,1.0,0.0,0.0,0.0,1.0,0.0,0.0,0.0,1.0,-1.65495849609,-3.53385131836,9.12502441406,0.1,0.0,0.0,0.0,0.1,0.0,0.0,0.0,0.1
1446040994005162647,4503,1446040994001548051,robocape,-55.7904780455,22.5652289334,-52.8746619044,0.0,10.0,0.0,0.0,0.0,10.0,0.0,0.0,0.0,10.0,-0.118910142672,0.0283626656093,0.111320133565,1.0,0.0,0.0,0.0,1.0,0.0,0.0,0.0,1.0,-1.69088378906,-3.17459838867,9.11065429688,0.1,0.0,0.0,0.0,0.1,0.0,0.0,0.0,0.1
1446040994039970147,4504,1446040994036139965,robocape,-55.5288066021,22.8333553536,-52.3559149387,0.0,10.0,0.0,0.0,0.0,10.0,0.0,0.0,0.0,10.0,-0.10732539193,0.0218379209386,0.13156015785,1.0,0.0,0.0,0.0,1.0,0.0,0.0,0.0,1.0,-1.51604736328,-3.76377319336,9.0088659668,0.1,0.0,0.0,0.0,0.1,0.0,0.0,0.0,0.1
1446040994077994272,4505,1446040994074841976,robocape,-55.2026236543,22.9925407977,-51.9249322475,0.0,10.0,0.0,0.0,0.0,10.0,0.0,0.0,0.0,10.0,-0.0565921731642,0.0266316109008,0.0615190211808,1.0,0.0,0.0,0.0,1.0,0.0,0.0,0.0,1.0,-2.50998046875,-3.57217163086,8.94060791016,0.1,0.0,0.0,0.0,0.1,0.0,0.0,0.0,0.1
1446040994113344105,4506,1446040994110080003,robocape,-54.9421298911,23.1318996614,-51.5088107704,0.0,10.0,0.0,0.0,0.0,10.0,0.0,0.0,0.0,10.0,-0.0930774800983,0.032756881408,0.0459395288039,1.0,0.0,0.0,0.0,1.0,0.0,0.0,0.0,1.0,-2.05492675781,-3.48235839844,9.04119873047,0.1,0.0,0.0,0.0,0.1,0.0,0.0,0.0,0.1
1446040994148294772,4507,1446040994144964933,robocape,-54.6129945436,23.260810814,-51.101149792,0.0,10.0,0.0,0.0,0.0,10.0,0.0,0.0,0.0,10.0,-0.0484695318394,0.0263652947918,0.0467384771309,1.0,0.0,0.0,0.0,1.0,0.0,0.0,0.0,1.0,-1.56873779297,-3.56977661133,9.01964355469,0.1,0.0,0.0,0.0,0.1,0.0,0.0,0.0,0.1
1446040994182720980,4508,1446040994179646015,robocape,-54.3231760588,23.4440713808,-50.6508496984,0.0,10.0,0.0,0.0,0.0,10.0,0.0,0.0,0.0,10.0,-0.0759000910673,0.0246342400832,0.085354312937,1.0,0.0,0.0,0.0,1.0,0.0,0.0,0.0,1.0,-1.79267211914,-3.53983886719,8.99449584961,0.1,0.0,0.0,0.0,0.1,0.0,0.0,0.0,0.1
1446040994216483522,4509,1446040994213330984,robocape,-54.0041834588,23.5751258351,-50.238612438,0.0,10.0,0.0,0.0,0.0,10.0,0.0,0.0,0.0,10.0,-0.0516653251475,0.0234358175927,0.0548611184556,1.0,0.0,0.0,0.0,1.0,0.0,0.0,0.0,1.0,-2.01540893555,-3.51109863281,8.97533569336,0.1,0.0,0.0,0.0,0.1,0.0,0.0,0.0,0.1
1446040994252423814,4510,1446040994248687982,robocape,-53.6508352614,23.6441619734,-49.8760604589,0.0,10.0,0.0,0.0,0.0,10.0,0.0,0.0,0.0,10.0,-0.0222373951022,0.0235689756472,0.0165115987585,1.0,0.0,0.0,0.0,1.0,0.0,0.0,0.0,1.0,-2.1423449707,-3.48116088867,8.93462036133,0.1,0.0,0.0,0.0,0.1,0.0,0.0,0.0,0.1
1446040994297125272,4511,1446040994293879032,robocape,-53.1965079835,23.6339696105,-49.5849278452,0.0,10.0,0.0,0.0,0.0,10.0,0.0,0.0,0.0,10.0,0.050999534875,0.0219710789932,-0.0320910911355,1.0,0.0,0.0,0.0,1.0,0.0,0.0,0.0,1.0,-1.69806884766,-3.64162719727,8.97294067383,0.1,0.0,0.0,0.0,0.1,0.0,0.0,0.0,0.1
1446040994332875022,4512,1446040994329791069,robocape,-52.5616010902,23.4888889474,-49.429527962,0.0,10.0,0.0,0.0,0.0,10.0,0.0,0.0,0.0,10.0,0.181760744398,0.0246342400832,-0.121440145708,1.0,0.0,0.0,0.0,1.0,0.0,0.0,0.0,1.0,-2.09564208984,-3.51349365234,9.01724853516,0.1,0.0,0.0,0.0,0.1,0.0,0.0,0.0,0.1
1446040994372367897,4513,1446040994368976116,robocape,-51.8077651885,23.1951501371,-49.4153368294,0.0,10.0,0.0,0.0,0.0,10.0,0.0,0.0,0.0,10.0,0.276169805041,0.0283626656093,-0.223572373512,1.0,0.0,0.0,0.0,1.0,0.0,0.0,0.0,1.0,-2.39142700195,-3.28955932617,9.09748168945,0.1,0.0,0.0,0.0,0.1,0.0,0.0,0.0,0.1
1446040994405999064,4514,1446040994402827978,robocape,-51.0436090283,22.8469006638,-49.468057472,0.0,10.0,0.0,0.0,0.0,10.0,0.0,0.0,0.0,10.0,0.294545616563,0.0355532005526,-0.26844663788,1.0,0.0,0.0,0.0,1.0,0.0,0.0,0.0,1.0,-1.90404052734,-3.1386730957,8.97533569336,0.1,0.0,0.0,0.0,0.1,0.0,0.0,0.0,0.1
1446040994441955522,4515,1446040994438704967,robocape,-50.6124358176,22.8041361258,-49.2633811868,0.0,10.0,0.0,0.0,0.0,10.0,0.0,0.0,0.0,10.0,0.0639158661619,0.0419447871687,-0.0696416625056,1.0,0.0,0.0,0.0,1.0,0.0,0.0,0.0,1.0,-1.19631225586,-3.15424072266,8.90109008789,0.1,0.0,0.0,0.0,0.1,0.0,0.0,0.0,0.1
1446040994476841939,4516,1446040994473606109,robocape,-50.2481107115,22.9479033493,-48.8362110675,0.0,10.0,0.0,0.0,0.0,10.0,0.0,0.0,0.0,10.0,-0.00399474163512,0.00772316716123,0.0868190515366,1.0,0.0,0.0,0.0,1.0,0.0,0.0,0.0,1.0,-1.1076965332,-3.65120727539,8.92623779297,0.1,0.0,0.0,0.0,0.1,0.0,0.0,0.0,0.1
1446040994511391814,4517,1446040994508254051,robocape,-49.9586106752,23.1066176589,-48.3983897892,0.0,10.0,0.0,0.0,0.0,10.0,0.0,0.0,0.0,10.0,-0.0483363737849,0.0129163312869,0.0948085348068,1.0,0.0,0.0,0.0,1.0,0.0,0.0,0.0,1.0,-1.86572021484,-2.97700927734,9.2387878418,0.1,0.0,0.0,0.0,0.1,0.0,0.0,0.0,0.1
1446040994545523855,4518,1446040994542445898,robocape,-49.6752371723,23.1926760761,-48.0332065588,0.0,10.0,0.0,0.0,0.0,10.0,0.0,0.0,0.0,10.0,-0.0402137324602,0.0201068662301,0.0408795227327,1.0,0.0,0.0,0.0,1.0,0.0,0.0,0.0,1.0,-2.49800537109,-3.26920166016,9.00766845703,0.1,0.0,0.0,0.0,0.1,0.0,0.0,0.0,0.1
1446040994583929355,4519,1446040994580535888,robocape,-49.2671410237,23.1794432182,-47.8051025326,0.0,10.0,0.0,0.0,0.0,10.0,0.0,0.0,0.0,10.0,0.0552605926191,0.0359526747161,-0.0395479421877,1.0,0.0,0.0,0.0,1.0,0.0,0.0,0.0,1.0,-2.27407104492,-3.26920166016,9.00647094727,0.1,0.0,0.0,0.0,0.1,0.0,0.0,0.0,0.1
1446040994621680105,4520,1446040994618267059,robocape,-48.9110398153,23.1632400844,-47.5834993247,0.0,10.0,0.0,0.0,0.0,10.0,0.0,0.0,0.0,10.0,0.0276968753368,0.0398142582967,-0.0443416321498,1.0,0.0,0.0,0.0,1.0,0.0,0.0,0.0,1.0,-1.50407226563,-3.03209472656,8.97773071289,0.1,0.0,0.0,0.0,0.1,0.0,0.0,0.0,0.1
1446040994663032314,4521,1446040994658586025,robocape,-48.7031620665,23.3210172787,-47.172959095,0.0,10.0,0.0,0.0,0.0,10.0,0.0,0.0,0.0,10.0,-0.0858869451551,0.0276968753368,0.0882837901361,1.0,0.0,0.0,0.0,1.0,0.0,0.0,0.0,1.0,-1.40707397461,-3.38176757813,8.92384277344,0.1,0.0,0.0,0.0,0.1,0.0,0.0,0.0,0.1
1446040994696295022,4522,1446040994692935943,robocape,-48.4294574799,23.4393302974,-46.7892805766,0.0,10.0,0.0,0.0,0.0,10.0,0.0,0.0,0.0,10.0,-0.0420779452233,0.0203731823391,0.0689758722331,1.0,0.0,0.0,0.0,1.0,0.0,0.0,0.0,1.0,-1.62621826172,-3.33147216797,9.02203857422,0.1,0.0,0.0,0.0,0.1,0.0,0.0,0.0,0.1
1446040994729407772,4523,1446040994725239038,robocape,-48.1249671977,23.5390151822,-46.4363058469,0.0,10.0,0.0,0.0,0.0,10.0,0.0,0.0,0.0,10.0,-0.017976337358,0.0241016078652,0.0543284862376,1.0,0.0,0.0,0.0,1.0,0.0,0.0,0.0,1.0,-2.32077392578,-3.08957519531,9.04598876953,0.1,0.0,0.0,0.0,0.1,0.0,0.0,0.0,0.1
1446040994763834147,4524,1446040994760349988,robocape,-47.8196141228,23.5468118743,-46.1821217842,0.0,10.0,0.0,0.0,0.0,10.0,0.0,0.0,0.0,10.0,-0.000532632218016,0.0323574072445,-0.0162452826495,1.0,0.0,0.0,0.0,1.0,0.0,0.0,0.0,1.0,-2.1806652832,-3.51828369141,8.93342285156,0.1,0.0,0.0,0.0,0.1,0.0,0.0,0.0,0.1
1446040994797527189,4525,1446040994793883085,robocape,-47.4527879298,23.4925135841,-45.9941867496,0.0,10.0,0.0,0.0,0.0,10.0,0.0,0.0,0.0,10.0,0.0476705835124,0.032490565299,-0.0597879664723,1.0,0.0,0.0,0.0,1.0,0.0,0.0,0.0,1.0,-1.62142822266,-3.04526733398,9.08790161133,0.1,0.0,0.0,0.0,0.1,0.0,0.0,0.0,0.1
1446040994831852064,4526,1446040994828670024,robocape,-47.1821655226,23.5802186249,-45.6683231936,0.0,10.0,0.0,0.0,0.0,10.0,0.0,0.0,0.0,10.0,-0.0286289817184,0.0308926686449,0.0432763677138,1.0,0.0,0.0,0.0,1.0,0.0,0.0,0.0,1.0,-1.56993530273,-3.33985473633,9.02922363281,0.1,0.0,0.0,0.0,0.1,0.0,0.0,0.0,0.1
1446040994864354022,4527,1446040994861121892,robocape,-46.8719663289,23.6181135068,-45.3716841726,0.0,10.0,0.0,0.0,0.0,10.0,0.0,0.0,0.0,10.0,0.00066579027252,0.0215716048296,0.01744370514,1.0,0.0,0.0,0.0,1.0,0.0,0.0,0.0,1.0,-1.65016845703,-3.60929443359,9.04359375,0.1,0.0,0.0,0.0,0.1,0.0,0.0,0.0,0.1
1446040994896826439,4528,1446040994893703937,robocape,-46.5363301402,23.6270985816,-45.1230207822,0.0,10.0,0.0,0.0,0.0,10.0,0.0,0.0,0.0,10.0,0.0247673981377,0.0280963495003,-0.00838895743375,1.0,0.0,0.0,0.0,1.0,0.0,0.0,0.0,1.0,-1.99385375977,-2.92551635742,9.13580200195,0.1,0.0,0.0,0.0,0.1,0.0,0.0,0.0,0.1
1446040994937218189,4529,1446040994933672904,robocape,-46.2782421844,23.6430707725,-44.8780084383,0.0,10.0,0.0,0.0,0.0,10.0,0.0,0.0,0.0,10.0,-0.018242653467,0.0359526747161,-0.00958737992429,1.0,0.0,0.0,0.0,1.0,0.0,0.0,0.0,1.0,-2.08007446289,-3.15424072266,9.10107421875,0.1,0.0,0.0,0.0,0.1,0.0,0.0,0.0,0.1
1446040994975884772,4530,1446040994971832036,robocape,-46.1623966703,23.7797205274,-44.4883724733,0.0,10.0,0.0,0.0,0.0,10.0,0.0,0.0,0.0,10.0,-0.123437516525,0.0295610880999,0.085087996828,1.0,0.0,0.0,0.0,1.0,0.0,0.0,0.0,1.0,-1.10889404297,-3.43805053711,9.02443359375,0.1,0.0,0.0,0.0,0.1,0.0,0.0,0.0,0.1
1446040995010157397,4531,1446040995006809949,robocape,-46.1161024147,24.0291887568,-43.9719958867,0.0,10.0,0.0,0.0,0.0,10.0,0.0,0.0,0.0,10.0,-0.184823379651,0.0239684498107,0.173771261128,1.0,0.0,0.0,0.0,1.0,0.0,0.0,0.0,1.0,-1.50167724609,-3.42008789063,8.99449584961,0.1,0.0,0.0,0.0,0.1,0.0,0.0,0.0,0.1
1446040995045014647,4532,1446040995041807889,robocape,-46.1042160825,24.3319635965,-43.4025827753,0.0,10.0,0.0,0.0,0.0,10.0,0.0,0.0,0.0,10.0,-0.214783941915,0.0247673981377,0.213718677479,1.0,0.0,0.0,0.0,1.0,0.0,0.0,0.0,1.0,-1.89446044922,-3.41529785156,9.0052734375,0.1,0.0,0.0,0.0,0.1,0.0,0.0,0.0,0.1
1446040995080142856,4533,1446040995076971054,robocape,-45.9791276643,24.5268096384,-42.9310847755,0.0,10.0,0.0,0.0,0.0,10.0,0.0,0.0,0.0,10.0,-0.13275858034,0.0173105470855,0.144077014973,1.0,0.0,0.0,0.0,1.0,0.0,0.0,0.0,1.0,-2.34711914063,-3.69671264648,8.97174316406,0.1,0.0,0.0,0.0,0.1,0.0,0.0,0.0,0.1
1446040995114055356,4534,1446040995110827922,robocape,-45.6956688117,24.4645562675,-42.7349706501,0.0,10.0,0.0,0.0,0.0,10.0,0.0,0.0,0.0,10.0,0.00852211548825,0.0207726565026,-0.0450074224223,1.0,0.0,0.0,0.0,1.0,0.0,0.0,0.0,1.0,-2.61057128906,-3.68713256836,8.91426269531,0.1,0.0,0.0,0.0,0.1,0.0,0.0,0.0,0.1
1446040995149625814,4535,1446040995146511077,robocape,-45.0595406537,24.1954022093,-42.799097751,0.0,10.0,0.0,0.0,0.0,10.0,0.0,0.0,0.0,10.0,0.260590312664,0.0221042370477,-0.200669188137,1.0,0.0,0.0,0.0,1.0,0.0,0.0,0.0,1.0,-2.42375976563,-3.46559326172,8.89989257812,0.1,0.0,0.0,0.0,0.1,0.0,0.0,0.0,0.1
1446040995185126856,4536,1446040995181919097,robocape,-44.3404959775,23.8356053631,-42.9934914273,0.0,10.0,0.0,0.0,0.0,10.0,0.0,0.0,0.0,10.0,0.332761978205,0.0303600364269,-0.279232440295,1.0,0.0,0.0,0.0,1.0,0.0,0.0,0.0,1.0,-2.36747680664,-3.06682250977,8.99090332031,0.1,0.0,0.0,0.0,0.1,0.0,0.0,0.0,0.1
1446040995220176814,4537,1446040995216994047,robocape,-43.9553125713,23.6772723741,-42.9748443885,0.0,10.0,0.0,0.0,0.0,10.0,0.0,0.0,0.0,10.0,0.104928546949,0.0414121549507,-0.140614905556,1.0,0.0,0.0,0.0,1.0,0.0,0.0,0.0,1.0,-1.15200439453,-3.16262329102,9.05437133789,0.1,0.0,0.0,0.0,0.1,0.0,0.0,0.0,0.1
1446040995264056439,4538,1446040995256787061,robocape,-43.7353212287,23.753375984,-42.6644252111,0.0,10.0,0.0,0.0,0.0,10.0,0.0,0.0,0.0,10.0,-0.0383495196971,0.0267647689553,0.050466902657,1.0,0.0,0.0,0.0,1.0,0.0,0.0,0.0,1.0,-0.748443603516,-3.64162719727,9.07472900391,0.1,0.0,0.0,0.0,0.1,0.0,0.0,0.0,0.1
1446040995301883814,4539,1446040995298522949,robocape,-43.5512288455,23.9154695437,-42.2292405077,0.0,10.0,0.0,0.0,0.0,10.0,0.0,0.0,0.0,10.0,-0.0794953585389,0.0135821215594,0.129962261196,1.0,0.0,0.0,0.0,1.0,0.0,0.0,0.0,1.0,-1.67052612305,-3.50032104492,9.08430908203,0.1,0.0,0.0,0.0,0.1,0.0,0.0,0.0,0.1
1446040995338883022,4540,1446040995335635900,robocape,-43.3294568232,24.0086422961,-41.8730742144,0.0,10.0,0.0,0.0,0.0,10.0,0.0,0.0,0.0,10.0,-0.0435426838228,0.0147805440499,0.0781637779938,1.0,0.0,0.0,0.0,1.0,0.0,0.0,0.0,1.0,-2.73151977539,-3.22489379883,8.99569335938,0.1,0.0,0.0,0.0,0.1,0.0,0.0,0.0,0.1
1446040995376607731,4541,1446040995372284889,robocape,-42.9051170241,23.8910229779,-41.8053185253,0.0,10.0,0.0,0.0,0.0,10.0,0.0,0.0,0.0,10.0,0.124369622907,0.0299605622634,-0.0981374861694,1.0,0.0,0.0,0.0,1.0,0.0,0.0,0.0,1.0,-2.67403930664,-3.24764648438,9.08071655273,0.1,0.0,0.0,0.0,0.1,0.0,0.0,0.0,0.1
1446040995411017897,4542,1446040995407962083,robocape,-42.5707551472,23.759673977,-41.7735855045,0.0,10.0,0.0,0.0,0.0,10.0,0.0,0.0,0.0,10.0,0.0805606229749,0.0415453130052,-0.120508039326,1.0,0.0,0.0,0.0,1.0,0.0,0.0,0.0,1.0,-2.32436645508,-3.39015014648,8.95258300781,0.1,0.0,0.0,0.0,0.1,0.0,0.0,0.0,0.1
1446040995446746731,4543,1446040995443475008,robocape,-42.3541427824,23.7082852574,-41.6319511896,0.0,10.0,0.0,0.0,0.0,10.0,0.0,0.0,0.0,10.0,-0.00466053190764,0.0368847810976,-0.0537958540196,1.0,0.0,0.0,0.0,1.0,0.0,0.0,0.0,1.0,-0.911304931641,-3.17220336914,9.03042114258,0.1,0.0,0.0,0.0,0.1,0.0,0.0,0.0,0.1
1446040995482081897,4544,1446040995478811025,robocape,-42.1449191687,23.8480228505,-41.2482826262,0.0,10.0,0.0,0.0,0.0,10.0,0.0,0.0,0.0,10.0,-0.050200586548,0.0218379209386,0.109455920802,1.0,0.0,0.0,0.0,1.0,0.0,0.0,0.0,1.0,-0.816701660156,-3.16861083984,9.03760620117,0.1,0.0,0.0,0.0,0.1,0.0,0.0,0.0,0.1
1446040995520282898,4545,1446040995516827106,robocape,-41.9876562887,23.969816355,-40.8651189065,0.0,10.0,0.0,0.0,0.0,10.0,0.0,0.0,0.0,10.0,-0.0790958843754,0.01744370514,0.102398543914,1.0,0.0,0.0,0.0,1.0,0.0,0.0,0.0,1.0,-1.99864379883,-3.30752197266,9.01964355469,0.1,0.0,0.0,0.0,0.1,0.0,0.0,0.0,0.1
1446040995559097773,4546,1446040995555284976,robocape,-41.9806970201,24.143604876,-40.4409412557,0.0,10.0,0.0,0.0,0.0,10.0,0.0,0.0,0.0,10.0,-0.172306522528,0.0307595105904,0.131426999795,1.0,0.0,0.0,0.0,1.0,0.0,0.0,0.0,1.0,-2.36508178711,-3.75419311523,8.93821289063,0.1,0.0,0.0,0.0,0.1,0.0,0.0,0.0,0.1
1446040995596280939,4547,1446040995592189073,robocape,-41.7423888346,24.1152066965,-40.2554628227,0.0,10.0,0.0,0.0,0.0,10.0,0.0,0.0,0.0,10.0,0.0031957933081,0.0253000303558,-0.0209058145571,1.0,0.0,0.0,0.0,1.0,0.0,0.0,0.0,1.0,-1.99864379883,-3.09915527344,9.16933227539,0.1,0.0,0.0,0.0,0.1,0.0,0.0,0.0,0.1
1446040995631547106,4548,1446040995627468109,robocape,-41.5772038704,24.1855953975,-39.9838999726,0.0,10.0,0.0,0.0,0.0,10.0,0.0,0.0,0.0,10.0,-0.0535295379106,0.0366184649886,0.0448742643678,1.0,0.0,0.0,0.0,1.0,0.0,0.0,0.0,1.0,-1.9124230957,-3.17340087891,9.06754394531,0.1,0.0,0.0,0.0,0.1,0.0,0.0,0.0,0.1
1446040995665843773,4549,1446040995662307024,robocape,-41.4017364604,24.2443540939,-39.697679831,0.0,10.0,0.0,0.0,0.0,10.0,0.0,0.0,0.0,10.0,-0.049401638221,0.0255663464648,0.0484695318394,1.0,0.0,0.0,0.0,1.0,0.0,0.0,0.0,1.0,-1.64657592773,-3.86795654297,8.86755981445,0.1,0.0,0.0,0.0,0.1,0.0,0.0,0.0,0.1
1446040995700116814,4550,1446040995696219921,robocape,-41.1671851416,24.2749306938,-39.4456597852,0.0,10.0,0.0,0.0,0.0,10.0,0.0,0.0,0.0,10.0,-0.00865527354276,0.0230363434292,0.0291616139364,1.0,0.0,0.0,0.0,1.0,0.0,0.0,0.0,1.0,-2.04654418945,-3.27039916992,9.02922363281,0.1,0.0,0.0,0.0,0.1,0.0,0.0,0.0,0.1
1446040995735087523,4551,1446040995731986045,robocape,-41.0300579304,24.34805044,-39.1610139729,0.0,10.0,0.0,0.0,0.0,10.0,0.0,0.0,0.0,10.0,-0.0695085044511,0.033023197517,0.0536626959651,1.0,0.0,0.0,0.0,1.0,0.0,0.0,0.0,1.0,-2.11360473633,-3.28357177734,9.06155639648,0.1,0.0,0.0,0.0,0.1,0.0,0.0,0.0,0.1
1446040995768871314,4552,1446040995765621900,robocape,-40.8805829974,24.4106385379,-38.8818648871,0.0,10.0,0.0,0.0,0.0,10.0,0.0,0.0,0.0,10.0,-0.0608532309083,0.0296942461544,0.04966795433,1.0,0.0,0.0,0.0,1.0,0.0,0.0,0.0,1.0,-1.60825561523,-3.56259155273,8.91785522461,0.1,0.0,0.0,0.0,0.1,0.0,0.0,0.0,0.1
1446040995804641523,4553,1446040995801244974,robocape,-40.6482300343,24.4694211629,-38.6019189153,0.0,10.0,0.0,0.0,0.0,10.0,0.0,0.0,0.0,10.0,-0.0131826473959,0.0233026595382,0.0532632218016,1.0,0.0,0.0,0.0,1.0,0.0,0.0,0.0,1.0,-1.75794433594,-3.56857910156,8.89989257812,0.1,0.0,0.0,0.0,0.1,0.0,0.0,0.0,0.1
1446040995838707606,4554,1446040995835450887,robocape,-40.3982744173,24.4598780775,-38.413870808,0.0,10.0,0.0,0.0,0.0,10.0,0.0,0.0,0.0,10.0,0.0150468601589,0.0264984528463,-0.00399474163512,1.0,0.0,0.0,0.0,1.0,0.0,0.0,0.0,1.0,-2.32077392578,-3.33266967773,9.0088659668,0.1,0.0,0.0,0.0,0.1,0.0,0.0,0.0,0.1
1446040995873407439,4555,1446040995870275974,robocape,-40.184795381,24.4385893886,-38.2538158374,0.0,10.0,0.0,0.0,0.0,10.0,0.0,0.0,0.0,10.0,0.000532632218016,0.0326237233535,-0.0194410759576,1.0,0.0,0.0,0.0,1.0,0.0,0.0,0.0,1.0,-2.13276489258,-3.29315185547,9.01485351563,0.1,0.0,0.0,0.0,0.1,0.0,0.0,0.0,0.1
1446040995907337981,4556,1446040995904131889,robocape,-39.8995044163,24.4284796921,-38.0700045385,0.0,10.0,0.0,0.0,0.0,10.0,0.0,0.0,0.0,10.0,0.0378168874791,0.0246342400832,-0.00253000303558,1.0,0.0,0.0,0.0,1.0,0.0,0.0,0.0,1.0,-1.54838012695,-3.75419311523,8.94659545898,0.1,0.0,0.0,0.0,0.1,0.0,0.0,0.0,0.1
1446040995942822273,4557,1446040995939026117,robocape,-39.6655066314,24.4028407493,-37.9005234191,0.0,10.0,0.0,0.0,0.0,10.0,0.0,0.0,0.0,10.0,0.0126500151779,0.0249005561922,-0.0142479118319,1.0,0.0,0.0,0.0,1.0,0.0,0.0,0.0,1.0,-2.07169189453,-3.64641723633,8.99090332031,0.1,0.0,0.0,0.0,0.1,0.0,0.0,0.0,0.1
1446040995978679148,4558,1446040995974733114,robocape,-39.5207217061,24.4259519594,-37.6802066131,0.0,10.0,0.0,0.0,0.0,10.0,0.0,0.0,0.0,10.0,-0.0467384771309,0.0311589847539,0.0195742340121,1.0,0.0,0.0,0.0,1.0,0.0,0.0,0.0,1.0,-1.78788208008,-3.065625,9.02802612305,0.1,0.0,0.0,0.0,0.1,0.0,0.0,0.0,0.1
1446040996017571231,4559,1446040996014379024,robocape,-39.263625017,24.4227588988,-37.4901313256,0.0,10.0,0.0,0.0,0.0,10.0,0.0,0.0,0.0,10.0,0.0233026595382,0.0247673981377,0.00412789968962,1.0,0.0,0.0,0.0,1.0,0.0,0.0,0.0,1.0,-1.82739990234,-3.40332275391,8.98371826172,0.1,0.0,0.0,0.0,0.1,0.0,0.0,0.0,0.1
1446040996052078064,4560,1446040996048974037,robocape,-39.0533014438,24.4357134511,-37.2896417085,0.0,10.0,0.0,0.0,0.0,10.0,0.0,0.0,0.0,10.0,-0.00426105774413,0.0295610880999,0.0127831732324,1.0,0.0,0.0,0.0,1.0,0.0,0.0,0.0,1.0,-2.28484863281,-3.76976074219,8.86875732422,0.1,0.0,0.0,0.0,0.1,0.0,0.0,0.0,0.1
1446040996092619898,4561,1446040996089525938,robocape,-38.7976208262,24.3417973079,-37.2111238746,0.0,10.0,0.0,0.0,0.0,10.0,0.0,0.0,0.0,10.0,0.0458063707494,0.0234358175927,-0.0680437658515,1.0,0.0,0.0,0.0,1.0,0.0,0.0,0.0,1.0,-1.8741027832,-3.48595092773,9.02802612305,0.1,0.0,0.0,0.0,0.1,0.0,0.0,0.0,0.1
1446040996121838981,4562,1446040996118380069,robocape,-38.5704820952,24.3627496514,-37.0181303315,0.0,10.0,0.0,0.0,0.0,10.0,0.0,0.0,0.0,10.0,0.00838895743375,0.033555829735,0.0145142279409,1.0,0.0,0.0,0.0,1.0,0.0,0.0,0.0,1.0,-1.85494262695,-3.7937109375,8.98970581055,0.1,0.0,0.0,0.0,0.1,0.0,0.0,0.0,0.1
1446040996156627481,4563,1446040996153507947,robocape,-38.2520326311,24.2825249716,-36.9191724107,0.0,10.0,0.0,0.0,0.0,10.0,0.0,0.0,0.0,10.0,0.0792290424299,0.0175768631945,-0.0513990090385,1.0,0.0,0.0,0.0,1.0,0.0,0.0,0.0,1.0,-1.76752441406,-3.95657226563,9.03521118164,0.1,0.0,0.0,0.0,0.1,0.0,0.0,0.0,0.1
1446040996194272439,4564,1446040996191086053,robocape,-38.0052978343,24.2357122566,-36.8100754995,0.0,10.0,0.0,0.0,0.0,10.0,0.0,0.0,0.0,10.0,0.0376837294246,0.0307595105904,-0.0386158358061,1.0,0.0,0.0,0.0,1.0,0.0,0.0,0.0,1.0,-2.33035400391,-3.38416259766,9.19807250977,0.1,0.0,0.0,0.0,0.1,0.0,0.0,0.0,0.1
1446040996237793648,4565,1446040996233899116,robocape,-37.8523351014,24.2443083855,-36.6282434488,0.0,10.0,0.0,0.0,0.0,10.0,0.0,0.0,0.0,10.0,-0.0280963495003,0.033555829735,0.00585895439817,1.0,0.0,0.0,0.0,1.0,0.0,0.0,0.0,1.0,-1.58670043945,-3.53624633789,9.10466674805,0.1,0.0,0.0,0.0,0.1,0.0,0.0,0.0,0.1
1446040996281416981,4566,1446040996278209924,robocape,-37.7100944419,24.3011718492,-36.3553024349,0.0,10.0,0.0,0.0,0.0,10.0,0.0,0.0,0.0,10.0,-0.050733218766,0.0238352917562,0.0587227020362,1.0,0.0,0.0,0.0,1.0,0.0,0.0,0.0,1.0,-1.71124145508,-3.30871948242,9.05676635742,0.1,0.0,0.0,0.0,0.1,0.0,0.0,0.0,0.1
1446040996315667023,4567,1446040996312541007,robocape,-37.6627147586,24.4237963432,-36.0004673621,0.0,10.0,0.0,0.0,0.0,10.0,0.0,0.0,0.0,10.0,-0.119575932945,0.0287621397729,0.110388027184,1.0,0.0,0.0,0.0,1.0,0.0,0.0,0.0,1.0,-1.87649780273,-3.38057006836,9.04239624023,0.1,0.0,0.0,0.0,0.1,0.0,0.0,0.0,0.1
1446040996351120940,4568,1446040996347748994,robocape,-37.5167955732,24.4985482221,-35.7116671273,0.0,10.0,0.0,0.0,0.0,10.0,0.0,0.0,0.0,10.0,-0.0513990090385,0.0256995045193,0.0729706138682,1.0,0.0,0.0,0.0,1.0,0.0,0.0,0.0,1.0,-1.9962487793,-3.86077148438,8.92384277344,0.1,0.0,0.0,0.0,0.1,0.0,0.0,0.0,0.1
1446040996389518815,4569,1446040996386151075,robocape,-37.150376598,24.4118673224,-35.6463443758,0.0,10.0,0.0,0.0,0.0,10.0,0.0,0.0,0.0,10.0,0.116646455745,0.0195742340121,-0.0596548084178,1.0,0.0,0.0,0.0,1.0,0.0,0.0,0.0,1.0,-2.39382202148,-3.59612182617,8.87234985352,0.1,0.0,0.0,0.0,0.1,0.0,0.0,0.0,0.1
1446040996425952690,4570,1446040996422661066,robocape,-36.6541956755,24.1653396043,-35.8415707965,0.0,10.0,0.0,0.0,0.0,10.0,0.0,0.0,0.0,10.0,0.240749762543,0.0283626656093,-0.21078920028,1.0,0.0,0.0,0.0,1.0,0.0,0.0,0.0,1.0,-2.34232910156,-3.42847045898,9.0471862793,0.1,0.0,0.0,0.0,0.1,0.0,0.0,0.0,0.1
1446040996464681940,4571,1446040996461380958,robocape,-36.0418371651,23.8466814069,-36.1480776728,0.0,10.0,0.0,0.0,0.0,10.0,0.0,0.0,0.0,10.0,0.32756881408,0.0256995045193,-0.275504014769,1.0,0.0,0.0,0.0,1.0,0.0,0.0,0.0,1.0,-2.10881469727,-3.24405395508,8.88312744141,0.1,0.0,0.0,0.0,0.1,0.0,0.0,0.0,0.1
1446040996499278648,4572,1446040996496189117,robocape,-35.697803068,23.7588219951,-36.1543288714,0.0,10.0,0.0,0.0,0.0,10.0,0.0,0.0,0.0,10.0,0.121306987653,0.0396811002422,-0.0906806351172,1.0,0.0,0.0,0.0,1.0,0.0,0.0,0.0,1.0,-1.94715087891,-3.25962158203,9.08670410156,0.1,0.0,0.0,0.0,0.1,0.0,0.0,0.0,0.1
1446040996534029315,4573,1446040996530776023,robocape,-35.5138728062,23.7531106393,-35.9675644668,0.0,10.0,0.0,0.0,0.0,10.0,0.0,0.0,0.0,10.0,-0.00266316109008,0.0197073920666,0.0102531701968,1.0,0.0,0.0,0.0,1.0,0.0,0.0,0.0,1.0,-0.810714111328,-3.58893676758,9.0016809082,0.1,0.0,0.0,0.0,0.1,0.0,0.0,0.0,0.1
1446040996572129815,4574,1446040996568929910,robocape,-35.4752720781,23.8868167108,-35.5871273271,0.0,10.0,0.0,0.0,0.0,10.0,0.0,0.0,0.0,10.0,-0.119842249054,0.0250337142467,0.129163312869,1.0,0.0,0.0,0.0,1.0,0.0,0.0,0.0,1.0,-1.6513659668,-3.25602905273,9.29626831055,0.1,0.0,0.0,0.0,0.1,0.0,0.0,0.0,0.1
1446040996609821606,4575,1446040996606295108,robocape,-35.4198959117,23.9770949934,-35.2556689539,0.0,10.0,0.0,0.0,0.0,10.0,0.0,0.0,0.0,10.0,-0.101200121423,0.0206394984481,0.0973385378424,1.0,0.0,0.0,0.0,1.0,0.0,0.0,0.0,1.0,-2.00103881836,-3.02011962891,8.98491577148,0.1,0.0,0.0,0.0,0.1,0.0,0.0,0.0,0.1
1446040996645243148,4576,1446040996642153978,robocape,-35.4132193018,24.0677508179,-34.9593317927,0.0,10.0,0.0,0.0,0.0,10.0,0.0,0.0,0.0,10.0,-0.121972777926,0.0336889877895,0.0820253615744,1.0,0.0,0.0,0.0,1.0,0.0,0.0,0.0,1.0,-2.48363525391,-3.28955932617,8.86037475586,0.1,0.0,0.0,0.0,0.1,0.0,0.0,0.0,0.1
1446040996681249606,4577,1446040996677762985,robocape,-35.3924676679,24.1335064678,-34.6892954345,0.0,10.0,0.0,0.0,0.0,10.0,0.0,0.0,0.0,10.0,-0.109056446639,0.0302268783724,0.0649811305979,1.0,0.0,0.0,0.0,1.0,0.0,0.0,0.0,1.0,-1.49928222656,-3.295546875,9.03401367187,0.1,0.0,0.0,0.0,0.1,0.0,0.0,0.0,0.1
1446040996715036481,4578,1446040996711678981,robocape,-35.3805761329,24.2859451296,-34.2839753935,0.0,10.0,0.0,0.0,0.0,10.0,0.0,0.0,0.0,10.0,-0.140348589447,0.0263652947918,0.14753912439,1.0,0.0,0.0,0.0,1.0,0.0,0.0,0.0,1.0,-1.52323242188,-3.54702392578,8.94180541992,0.1,0.0,0.0,0.0,0.1,0.0,0.0,0.0,0.1
1446040996750612731,4579,1446040996747528076,robocape,-35.2371225556,24.3701937325,-33.9710136962,0.0,10.0,0.0,0.0,0.0,10.0,0.0,0.0,0.0,10.0,-0.049135322112,0.0199737081756,0.0940095864798,1.0,0.0,0.0,0.0,1.0,0.0,0.0,0.0,1.0,-1.78668457031,-3.38176757813,9.00766845703,0.1,0.0,0.0,0.0,0.1,0.0,0.0,0.0,0.1
1446040996786947981,4580,1446040996783713102,robocape,-34.9906670419,24.3243722048,-33.8581256582,0.0,10.0,0.0,0.0,0.0,10.0,0.0,0.0,0.0,10.0,0.0480700576759,0.0201068662301,-0.0233026595382,1.0,0.0,0.0,0.0,1.0,0.0,0.0,0.0,1.0,-2.74349487305,-3.61528198242,8.8939050293,0.1,0.0,0.0,0.0,0.1,0.0,0.0,0.0,0.1
1446040996821788356,4581,1446040996818635940,robocape,-34.475476361,24.089763854,-34.0846517904,0.0,10.0,0.0,0.0,0.0,10.0,0.0,0.0,0.0,10.0,0.264585054299,0.0291616139364,-0.211588148607,1.0,0.0,0.0,0.0,1.0,0.0,0.0,0.0,1.0,-2.42735229492,-3.43685302734,9.11783935547,0.1,0.0,0.0,0.0,0.1,0.0,0.0,0.0,0.1
1446040996856477106,4582,1446040996853405952,robocape,-33.9191840596,23.7992491252,-34.4251054119,0.0,10.0,0.0,0.0,0.0,10.0,0.0,0.0,0.0,10.0,0.309725634776,0.0352868844435,-0.275370856714,1.0,0.0,0.0,0.0,1.0,0.0,0.0,0.0,1.0,-2.26209594727,-3.08478515625,9.06754394531,0.1,0.0,0.0,0.0,0.1,0.0,0.0,0.0,0.1
1446040996888350231,4583,1446040996885117053,robocape,-33.6640058838,23.6612106101,-34.5488690691,0.0,10.0,0.0,0.0,0.0,10.0,0.0,0.0,0.0,10.0,0.101466437532,0.0478037415669,-0.15020228548,1.0,0.0,0.0,0.0,1.0,0.0,0.0,0.0,1.0,-1.26696533203,-3.14106811523,9.10346923828,0.1,0.0,0.0,0.0,0.1,0.0,0.0,0.0,0.1
1446040996922496565,4584,1446040996919401884,robocape,-33.5016948753,23.7001641995,-34.3276713011,0.0,10.0,0.0,0.0,0.0,10.0,0.0,0.0,0.0,10.0,-0.0145142279409,0.0260989786828,0.0446079482588,1.0,0.0,0.0,0.0,1.0,0.0,0.0,0.0,1.0,-0.617915039063,-3.4452355957,8.96455810547,0.1,0.0,0.0,0.0,0.1,0.0,0.0,0.0,0.1
1446040996961067273,4585,1446040996957613945,robocape,-33.6101572018,23.9452512814,-33.7591376433,0.0,10.0,0.0,0.0,0.0,10.0,0.0,0.0,0.0,10.0,-0.230629750401,0.0241016078652,0.243945555851,1.0,0.0,0.0,0.0,1.0,0.0,0.0,0.0,1.0,-1.03943847656,-3.295546875,9.07113647461,0.1,0.0,0.0,0.0,0.1,0.0,0.0,0.0,0.1
1446040996995586273,4586,1446040996992269039,robocape,-33.6009632938,24.1254797298,-33.286127816,0.0,10.0,0.0,0.0,0.0,10.0,0.0,0.0,0.0,10.0,-0.148338072717,0.0195742340121,0.18921759545,1.0,0.0,0.0,0.0,1.0,0.0,0.0,0.0,1.0,-2.0657043457,-3.14705566406,8.98731079102,0.1,0.0,0.0,0.0,0.1,0.0,0.0,0.0,0.1
1446040997031432190,4587,1446040997028048992,robocape,-33.7005034101,24.333385267,-32.7924905577,0.0,10.0,0.0,0.0,0.0,10.0,0.0,0.0,0.0,10.0,-0.213718677479,0.0299605622634,0.203465507282,1.0,0.0,0.0,0.0,1.0,0.0,0.0,0.0,1.0,-2.89078857422,-3.65120727539,8.82444946289,0.1,0.0,0.0,0.0,0.1,0.0,0.0,0.0,0.1
1446040997064675857,4588,1446040997061423063,robocape,-33.5110856127,24.2434866715,-32.7949270085,0.0,10.0,0.0,0.0,0.0,10.0,0.0,0.0,0.0,10.0,0.0439421579863,0.032756881408,-0.0808269390839,1.0,0.0,0.0,0.0,1.0,0.0,0.0,0.0,1.0,-2.54949829102,-3.30273193359,9.18968994141,0.1,0.0,0.0,0.0,0.1,0.0,0.0,0.0,0.1
1446040997102025940,4589,1446040997098893880,robocape,-33.3333064699,24.2212993162,-32.7188710203,0.0,10.0,0.0,0.0,0.0,10.0,0.0,0.0,0.0,10.0,0.0222373951022,0.0400805744057,-0.0288952978274,1.0,0.0,0.0,0.0,1.0,0.0,0.0,0.0,1.0,-1.78428955078,-3.04406982422,9.06035888672,0.1,0.0,0.0,0.0,0.1,0.0,0.0,0.0,0.1
1446040997137883023,4590,1446040997134809970,robocape,-33.1686154462,24.2455003736,-32.5273093331,0.0,10.0,0.0,0.0,0.0,10.0,0.0,0.0,0.0,10.0,-0.00692421883421,0.0270310850643,0.0331563555715,1.0,0.0,0.0,0.0,1.0,0.0,0.0,0.0,1.0,-1.17834960938,-3.97692993164,8.86995483398,0.1,0.0,0.0,0.0,0.1,0.0,0.0,0.0,0.1
1446040997175327898,4591,1446040997170504093,robocape,-33.0141743393,24.2751192711,-32.3009011091,0.0,10.0,0.0,0.0,0.0,10.0,0.0,0.0,0.0,10.0,-0.0187752856851,0.0193079179031,0.049934270439,1.0,0.0,0.0,0.0,1.0,0.0,0.0,0.0,1.0,-1.55796020508,-3.39134765625,9.00287841797,0.1,0.0,0.0,0.0,0.1,0.0,0.0,0.0,0.1
1446040997210754482,4592,1446040997206845998,robocape,-32.9190464798,24.3332591464,-32.0566696366,0.0,10.0,0.0,0.0,0.0,10.0,0.0,0.0,0.0,10.0,-0.0549942765101,0.0290284558819,0.0644484983799,1.0,0.0,0.0,0.0,1.0,0.0,0.0,0.0,1.0,-2.31358886719,-3.27997924805,8.91785522461,0.1,0.0,0.0,0.0,0.1,0.0,0.0,0.0,0.1
1446040997245776315,4593,1446040997242506027,robocape,-32.7866599573,24.3485858925,-31.8840941416,0.0,10.0,0.0,0.0,0.0,10.0,0.0,0.0,0.0,10.0,-0.0198405501211,0.0288952978274,0.0239684498107,1.0,0.0,0.0,0.0,1.0,0.0,0.0,0.0,1.0,-1.84656005859,-3.76856323242,8.89869506836,0.1,0.0,0.0,0.0,0.1,0.0,0.0,0.0,0.1
1446040997288704940,4594,1446040997285502910,robocape,-32.5599204372,24.3163007544,-31.7921666134,0.0,10.0,0.0,0.0,0.0,10.0,0.0,0.0,0.0,10.0,0.048869006003,0.0268979270098,-0.0202400242846,1.0,0.0,0.0,0.0,1.0,0.0,0.0,0.0,1.0,-2.07528442383,-3.42847045898,8.96815063477,0.1,0.0,0.0,0.0,0.1,0.0,0.0,0.0,0.1
1446040997322585607,4595,1446040997319478034,robocape,-32.3496836094,24.2821013184,-31.7093837003,0.0,10.0,0.0,0.0,0.0,10.0,0.0,0.0,0.0,10.0,0.0422111032778,0.0287621397729,-0.0246342400832,1.0,0.0,0.0,0.0,1.0,0.0,0.0,0.0,1.0,-1.68369873047,-3.2153137207,9.03281616211,0.1,0.0,0.0,0.0,0.1,0.0,0.0,0.0,0.1
1446040997360439398,4596,1446040997357187986,robocape,-31.9781197587,24.1711976312,-31.7516700698,0.0,10.0,0.0,0.0,0.0,10.0,0.0,0.0,0.0,10.0,0.156860188206,0.0231695014837,-0.0941427445343,1.0,0.0,0.0,0.0,1.0,0.0,0.0,0.0,1.0,-2.08965454102,-3.5290612793,8.86875732422,0.1,0.0,0.0,0.0,0.1,0.0,0.0,0.0,0.1
1446040997394733523,4597,1446040997391364097,robocape,-31.5186017182,23.980081553,-31.9472259914,0.0,10.0,0.0,0.0,0.0,10.0,0.0,0.0,0.0,10.0,0.236355546745,0.0255663464648,-0.179097583308,1.0,0.0,0.0,0.0,1.0,0.0,0.0,0.0,1.0,-2.39382202148,-3.34584228516,8.94659545898,0.1,0.0,0.0,0.0,0.1,0.0,0.0,0.0,0.1
1446040997425652065,4598,1446040997422044038,robocape,-31.0732078769,23.7891254257,-32.1987996265,0.0,10.0,0.0,0.0,0.0,10.0,0.0,0.0,0.0,10.0,0.239684498107,0.0404800485692,-0.204397613664,1.0,0.0,0.0,0.0,1.0,0.0,0.0,0.0,1.0,-2.13396240234,-3.05724243164,9.11544433594,0.1,0.0,0.0,0.0,0.1,0.0,0.0,0.0,0.1
1446040997461850357,4599,1446040997458719968,robocape,-30.880702254,23.7128212367,-32.2423354084,0.0,10.0,0.0,0.0,0.0,10.0,0.0,0.0,0.0,10.0,0.0608532309083,0.0427437354958,-0.0910801092807,1.0,0.0,0.0,0.0,1.0,0.0,0.0,0.0,1.0,-1.00710571289,-3.28357177734,9.02203857422,0.1,0.0,0.0,0.0,0.1,0.0,0.0,0.0,0.1
1446040997494838690,4600,1446040997491758108,robocape,-30.8308126284,23.7585801918,-32.0261398188,0.0,10.0,0.0,0.0,0.0,10.0,0.0,0.0,0.0,10.0,-0.06711165947,0.0312921428084,0.0506000607115,1.0,0.0,0.0,0.0,1.0,0.0,0.0,0.0,1.0,-0.865799560547,-3.53744384766,9.01724853516,0.1,0.0,0.0,0.0,0.1,0.0,0.0,0.0,0.1
1446040997529757565,4601,1446040997526609897,robocape,-30.9310392026,23.970268062,-31.4721776471,0.0,10.0,0.0,0.0,0.0,10.0,0.0,0.0,0.0,10.0,-0.215316574133,0.0191747598486,0.237820285344,1.0,0.0,0.0,0.0,1.0,0.0,0.0,0.0,1.0,-0.981958007813,-3.46439575195,9.10586425781,0.1,0.0,0.0,0.0,0.1,0.0,0.0,0.0,0.1
1446040997565272065,4602,1446040997561763048,robocape,-30.924979443,24.1107275892,-31.0357619387,0.0,10.0,0.0,0.0,0.0,10.0,0.0,0.0,0.0,10.0,-0.134889109213,0.0154463343225,0.171640732256,1.0,0.0,0.0,0.0,1.0,0.0,0.0,0.0,1.0,-2.22856567383,-3.17100585938,8.97294067383,0.1,0.0,0.0,0.0,0.1,0.0,0.0,0.0,0.1
1446040997600680649,4603,1446040997597596883,robocape,-31.0595422223,24.2406806112,-30.6784182836,0.0,10.0,0.0,0.0,0.0,10.0,0.0,0.0,0.0,10.0,-0.197473394829,0.0368847810976,0.131959632013,1.0,0.0,0.0,0.0,1.0,0.0,0.0,0.0,1.0,-2.88001098633,-3.4452355957,8.90947265625,0.1,0.0,0.0,0.0,0.1,0.0,0.0,0.0,0.1
1446040997634741482,4604,1446040997631434917,robocape,-30.9340981534,24.2252188868,-30.5473858218,0.0,10.0,0.0,0.0,0.0,10.0,0.0,0.0,0.0,10.0,-0.00945422186978,0.0233026595382,0.0034621094171,1.0,0.0,0.0,0.0,1.0,0.0,0.0,0.0,1.0,-1.93996582031,-3.67036743164,8.95378051758,0.1,0.0,0.0,0.0,0.1,0.0,0.0,0.0,0.1
1446040997672871899,4605,1446040997669703006,robocape,-30.6394188676,24.1281946295,-30.5711924737,0.0,10.0,0.0,0.0,0.0,10.0,0.0,0.0,0.0,10.0,0.114915401037,0.0219710789932,-0.0800279907569,1.0,0.0,0.0,0.0,1.0,0.0,0.0,0.0,1.0,-2.07648193359,-3.30512695313,8.99808837891,0.1,0.0,0.0,0.0,0.1,0.0,0.0,0.0,0.1
1446040997708125482,4606,1446040997704653978,robocape,-30.4672228055,24.1117319705,-30.4953970967,0.0,10.0,0.0,0.0,0.0,10.0,0.0,0.0,0.0,10.0,0.0280963495003,0.0358195166616,-0.0190416017941,1.0,0.0,0.0,0.0,1.0,0.0,0.0,0.0,1.0,-1.93996582031,-3.71108276367,8.86755981445,0.1,0.0,0.0,0.0,0.1,0.0,0.0,0.0,0.1
1446040997742359815,4607,1446040997738940000,robocape,-30.3166315601,24.0679471339,-30.4364283215,0.0,10.0,0.0,0.0,0.0,10.0,0.0,0.0,0.0,10.0,0.0203731823391,0.0278300333913,-0.0334226716805,1.0,0.0,0.0,0.0,1.0,0.0,0.0,0.0,1.0,-1.43940673828,-3.57456665039,8.99808837891,0.1,0.0,0.0,0.0,0.1,0.0,0.0,0.0,0.1
1446040997777326357,4608,1446040997774003982,robocape,-30.210105504,24.1302676309,-30.1934273193,0.0,10.0,0.0,0.0,0.0,10.0,0.0,0.0,0.0,10.0,-0.0402137324602,0.0288952978274,0.0728374558137,1.0,0.0,0.0,0.0,1.0,0.0,0.0,0.0,1.0,-1.61903320313,-3.23207885742,9.01365600586,0.1,0.0,0.0,0.0,0.1,0.0,0.0,0.0,0.1
1446040997812170899,4609,1446040997809015035,robocape,-30.1738255446,24.218949714,-29.8958459294,0.0,10.0,0.0,0.0,0.0,10.0,0.0,0.0,0.0,10.0,-0.0894822126267,0.0286289817184,0.102265385859,1.0,0.0,0.0,0.0,1.0,0.0,0.0,0.0,1.0,-1.82500488281,-3.58414672852,8.94060791016,0.1,0.0,0.0,0.0,0.1,0.0,0.0,0.0,0.1
1446040997847275399,4610,1446040997843720912,robocape,-30.136512334,24.279684892,-29.6424961646,0.0,10.0,0.0,0.0,0.0,10.0,0.0,0.0,0.0,10.0,-0.0800279907569,0.0272974011733,0.0766990393943,1.0,0.0,0.0,0.0,1.0,0.0,0.0,0.0,1.0,-2.01540893555,-3.50990112305,8.9250402832,0.1,0.0,0.0,0.0,0.1,0.0,0.0,0.0,0.1
1446040997880788149,4611,1446040997877645969,robocape,-29.9885521861,24.2458821881,-29.5525607034,0.0,10.0,0.0,0.0,0.0,10.0,0.0,0.0,0.0,10.0,0.0138484376684,0.0230363434292,-0.0149137021044,1.0,0.0,0.0,0.0,1.0,0.0,0.0,0.0,1.0,-2.07408691406,-3.48954345703,8.96815063477,0.1,0.0,0.0,0.0,0.1,0.0,0.0,0.0,0.1
1446040997918800649,4612,1446040997915520906,robocape,-29.8346689991,24.2079779789,-29.4907260195,0.0,10.0,0.0,0.0,0.0,10.0,0.0,0.0,0.0,10.0,0.0230363434292,0.0280963495003,-0.0276968753368,1.0,0.0,0.0,0.0,1.0,0.0,0.0,0.0,1.0,-2.43333984375,-3.77814331055,8.93102783203,0.1,0.0,0.0,0.0,0.1,0.0,0.0,0.0,0.1
1446040997955094565,4613,1446040997951831102,robocape,-29.7035665631,24.1736239001,-29.416390051,0.0,10.0,0.0,0.0,0.0,10.0,0.0,0.0,0.0,10.0,0.00852211548825,0.0267647689553,-0.0215716048296,1.0,0.0,0.0,0.0,1.0,0.0,0.0,0.0,1.0,-1.52323242188,-3.4835559082,8.94420043945,0.1,0.0,0.0,0.0,0.1,0.0,0.0,0.0,0.1
1446040997989909149,4614,1446040997986650943,robocape,-29.5861935715,24.2062333183,-29.2198682626,0.0,10.0,0.0,0.0,0.0,10.0,0.0,0.0,0.0,10.0,-0.0233026595382,0.0262321367373,0.0483363737849,1.0,0.0,0.0,0.0,1.0,0.0,0.0,0.0,1.0,-1.62023071289,-3.40931030273,8.89510253906,0.1,0.0,0.0,0.0,0.1,0.0,0.0,0.0,0.1
1446040998024004357,4615,1446040998020775079,robocape,-29.4998645519,24.2467830414,-29.0086242221,0.0,10.0,0.0,0.0,0.0,10.0,0.0,0.0,0.0,10.0,-0.0430100516048,0.0268979270098,0.0565921731642,1.0,0.0,0.0,0.0,1.0,0.0,0.0,0.0,1.0,-2.02858154297,-3.64641723633,8.91426269531,0.1,0.0,0.0,0.0,0.1,0.0,0.0,0.0,0.1
1446040998058577190,4616,1446040998055428028,robocape,-29.3707286256,24.2173428536,-28.922165934,0.0,10.0,0.0,0.0,0.0,10.0,0.0,0.0,0.0,10.0,0.00599211245268,0.0250337142467,-0.0135821215594,1.0,0.0,0.0,0.0,1.0,0.0,0.0,0.0,1.0,-2.14354248047,-3.50511108398,8.88911499023,0.1,0.0,0.0,0.0,0.1,0.0,0.0,0.0,0.1
1446040998094466815,4617,1446040998091011047,robocape,-28.9977180671,24.0930747928,-29.0177677132,0.0,10.0,0.0,0.0,0.0,10.0,0.0,0.0,0.0,10.0,0.176567580272,0.0198405501211,-0.110787501347,1.0,0.0,0.0,0.0,1.0,0.0,0.0,0.0,1.0,-2.21419555664,-3.46798828125,8.99329833984,0.1,0.0,0.0,0.0,0.1,0.0,0.0,0.0,0.1
1446040998133705232,4618,1446040998130287885,robocape,-28.7380392443,23.9579902319,-29.1883542249,0.0,10.0,0.0,0.0,0.0,10.0,0.0,0.0,0.0,10.0,0.129962261196,0.0366184649886,-0.14900386299,1.0,0.0,0.0,0.0,1.0,0.0,0.0,0.0,1.0,-2.31358886719,-3.47637084961,8.94300292969,0.1,0.0,0.0,0.0,0.1,0.0,0.0,0.0,0.1
1446040998173933524,4619,1446040998170757055,robocape,-28.4432345694,23.8421197548,-29.2941684815,0.0,10.0,0.0,0.0,0.0,10.0,0.0,0.0,0.0,10.0,0.136753321976,0.0272974011733,-0.115448033255,1.0,0.0,0.0,0.0,1.0,0.0,0.0,0.0,1.0,-0.968785400391,-3.13987060547,9.06395141602,0.1,0.0,0.0,0.0,0.1,0.0,0.0,0.0,0.1
1446040998210182649,4620,1446040998207067966,robocape,-28.3073354552,23.9178029646,-29.0377856675,0.0,10.0,0.0,0.0,0.0,10.0,0.0,0.0,0.0,10.0,-0.0215716048296,0.0302268783724,0.0869522095911,1.0,0.0,0.0,0.0,1.0,0.0,0.0,0.0,1.0,-1.42024658203,-3.67036743164,8.90707763672,0.1,0.0,0.0,0.0,0.1,0.0,0.0,0.0,0.1
1446040998245092607,4621,1446040998240655899,robocape,-28.1933165086,23.9088572779,-28.8985627967,0.0,10.0,0.0,0.0,0.0,10.0,0.0,0.0,0.0,10.0,-0.00945422186978,0.0199737081756,0.015313176268,1.0,0.0,0.0,0.0,1.0,0.0,0.0,0.0,1.0,-1.96271850586,-3.40571777344,9.11065429688,0.1,0.0,0.0,0.0,0.1,0.0,0.0,0.0,0.1
1446040998290142149,4622,1446040998287059068,robocape,-28.1327573261,23.9151964868,-28.7532646726,0.0,10.0,0.0,0.0,0.0,10.0,0.0,0.0,0.0,10.0,-0.0396811002422,0.0270310850643,0.0209058145571,1.0,0.0,0.0,0.0,1.0,0.0,0.0,0.0,1.0,-1.85494262695,-3.6404296875,9.04479125977,0.1,0.0,0.0,0.0,0.1,0.0,0.0,0.0,0.1
1446040998323888982,4623,1446040998320734024,robocape,-27.8733090898,23.8676642151,-28.7169475324,0.0,10.0,0.0,0.0,0.0,10.0,0.0,0.0,0.0,10.0,0.0906806351172,0.0230363434292,-0.0355532005526,1.0,0.0,0.0,0.0,1.0,0.0,0.0,0.0,1.0,-2.20461547852,-3.72904541016,9.01844604492,0.1,0.0,0.0,0.0,0.1,0.0,0.0,0.0,0.1
1446040998360332316,4624,1446040998357072114,robocape,-27.6815928167,23.777098503,-28.7905154777,0.0,10.0,0.0,0.0,0.0,10.0,0.0,0.0,0.0,10.0,0.0761664071763,0.0312921428084,-0.0956074831338,1.0,0.0,0.0,0.0,1.0,0.0,0.0,0.0,1.0,-2.222578125,-3.51948120117,9.13819702148,0.1,0.0,0.0,0.0,0.1,0.0,0.0,0.0,0.1
1446040998396697482,4625,1446040998393577098,robocape,-27.6287936613,23.7671596223,-28.7117492839,0.0,10.0,0.0,0.0,0.0,10.0,0.0,0.0,0.0,10.0,-0.0294279300454,0.0354200424981,-0.0119842249054,1.0,0.0,0.0,0.0,1.0,0.0,0.0,0.0,1.0,-1.30049560547,-3.10155029297,9.09029663086,0.1,0.0,0.0,0.0,0.1,0.0,0.0,0.0,0.1
1446040998427398399,4626,1446040998423732995,robocape,-27.6441529565,23.8508608415,-28.4179293896,0.0,10.0,0.0,0.0,0.0,10.0,0.0,0.0,0.0,10.0,-0.109056446639,0.0284958236638,0.104395914731,1.0,0.0,0.0,0.0,1.0,0.0,0.0,0.0,1.0,-1.16637451172,-3.3338671875,8.82684448242,0.1,0.0,0.0,0.0,0.1,0.0,0.0,0.0,0.1
1446040998466674524,4627,1446040998463188886,robocape,-27.7673686085,24.0216212857,-27.9300451787,0.0,10.0,0.0,0.0,0.0,10.0,0.0,0.0,0.0,10.0,-0.206927616699,0.0247673981377,0.209191303626,1.0,0.0,0.0,0.0,1.0,0.0,0.0,0.0,1.0,-1.67052612305,-3.52546875,8.90228759766,0.1,0.0,0.0,0.0,0.1,0.0,0.0,0.0,0.1
1446040998500880816,4628,1446040998497657060,robocape,-27.71839014,24.0933998092,-27.6260553034,0.0,10.0,0.0,0.0,0.0,10.0,0.0,0.0,0.0,10.0,-0.0768321974488,0.0183758115215,0.10879013053,1.0,0.0,0.0,0.0,1.0,0.0,0.0,0.0,1.0,-2.21778808594,-3.33147216797,8.98731079102,0.1,0.0,0.0,0.0,0.1,0.0,0.0,0.0,0.1
1446040998535094316,4629,1446040998531796932,robocape,-27.5080132125,24.0635805985,-27.5560796816,0.0,10.0,0.0,0.0,0.0,10.0,0.0,0.0,0.0,10.0,0.0583232278727,0.0230363434292,-0.0145142279409,1.0,0.0,0.0,0.0,1.0,0.0,0.0,0.0,1.0,-2.9853918457,-3.64881225586,8.84959716797,0.1,0.0,0.0,0.0,0.1,0.0,0.0,0.0,0.1
1446040998573001024,4630,1446040998569360017,robocape,-26.9959733471,23.8384230775,-27.9429711312,0.0,10.0,0.0,0.0,0.0,10.0,0.0,0.0,0.0,10.0,0.314785640847,0.031957933081,-0.256062938811,1.0,0.0,0.0,0.0,1.0,0.0,0.0,0.0,1.0,-2.34711914063,-3.42966796875,9.11065429688,0.1,0.0,0.0,0.0,0.1,0.0,0.0,0.0,0.1
1446040998608532607,4631,1446040998605261087,robocape,-26.4450843485,23.5785697302,-28.4105491379,0.0,10.0,0.0,0.0,0.0,10.0,0.0,0.0,0.0,10.0,0.351803579999,0.0316916169719,-0.30067088707,1.0,0.0,0.0,0.0,1.0,0.0,0.0,0.0,1.0,-2.09324707031,-2.82133300781,8.74301879883,0.1,0.0,0.0,0.0,0.1,0.0,0.0,0.0,0.1
1446040998643097857,4632,1446040998639879941,robocape,-26.2140837792,23.4984045413,-28.548015443,0.0,10.0,0.0,0.0,0.0,10.0,0.0,0.0,0.0,10.0,0.112784872165,0.0467384771309,-0.119975407108,1.0,0.0,0.0,0.0,1.0,0.0,0.0,0.0,1.0,-0.775986328125,-3.19136352539,9.09867919922,0.1,0.0,0.0,0.0,0.1,0.0,0.0,0.0,0.1
1446040998677015691,4633,1446040998673938989,robocape,-26.1095095693,23.5056885981,-28.3825807294,0.0,10.0,0.0,0.0,0.0,10.0,0.0,0.0,0.0,10.0,-0.0142479118319,0.0195742340121,0.0336889877895,1.0,0.0,0.0,0.0,1.0,0.0,0.0,0.0,1.0,-0.82388671875,-3.63084960938,8.93102783203,0.1,0.0,0.0,0.0,0.1,0.0,0.0,0.0,0.1
1446040998711326899,4634,1446040998708189010,robocape,-26.1976930983,23.6365976429,-27.9614803817,0.0,10.0,0.0,0.0,0.0,10.0,0.0,0.0,0.0,10.0,-0.16911072922,0.0234358175927,0.173105470855,1.0,0.0,0.0,0.0,1.0,0.0,0.0,0.0,1.0,-1.38911132813,-3.11472290039,9.22801025391,0.1,0.0,0.0,0.0,0.1,0.0,0.0,0.0,0.1
1446040998746265191,4635,1446040998742757081,robocape,-26.3539968419,23.8044388058,-27.4536135098,0.0,10.0,0.0,0.0,0.0,10.0,0.0,0.0,0.0,10.0,-0.22410500573,0.0222373951022,0.219577631877,1.0,0.0,0.0,0.0,1.0,0.0,0.0,0.0,1.0,-1.51365234375,-3.51469116211,8.98731079102,0.1,0.0,0.0,0.0,0.1,0.0,0.0,0.0,0.1
1446040998781739191,4636,1446040998778615951,robocape,-26.46444461,23.914879109,-27.0909492569,0.0,10.0,0.0,0.0,0.0,10.0,0.0,0.0,0.0,10.0,-0.171374416147,0.0276968753368,0.143144908592,1.0,0.0,0.0,0.0,1.0,0.0,0.0,0.0,1.0,-2.85007324219,-3.30871948242,9.13220947266,0.1,0.0,0.0,0.0,0.1,0.0,0.0,0.0,0.1
1446040998816117441,4637,1446040998812951087,robocape,-26.5804423545,23.9727927913,-26.8521168095,0.0,10.0,0.0,0.0,0.0,10.0,0.0,0.0,0.0,10.0,-0.150069127426,0.0316916169719,0.0765658813398,1.0,0.0,0.0,0.0,1.0,0.0,0.0,0.0,1.0,-2.03696411133,-3.22010375977,9.14178955078,0.1,0.0,0.0,0.0,0.1,0.0,0.0,0.0,0.1
1446040998850310024,4638,1446040998847215890,robocape,-26.4316049493,23.9559277641,-26.7423158808,0.0,10.0,0.0,0.0,0.0,10.0,0.0,0.0,0.0,10.0,0.0197073920666,0.0193079179031,0.00759000910673,1.0,0.0,0.0,0.0,1.0,0.0,0.0,0.0,1.0,-1.62621826172,-3.62366455078,8.87474487305,0.1,0.0,0.0,0.0,0.1,0.0,0.0,0.0,0.1
1446040998884904899,4639,1446040998881776094,robocape,-26.1533928181,23.8878639517,-26.7594754544,0.0,10.0,0.0,0.0,0.0,10.0,0.0,0.0,0.0,10.0,0.115847507418,0.0209058145571,-0.0577905956547,1.0,0.0,0.0,0.0,1.0,0.0,0.0,0.0,1.0,-2.2608984375,-3.55061645508,8.94060791016,0.1,0.0,0.0,0.0,0.1,0.0,0.0,0.0,0.1
1446040998921088441,4640,1446040998917606115,robocape,-25.7478290608,23.7387322427,-26.9884050609,0.0,10.0,0.0,0.0,0.0,10.0,0.0,0.0,0.0,10.0,0.227833431256,0.0271642431188,-0.168178622839,1.0,0.0,0.0,0.0,1.0,0.0,0.0,0.0,1.0,-2.53153564453,-3.36500244141,8.97892822266,0.1,0.0,0.0,0.0,0.1,0.0,0.0,0.0,0.1
1446040998951915149,4641,1446040998948684930,robocape,-25.3361408777,23.5554341879,-27.3260222539,0.0,10.0,0.0,0.0,0.0,10.0,0.0,0.0,0.0,10.0,0.253000303558,0.034354778062,-0.225170270166,1.0,0.0,0.0,0.0,1.0,0.0,0.0,0.0,1.0,-1.95912597656,-3.04766235352,9.04838378906,0.1,0.0,0.0,0.0,0.1,0.0,0.0,0.0,0.1
1446040998992223024,4642,1446040998988945960,robocape,-25.1740499215,23.4986764742,-27.4045499739,0.0,10.0,0.0,0.0,0.0,10.0,0.0,0.0,0.0,10.0,0.0667121853065,0.0419447871687,-0.0862864193186,1.0,0.0,0.0,0.0,1.0,0.0,0.0,0.0,1.0,-0.983155517578,-3.16382080078,9.0052734375,0.1,0.0,0.0,0.0,0.1,0.0,0.0,0.0,0.1
1446040999027939649,4643,1446040999024910926,robocape,-25.1516753151,23.5636193196,-27.1320514296,0.0,10.0,0.0,0.0,0.0,10.0,0.0,0.0,0.0,10.0,-0.0776311457758,0.0241016078652,0.0964064314609,1.0,0.0,0.0,0.0,1.0,0.0,0.0,0.0,1.0,-0.920885009766,-3.73982299805,8.98970581055,0.1,0.0,0.0,0.0,0.1,0.0,0.0,0.0,0.1
1446040999063660733,4644,1446040999060553073,robocape,-25.115586697,23.6406978217,-26.7950305461,0.0,10.0,0.0,0.0,0.0,10.0,0.0,0.0,0.0,10.0,-0.082957467956,0.0149137021044,0.129030154814,1.0,0.0,0.0,0.0,1.0,0.0,0.0,0.0,1.0,-1.46575195313,-3.09316772461,9.09748168945,0.1,0.0,0.0,0.0,0.1,0.0,0.0,0.0,0.1
1446040999099598441,4645,1446040999096354007,robocape,-25.0875876465,23.6998030008,-26.5267485874,0.0,10.0,0.0,0.0,0.0,10.0,0.0,0.0,0.0,10.0,-0.0739027202497,0.0219710789932,0.0945422186978,1.0,0.0,0.0,0.0,1.0,0.0,0.0,0.0,1.0,-2.7554699707,-3.08718017578,9.07472900391,0.1,0.0,0.0,0.0,0.1,0.0,0.0,0.0,0.1
1446040999133499316,4646,1446040999130053997,robocape,-24.9081915333,23.6580516841,-26.5392721905,0.0,10.0,0.0,0.0,0.0,10.0,0.0,0.0,0.0,10.0,0.0639158661619,0.0326237233535,-0.050733218766,1.0,0.0,0.0,0.0,1.0,0.0,0.0,0.0,1.0,-2.34232910156,-3.08598266602,9.02084106445,0.1,0.0,0.0,0.0,0.1,0.0,0.0,0.0,0.1
1446040999167088941,4647,1446040999163564920,robocape,-24.759928416,23.5944060406,-26.6171840428,0.0,10.0,0.0,0.0,0.0,10.0,0.0,0.0,0.0,10.0,0.0604537567448,0.0370179391521,-0.0854874709915,1.0,0.0,0.0,0.0,1.0,0.0,0.0,0.0,1.0,-2.16150512695,-3.37937255859,8.97294067383,0.1,0.0,0.0,0.0,0.1,0.0,0.0,0.0,0.1
1446040999205504983,4648,1446040999202353000,robocape,-24.7454374745,23.5960729468,-26.5178752324,0.0,10.0,0.0,0.0,0.0,10.0,0.0,0.0,0.0,10.0,-0.0467384771309,0.0320910911355,0.00625842856169,1.0,0.0,0.0,0.0,1.0,0.0,0.0,0.0,1.0,-1.10649902344,-3.45960571289,9.03640869141,0.1,0.0,0.0,0.0,0.1,0.0,0.0,0.0,0.1
1446040999235024316,4649,1446040999231895923,robocape,-24.8326570801,23.710008938,-26.1388445325,0.0,10.0,0.0,0.0,0.0,10.0,0.0,0.0,0.0,10.0,-0.157525978478,0.0266316109008,0.155129133497,1.0,0.0,0.0,0.0,1.0,0.0,0.0,0.0,1.0,-1.06698120117,-3.3302746582,9.06035888672,0.1,0.0,0.0,0.0,0.1,0.0,0.0,0.0,0.1
1446040999278023858,4650,1446040999274935960,robocape,-25.0620006499,23.8917613025,-25.5845209071,0.0,10.0,0.0,0.0,0.0,10.0,0.0,0.0,0.0,10.0,-0.270310850643,0.0234358175927,0.246741874996,1.0,0.0,0.0,0.0,1.0,0.0,0.0,0.0,1.0,-1.77710449219,-3.53025878906,8.91905273438,0.1,0.0,0.0,0.0,0.1,0.0,0.0,0.0,0.1
1446040999313724399,4651,1446040999310381889,robocape,-25.1812588508,24.0136007615,-25.1597393896,0.0,10.0,0.0,0.0,0.0,10.0,0.0,0.0,0.0,10.0,-0.185888644088,0.0205063403936,0.178032318872,1.0,0.0,0.0,0.0,1.0,0.0,0.0,0.0,1.0,-2.31718139648,-3.53265380859,9.02563110352,0.1,0.0,0.0,0.0,0.1,0.0,0.0,0.0,0.1
1446040999347647399,4652,1446040999343898057,robocape,-25.1771443277,24.0152860793,-25.0115700769,0.0,10.0,0.0,0.0,0.0,10.0,0.0,0.0,0.0,10.0,-0.0632500758894,0.0209058145571,0.0310258266994,1.0,0.0,0.0,0.0,1.0,0.0,0.0,0.0,1.0,-2.62853393555,-3.78173583984,8.86516479492,0.1,0.0,0.0,0.0,0.1,0.0,0.0,0.0,0.1
1446040999382916899,4653,1446040999379777908,robocape,-24.9215680543,23.9230326021,-25.1342949769,0.0,10.0,0.0,0.0,0.0,10.0,0.0,0.0,0.0,10.0,0.127831732324,0.0295610880999,-0.10612696944,1.0,0.0,0.0,0.0,1.0,0.0,0.0,0.0,1.0,-2.16749267578,-3.23088134766,8.95497802734,0.1,0.0,0.0,0.0,0.1,0.0,0.0,0.0,0.1
1446040999412748608,4654,1446040999409087896,robocape,-24.775717338,23.8922296617,-25.1125983596,0.0,10.0,0.0,0.0,0.0,10.0,0.0,0.0,0.0,10.0,0.0395479421877,0.0296942461544,-0.0302268783724,1.0,0.0,0.0,0.0,1.0,0.0,0.0,0.0,1.0,-1.62382324219,-3.59372680664,8.88192993164,0.1,0.0,0.0,0.0,0.1,0.0,0.0,0.0,0.1
1446040999452263108,4655,1446040999449073076,robocape,-24.6732078331,23.90471567,-24.9728895697,0.0,10.0,0.0,0.0,0.0,10.0,0.0,0.0,0.0,10.0,-0.00745685105222,0.0255663464648,0.0314253008629,1.0,0.0,0.0,0.0,1.0,0.0,0.0,0.0,1.0,-1.33881591797,-3.85238891602,8.90468261719,0.1,0.0,0.0,0.0,0.1,0.0,0.0,0.0,0.1
1446040999487848316,4656,1446040999484288930,robocape,-24.633962206,23.9517599064,-24.7489623829,0.0,10.0,0.0,0.0,0.0,10.0,0.0,0.0,0.0,10.0,-0.0585895439817,0.0253000303558,0.0759000910673,1.0,0.0,0.0,0.0,1.0,0.0,0.0,0.0,1.0,-1.99984130859,-3.59612182617,9.06155639648,0.1,0.0,0.0,0.0,0.1,0.0,0.0,0.0,0.1
1446040999522239149,4657,1446040999518846035,robocape,-24.5053269963,23.921094755,-24.698248534,0.0,10.0,0.0,0.0,0.0,10.0,0.0,0.0,0.0,10.0,0.0251668723012,0.0230363434292,-0.016378440704,1.0,0.0,0.0,0.0,1.0,0.0,0.0,0.0,1.0,-2.3375390625,-3.66677490234,8.93462036133,0.1,0.0,0.0,0.0,0.1,0.0,0.0,0.0,0.1
1446040999557827816,4658,1446040999552537918,robocape,-24.2052440735,23.7841042592,-24.9091823244,0.0,10.0,0.0,0.0,0.0,10.0,0.0,0.0,0.0,10.0,0.171241258092,0.0235689756472,-0.153531236843,1.0,0.0,0.0,0.0,1.0,0.0,0.0,0.0,1.0,-2.4177722168,-3.68114501953,8.94659545898,0.1,0.0,0.0,0.0,0.1,0.0,0.0,0.0,0.1
1446040999588795233,4659,1446040999585407972,robocape,-23.7176251043,23.5767545977,-25.3241893615,0.0,10.0,0.0,0.0,0.0,10.0,0.0,0.0,0.0,10.0,0.313587218357,0.0276968753368,-0.258060309629,1.0,0.0,0.0,0.0,1.0,0.0,0.0,0.0,1.0,-2.39980957031,-3.56259155273,9.01485351563,0.1,0.0,0.0,0.0,0.1,0.0,0.0,0.0,0.1
1446040999622192066,4660,1446040999619057893,robocape,-23.2715590776,23.3496608887,-25.7867364006,0.0,10.0,0.0,0.0,0.0,10.0,0.0,0.0,0.0,10.0,0.300537729015,0.0272974011733,-0.285757184966,1.0,0.0,0.0,0.0,1.0,0.0,0.0,0.0,1.0,-1.87290527344,-3.14106811523,9.08311157227,0.1,0.0,0.0,0.0,0.1,0.0,0.0,0.0,0.1
1446040999659876524,4661,1446040999655194997,robocape,-23.071543934,23.2997270831,-25.8930254097,0.0,10.0,0.0,0.0,0.0,10.0,0.0,0.0,0.0,10.0,0.0970722217334,0.0442084740953,-0.0928111639893,1.0,0.0,0.0,0.0,1.0,0.0,0.0,0.0,1.0,-0.749641113281,-3.07640258789,8.94060791016,0.1,0.0,0.0,0.0,0.1,0.0,0.0,0.0,0.1
1446040999689624524,4662,1446040999686197996,robocape,-22.9411563061,23.4080631338,-25.7687136563,0.0,10.0,0.0,0.0,0.0,10.0,0.0,0.0,0.0,10.0,0.0134489635049,0.0760332491218,0.0424774193868,1.0,0.0,0.0,0.0,1.0,0.0,0.0,0.0,1.0,-0.688568115234,-3.82005615234,8.91665771484,0.1,0.0,0.0,0.0,0.1,0.0,0.0,0.0,0.1
1446040999723793775,4663,1446040999720469951,robocape,-22.87302813,23.4859472308,-25.5203684221,0.0,10.0,0.0,0.0,0.0,10.0,0.0,0.0,0.0,10.0,-0.0435426838228,0.0358195166616,0.0932106381528,1.0,0.0,0.0,0.0,1.0,0.0,0.0,0.0,1.0,-1.64058837891,-3.19735107422,9.30584838867,0.1,0.0,0.0,0.0,0.1,0.0,0.0,0.0,0.1
1446040999760847275,4664,1446040999757100105,robocape,-22.8515031747,23.5599141672,-25.3082843944,0.0,10.0,0.0,0.0,0.0,10.0,0.0,0.0,0.0,10.0,-0.0615190211808,0.0424774193868,0.0755006169037,1.0,0.0,0.0,0.0,1.0,0.0,0.0,0.0,1.0,-2.3411315918,-2.7207421875,8.84241210938,0.1,0.0,0.0,0.0,0.1,0.0,0.0,0.0,0.1
1446040999797535275,4665,1446040999794425964,robocape,-22.7697179725,23.5944676661,-25.2013136322,0.0,10.0,0.0,0.0,0.0,10.0,0.0,0.0,0.0,10.0,-0.00812264132474,0.0435426838228,0.0209058145571,1.0,0.0,0.0,0.0,1.0,0.0,0.0,0.0,1.0,-2.19383789063,-3.59492431641,8.8519921875,0.1,0.0,0.0,0.0,0.1,0.0,0.0,0.0,0.1
1446040999833766108,4666,1446040999830379009,robocape,-22.4853080846,23.5997483167,-25.3139756496,0.0,10.0,0.0,0.0,0.0,10.0,0.0,0.0,0.0,10.0,0.144343331082,0.0705737688871,-0.082691151847,1.0,0.0,0.0,0.0,1.0,0.0,0.0,0.0,1.0,-2.5638684082,-3.25483154297,9.73096435547,0.1,0.0,0.0,0.0,0.1,0.0,0.0,0.0,0.1
1446040999865070941,4667,1446040999861881017,robocape,-21.9398033174,23.6559465926,-25.359173149,0.0,10.0,0.0,0.0,0.0,10.0,0.0,0.0,0.0,10.0,0.27110979897,0.0769653555033,-0.0388821519152,1.0,0.0,0.0,0.0,1.0,0.0,0.0,0.0,1.0,-2.79977783203,-4.64394287109,9.35853881836,0.1,0.0,0.0,0.0,0.1,0.0,0.0,0.0,0.1
1446040999900497400,4668,1446040999897386074,robocape,-21.1240607075,23.7320619879,-25.5354714189,0.0,10.0,0.0,0.0,0.0,10.0,0.0,0.0,0.0,10.0,0.442351057062,0.108124340257,-0.0932106381528,1.0,0.0,0.0,0.0,1.0,0.0,0.0,0.0,1.0,-2.43812988281,-4.2954675293,9.79203735352,0.1,0.0,0.0,0.0,0.1,0.0,0.0,0.0,0.1
1446040999934435316,4669,1446040999931169986,robocape,-19.9871274678,23.8892890956,-25.3267255562,0.0,10.0,0.0,0.0,0.0,10.0,0.0,0.0,0.0,10.0,0.537292749923,0.0691090302876,0.102664860023,1.0,0.0,0.0,0.0,1.0,0.0,0.0,0.0,1.0,-1.87649780273,-4.81039672852,10.2566711426,0.1,0.0,0.0,0.0,0.1,0.0,0.0,0.0,0.1
1446040999972403858,4670,1446040999968746900,robocape,-18.0247263865,24.0739054822,-24.5873113302,0.0,10.0,0.0,0.0,0.0,10.0,0.0,0.0,0.0,10.0,0.869255779802,-0.0217047628841,0.364453595177,1.0,0.0,0.0,0.0,1.0,0.0,0.0,0.0,1.0,-2.04055664063,-6.94555664063,9.45314208984,0.1,0.0,0.0,0.0,0.1,0.0,0.0,0.0,0.1
1446041000006635316,4671,1446041000003097057,robocape,-14.0430449847,24.5200817468,-23.7785001446,0.0,10.0,0.0,0.0,0.0,10.0,0.0,0.0,0.0,10.0,1.91720966875,0.0992027506055,0.449008959787,1.0,0.0,0.0,0.0,1.0,0.0,0.0,0.0,1.0,-0.781973876953,-7.71795043945,10.9524243164,0.1,0.0,0.0,0.0,0.1,0.0,0.0,0.0,0.1
1446041000041734191,4672,1446041000038604021,robocape,-8.00632325759,25.5786501312,-23.1543471919,0.0,10.0,0.0,0.0,0.0,10.0,0.0,0.0,0.0,10.0,3.02521784028,0.486026898939,0.39854205713,1.0,0.0,0.0,0.0,1.0,0.0,0.0,0.0,1.0,-0.833466796875,-5.37322631836,11.358380127,0.1,0.0,0.0,0.0,0.1,0.0,0.0,0.0,0.1
1446041000076928441,4673,1446041000073215007,robocape,-1.14482677425,27.2627032247,-22.3647031031,0.0,10.0,0.0,0.0,0.0,10.0,0.0,0.0,0.0,10.0,3.41963199772,0.906273718954,0.400805744057,1.0,0.0,0.0,0.0,1.0,0.0,0.0,0.0,1.0,-1.90523803711,-1.87290527344,11.7643359375,0.1,0.0,0.0,0.0,0.1,0.0,0.0,0.0,0.1
1446041000110949275,4674,1446041000107117891,robocape,6.17257108371,29.4691404727,-21.2574368805,0.0,10.0,0.0,0.0,0.0,10.0,0.0,0.0,0.0,10.0,3.61031433177,1.31520210434,0.362988856578,1.0,0.0,0.0,0.0,1.0,0.0,0.0,0.0,1.0,-2.4525,1.84775756836,11.128458252,0.1,0.0,0.0,0.0,0.1,0.0,0.0,0.0,0.1
1446041000149142441,4675,1446041000145097970,robocape,12.4812821581,31.9964300307,-20.4335807758,0.0,10.0,0.0,0.0,0.0,10.0,0.0,0.0,0.0,10.0,3.21576701627,1.60029349903,-0.016378440704,1.0,0.0,0.0,0.0,1.0,0.0,0.0,0.0,1.0,-4.04039794922,12.5175695801,9.09867919922,0.1,0.0,0.0,0.0,0.1,0.0,0.0,0.0,0.1
1446041000184450608,4676,1446041000181175947,robocape,14.1054493256,34.4217401925,-20.8683555697,0.0,10.0,0.0,0.0,0.0,10.0,0.0,0.0,0.0,10.0,1.11945976421,1.42585644763,-0.656202892596,1.0,0.0,0.0,0.0,1.0,0.0,0.0,0.0,1.0,-5.00559082031,6.72760986328,9.57409057617,0.1,0.0,0.0,0.0,0.1,0.0,0.0,0.0,0.1
1446041000219208275,4677,1446041000215864896,robocape,13.7920663261,36.6900779474,-21.6909028721,0.0,10.0,0.0,0.0,0.0,10.0,0.0,0.0,0.0,10.0,0.21731394495,1.28723891289,-0.793755162898,1.0,0.0,0.0,0.0,1.0,0.0,0.0,0.0,1.0,-5.60195068359,3.49792602539,10.8650061035,0.1,0.0,0.0,0.0,0.1,0.0,0.0,0.0,0.1
1446041000253977358,4678,1446041000250499963,robocape,13.7688748041,38.4756578011,-22.0174392662,0.0,10.0,0.0,0.0,0.0,10.0,0.0,0.0,0.0,10.0,0.211321832498,1.08270814117,-0.506533239333,1.0,0.0,0.0,0.0,1.0,0.0,0.0,0.0,1.0,-6.37434448242,-0.655037841797,12.4014111328,0.1,0.0,0.0,0.0,0.1,0.0,0.0,0.0,0.1
1446041000299079525,4679,1446041000295587062,robocape,14.4705751489,38.9633209074,-22.0799970632,0.0,10.0,0.0,0.0,0.0,10.0,0.0,0.0,0.0,10.0,0.476040044852,0.390286257751,-0.194677075685,1.0,0.0,0.0,0.0,1.0,0.0,0.0,0.0,1.0,-9.56810302734,1.33522338867,12.5187670898,0.1,0.0,0.0,0.0,0.1,0.0,0.0,0.0,0.1
1446041000336358983,4680,1446041000333007097,robocape,14.8248560077,38.3670769551,-22.0618769212,0.0,10.0,0.0,0.0,0.0,10.0,0.0,0.0,0.0,10.0,0.218512367441,-0.236755020908,0.0394147841332,1.0,0.0,0.0,0.0,1.0,0.0,0.0,0.0,1.0,-8.45681396484,2.00463134766,11.9104321289,0.1,0.0,0.0,0.0,0.1,0.0,0.0,0.0,0.1
1446041000373862650,4681,1446041000367729902,robocape,15.048567886,36.8284553992,-22.3267683114,0.0,10.0,0.0,0.0,0.0,10.0,0.0,0.0,0.0,10.0,0.207726565026,-0.797616746479,0.0944090606433,1.0,0.0,0.0,0.0,1.0,0.0,0.0,0.0,1.0,-7.28924194336,3.04406982422,11.2997021484,0.1,0.0,0.0,0.0,0.1,0.0,0.0,0.0,0.1
1446041000402457733,4682,1446041000399383068,robocape,14.7182536691,34.8738444483,-23.2232509175,0.0,10.0,0.0,0.0,0.0,10.0,0.0,0.0,0.0,10.0,0.0974716958969,-1.09349394359,-0.09933590866,1.0,0.0,0.0,0.0,1.0,0.0,0.0,0.0,1.0,-5.90851318359,3.46439575195,11.3188623047,0.1,0.0,0.0,0.0,0.1,0.0,0.0,0.0,0.1
1446041000432193233,4683,1446041000428723096,robocape,13.820386288,32.7402238749,-24.5430249052,0.0,10.0,0.0,0.0,0.0,10.0,0.0,0.0,0.0,10.0,-0.0940095864798,-1.23610621996,-0.270177692589,1.0,0.0,0.0,0.0,1.0,0.0,0.0,0.0,1.0,-4.91937011719,3.73144042969,11.1571984863,0.1,0.0,0.0,0.0,0.1,0.0,0.0,0.0,0.1
1446041000467433567,4684,1446041000464268922,robocape,12.268054543,30.8134348222,-26.2674494883,0.0,10.0,0.0,0.0,0.0,10.0,0.0,0.0,0.0,10.0,-0.336090929568,-1.1546134906,-0.521846415601,1.0,0.0,0.0,0.0,1.0,0.0,0.0,0.0,1.0,-3.89190673828,3.17100585938,11.2230615234,0.1,0.0,0.0,0.0,0.1,0.0,0.0,0.0,0.1
1446041000503107150,4685,1446041000499867916,robocape,10.0252023924,29.0696029488,-28.2919584689,0.0,10.0,0.0,0.0,0.0,10.0,0.0,0.0,0.0,10.0,-0.637161290801,-1.06193548467,-0.738627728333,1.0,0.0,0.0,0.0,1.0,0.0,0.0,0.0,1.0,-3.18777099609,2.57464599609,10.745255127,0.1,0.0,0.0,0.0,0.1,0.0,0.0,0.0,0.1
1446041000537369442,4686,1446041000534020900,robocape,7.48835088953,27.4682001959,-30.25058803,0.0,10.0,0.0,0.0,0.0,10.0,0.0,0.0,0.0,10.0,-0.830639943996,-0.947419557796,-0.789893579318,1.0,0.0,0.0,0.0,1.0,0.0,0.0,0.0,1.0,-2.529140625,1.2226574707,10.8350683594,0.1,0.0,0.0,0.0,0.1,0.0,0.0,0.0,0.1
1446041000572639067,4687,1446041000569519996,robocape,5.10387514644,26.4771240871,-31.7183858032,0.0,10.0,0.0,0.0,0.0,10.0,0.0,0.0,0.0,10.0,-0.881772636925,-0.557133300045,-0.670317646373,1.0,0.0,0.0,0.0,1.0,0.0,0.0,0.0,1.0,-1.08135131836,1.28732299805,9.97046630859,0.1,0.0,0.0,0.0,0.1,0.0,0.0,0.0,0.1
1446041000607460442,4688,1446041000604315042,robocape,3.07853399429,26.1503460579,-32.2345877111,0.0,10.0,0.0,0.0,0.0,10.0,0.0,0.0,0.0,10.0,-0.926513743239,-0.155395449606,-0.27377296006,1.0,0.0,0.0,0.0,1.0,0.0,0.0,0.0,1.0,-1.34839599609,-0.678988037109,8.59213256836,0.1,0.0,0.0,0.0,0.1,0.0,0.0,0.0,0.1
1446041000641613858,4689,1446041000638442993,robocape,2.51598953652,26.8579660879,-30.8912233228,0.0,10.0,0.0,0.0,0.0,10.0,0.0,0.0,0.0,10.0,-0.602007564412,0.41864892336,0.588691758962,1.0,0.0,0.0,0.0,1.0,0.0,0.0,0.0,1.0,-0.595162353516,-0.761616210938,8.55979980469,0.1,0.0,0.0,0.0,0.1,0.0,0.0,0.0,0.1
1446041000676674775,4690,1446041000672405004,robocape,2.9237258978,28.334456307,-28.7737028669,0.0,10.0,0.0,0.0,0.0,10.0,0.0,0.0,0.0,10.0,-0.290417716873,0.847950491081,0.913597411952,1.0,0.0,0.0,0.0,1.0,0.0,0.0,0.0,1.0,-1.60705810547,0.110170898438,8.89510253906,0.1,0.0,0.0,0.0,0.1,0.0,0.0,0.0,0.1
1446041000712836150,4691,1446041000709582090,robocape,3.16089448538,29.8882466048,-27.3648236724,0.0,10.0,0.0,0.0,0.0,10.0,0.0,0.0,0.0,10.0,-0.21345236137,0.910801092807,0.538091698251,1.0,0.0,0.0,0.0,1.0,0.0,0.0,0.0,1.0,-2.04055664063,1.22864501953,8.32389038086,0.1,0.0,0.0,0.0,0.1,0.0,0.0,0.0,0.1
1446041000748465567,4692,1446041000745343923,robocape,2.91038437967,31.0462484438,-26.9754634929,0.0,10.0,0.0,0.0,0.0,10.0,0.0,0.0,0.0,10.0,-0.205995510318,0.70187610529,0.0633832339439,1.0,0.0,0.0,0.0,1.0,0.0,0.0,0.0,1.0,-2.57464599609,0.323327636719,9.43877197266,0.1,0.0,0.0,0.0,0.1,0.0,0.0,0.0,0.1
1446041000783331775,4693,1446041000780147075,robocape,2.66731850565,31.7587199298,-27.404563805,0.0,10.0,0.0,0.0,0.0,10.0,0.0,0.0,0.0,10.0,0.0241016078652,0.466985297145,-0.303200890106,1.0,0.0,0.0,0.0,1.0,0.0,0.0,0.0,1.0,-2.29083618164,0.494571533203,8.67356323242,0.1,0.0,0.0,0.0,0.1,0.0,0.0,0.0,0.1
1446041000818823150,4694,1446041000815493106,robocape,1.97904689333,32.3082347687,-28.5714755518,0.0,10.0,0.0,0.0,0.0,10.0,0.0,0.0,0.0,10.0,0.00359526747161,0.389220993315,-0.6415555066,1.0,0.0,0.0,0.0,1.0,0.0,0.0,0.0,1.0,-1.45377685547,-0.47900390625,9.22561523438,0.1,0.0,0.0,0.0,0.1,0.0,0.0,0.0,0.1
1446041000855538400,4695,1446041000852281093,robocape,1.95266919988,32.7579153608,-29.627072845,0.0,10.0,0.0,0.0,0.0,10.0,0.0,0.0,0.0,10.0,0.326370391589,0.3488741028,-0.593751765033,1.0,0.0,0.0,0.0,1.0,0.0,0.0,0.0,1.0,-1.58071289063,-1.34360595703,9.13699951172,0.1,0.0,0.0,0.0,0.1,0.0,0.0,0.0,0.1
1446041000891503858,4696,1446041000887794971,robocape,2.55269552655,33.2755333307,-30.0208413821,0.0,10.0,0.0,0.0,0.0,10.0,0.0,0.0,0.0,10.0,0.46831687769,0.384560461407,-0.295211406835,1.0,0.0,0.0,0.0,1.0,0.0,0.0,0.0,1.0,-1.86931274414,-0.664617919922,8.82684448242,0.1,0.0,0.0,0.0,0.1,0.0,0.0,0.0,0.1
1446041000926063983,4697,1446041000922676086,robocape,3.88872579769,33.8390494677,-29.9100414696,0.0,10.0,0.0,0.0,0.0,10.0,0.0,0.0,0.0,10.0,0.712528749651,0.415453130052,-0.0770985135578,1.0,0.0,0.0,0.0,1.0,0.0,0.0,0.0,1.0,-2.18904785156,-0.968785400391,8.43525878906,0.1,0.0,0.0,0.0,0.1,0.0,0.0,0.0,0.1
1446041000957684733,4698,1446041000954155921,robocape,5.33955805506,34.3810267976,-29.5410657632,0.0,10.0,0.0,0.0,0.0,10.0,0.0,0.0,0.0,10.0,0.6992129442,0.409727333709,0.0320910911355,1.0,0.0,0.0,0.0,1.0,0.0,0.0,0.0,1.0,-2.85007324219,1.33402587891,7.41498046875,0.1,0.0,0.0,0.0,0.1,0.0,0.0,0.0,0.1
1446041000993161358,4699,1446041000989739894,robocape,6.52507965046,34.6667730657,-29.2770157662,0.0,10.0,0.0,0.0,0.0,10.0,0.0,0.0,0.0,10.0,0.590422813671,0.265517160681,0.00106526443603,1.0,0.0,0.0,0.0,1.0,0.0,0.0,0.0,1.0,-4.98283813477,1.60346557617,6.64737670898,0.1,0.0,0.0,0.0,0.1,0.0,0.0,0.0,0.1
1446041001026898358,4700,1446041001023766040,robocape,7.05078828082,34.2221461597,-29.0005923905,0.0,10.0,0.0,0.0,0.0,10.0,0.0,0.0,0.0,10.0,0.219311315768,-0.163384932876,0.0954743250793,1.0,0.0,0.0,0.0,1.0,0.0,0.0,0.0,1.0,-5.8977355957,3.04406982422,6.21387817383,0.1,0.0,0.0,0.0,0.1,0.0,0.0,0.0,0.1
1446041001056822525,4701,1446041001053267002,robocape,6.61207955903,33.5078759305,-28.0641533487,0.0,10.0,0.0,0.0,0.0,10.0,0.0,0.0,0.0,10.0,-0.50733218766,-0.332362504042,0.45766423333,1.0,0.0,0.0,0.0,1.0,0.0,0.0,0.0,1.0,-3.90627685547,3.89909179688,6.17795288086,0.1,0.0,0.0,0.0,0.1,0.0,0.0,0.0,0.1
1446041001093621025,4702,1446041001089832067,robocape,5.25637750946,33.0964203267,-26.4703811791,0.0,10.0,0.0,0.0,0.0,10.0,0.0,0.0,0.0,10.0,-1.1841745787,-0.182160218561,0.752076691838,1.0,0.0,0.0,0.0,1.0,0.0,0.0,0.0,1.0,-2.62613891602,0.658630371094,7.77303588867,0.1,0.0,0.0,0.0,0.1,0.0,0.0,0.0,0.1
1446041001129507025,4703,1446041001125905990,robocape,3.86335001236,32.8912660886,-24.4886152848,0.0,10.0,0.0,0.0,0.0,10.0,0.0,0.0,0.0,10.0,-1.3082778855,-0.0790958843754,0.910135302535,1.0,0.0,0.0,0.0,1.0,0.0,0.0,0.0,1.0,-4.77566894531,1.20828735352,7.1311706543,0.1,0.0,0.0,0.0,0.1,0.0,0.0,0.0,0.1
1446041001169699859,4704,1446041001165695905,robocape,1.21010900225,32.1074097774,-22.758552332,0.0,10.0,0.0,0.0,0.0,10.0,0.0,0.0,0.0,10.0,-1.89297490283,-0.445680008425,0.834501527576,1.0,0.0,0.0,0.0,1.0,0.0,0.0,0.0,1.0,-6.57073608398,1.74596923828,6.51565063477,0.1,0.0,0.0,0.0,0.1,0.0,0.0,0.0,0.1
1446041001203709192,4705,1446041001200253963,robocape,-1.81664789176,31.0229320655,-21.0726906983,0.0,10.0,0.0,0.0,0.0,10.0,0.0,0.0,0.0,10.0,-2.05622667765,-0.640490242164,0.797084114261,1.0,0.0,0.0,0.0,1.0,0.0,0.0,0.0,1.0,-3.92543701172,-2.02139648438,7.27487182617,0.1,0.0,0.0,0.0,0.1,0.0,0.0,0.0,0.1
1446041001238263234,4706,1446041001234726905,robocape,-4.0192240293,30.3280661402,-19.0576687037,0.0,10.0,0.0,0.0,0.0,10.0,0.0,0.0,0.0,10.0,-1.69310466302,-0.448609485624,0.911866357243,1.0,0.0,0.0,0.0,1.0,0.0,0.0,0.0,1.0,-3.81287109375,-2.43812988281,8.17300415039,0.1,0.0,0.0,0.0,0.1,0.0,0.0,0.0,0.1
1446041001280179650,4707,1446041001276865959,robocape,-5.62696668804,29.9335750546,-16.3944023665,0.0,10.0,0.0,0.0,0.0,10.0,0.0,0.0,0.0,10.0,-1.54063869061,-0.335824613459,1.19948775497,1.0,0.0,0.0,0.0,1.0,0.0,0.0,0.0,1.0,-4.50143920898,-3.88951171875,9.41242675781,0.1,0.0,0.0,0.0,0.1,0.0,0.0,0.0,0.1
1446041001316540650,4708,1446041001313396930,robocape,-5.94004126461,29.5679167017,-13.1514072262,0.0,10.0,0.0,0.0,0.0,10.0,0.0,0.0,0.0,10.0,-1.00414488901,-0.36511938545,1.45821385487,1.0,0.0,0.0,0.0,1.0,0.0,0.0,0.0,1.0,-5.33251098633,-4.34696044922,9.02203857422,0.1,0.0,0.0,0.0,0.1,0.0,0.0,0.0,0.1
1446041001350475817,4709,1446041001346962928,robocape,-5.84453078226,28.8335646998,-9.85103150054,0.0,10.0,0.0,0.0,0.0,10.0,0.0,0.0,0.0,10.0,-0.789494105154,-0.566054889696,1.46993176367,1.0,0.0,0.0,0.0,1.0,0.0,0.0,0.0,1.0,-5.35526367187,-2.51237548828,9.01844604492,0.1,0.0,0.0,0.0,0.1,0.0,0.0,0.0,0.1
1446041001385973859,4710,1446041001381382942,robocape,-5.90201808436,28.08119461,-6.55742660021,0.0,10.0,0.0,0.0,0.0,10.0,0.0,0.0,0.0,10.0,-0.849148913572,-0.564323834988,1.47166281838,1.0,0.0,0.0,0.0,1.0,0.0,0.0,0.0,1.0,-4.42479858398,-2.46447509766,9.38727905273,0.1,0.0,0.0,0.0,0.1,0.0,0.0,0.0,0.1
1446041001419858275,4711,1446041001416651964,robocape,-6.21429384669,27.4008971447,-3.25902120644,0.0,10.0,0.0,0.0,0.0,10.0,0.0,0.0,0.0,10.0,-0.967126949862,-0.518117990075,1.48311441107,1.0,0.0,0.0,0.0,1.0,0.0,0.0,0.0,1.0,-4.84392700195,-2.47645019531,9.15615966797,0.1,0.0,0.0,0.0,0.1,0.0,0.0,0.0,0.1
1446041001454707692,4712,1446041001451400041,robocape,-6.9972218698,26.4762807853,-0.175910439456,0.0,10.0,0.0,0.0,0.0,10.0,0.0,0.0,0.0,10.0,-1.14289558181,-0.641954980764,1.37459059664,1.0,0.0,0.0,0.0,1.0,0.0,0.0,0.0,1.0,-5.32053588867,-2.11360473633,8.51429443359,0.1,0.0,0.0,0.0,0.1,0.0,0.0,0.0,0.1
1446041001490930692,4713,1446041001487767934,robocape,-8.07717926282,25.4541836244,2.46434488016,0.0,10.0,0.0,0.0,0.0,10.0,0.0,0.0,0.0,10.0,-1.17618509543,-0.679239236025,1.16446718664,1.0,0.0,0.0,0.0,1.0,0.0,0.0,0.0,1.0,-4.41521850586,-4.69304077148,8.03888305664,0.1,0.0,0.0,0.0,0.1,0.0,0.0,0.0,0.1
1446041001525288025,4714,1446041001521955013,robocape,-8.38337920958,24.4393679386,5.05036147935,0.0,10.0,0.0,0.0,0.0,10.0,0.0,0.0,0.0,10.0,-0.738627728333,-0.684565558205,1.14382768819,1.0,0.0,0.0,0.0,1.0,0.0,0.0,0.0,1.0,-3.67875,-5.518125,8.37658081055,0.1,0.0,0.0,0.0,0.1,0.0,0.0,0.0,0.1
1446041001559436067,4715,1446041001556205987,robocape,-7.97396767849,23.4026018548,8.03651520861,0.0,10.0,0.0,0.0,0.0,10.0,0.0,0.0,0.0,10.0,-0.428369461339,-0.721450339302,1.34569529882,1.0,0.0,0.0,0.0,1.0,0.0,0.0,0.0,1.0,-3.77335327148,-3.27399169922,8.28796508789,0.1,0.0,0.0,0.0,0.1,0.0,0.0,0.0,0.1
1446041001596742442,4716,1446041001593015909,robocape,-8.02889344588,22.4252954783,11.5979054784,0.0,10.0,0.0,0.0,0.0,10.0,0.0,0.0,0.0,10.0,-0.773381980559,-0.709998746615,1.65142619196,1.0,0.0,0.0,0.0,1.0,0.0,0.0,0.0,1.0,-3.50750610352,-2.72553222656,8.55021972656,0.1,0.0,0.0,0.0,0.1,0.0,0.0,0.0,0.1
1446041001632678150,4717,1446041001628907918,robocape,-8.12189493724,21.6924438609,15.656493025,0.0,10.0,0.0,0.0,0.0,10.0,0.0,0.0,0.0,10.0,-0.879775266108,-0.600409667758,1.94290917327,1.0,0.0,0.0,0.0,1.0,0.0,0.0,0.0,1.0,-2.98179931641,-5.6330859375,9.33937866211,0.1,0.0,0.0,0.0,0.1,0.0,0.0,0.0,0.1
1446041001667255400,4718,1446041001664145946,robocape,-7.15683480871,21.4040019849,20.1978267596,0.0,10.0,0.0,0.0,0.0,10.0,0.0,0.0,0.0,10.0,-0.413455759235,-0.367915704594,2.25436586275,1.0,0.0,0.0,0.0,1.0,0.0,0.0,0.0,1.0,-1.71243896484,-4.31702270508,9.30584838867,0.1,0.0,0.0,0.0,0.1,0.0,0.0,0.0,0.1
1446041001701479984,4719,1446041001698214054,robocape,-5.0919382349,21.6740131513,25.2711830387,0.0,10.0,0.0,0.0,0.0,10.0,0.0,0.0,0.0,10.0,0.0483363737849,-0.0170442309765,2.61269418742,1.0,0.0,0.0,0.0,1.0,0.0,0.0,0.0,1.0,-1.97708862305,-4.22122192383,9.4998449707,0.1,0.0,0.0,0.0,0.1,0.0,0.0,0.0,0.1
1446041001736728817,4720,1446041001733270883,robocape,-2.40784559434,22.0918390874,30.9526646488,0.0,10.0,0.0,0.0,0.0,10.0,0.0,0.0,0.0,10.0,0.228765537638,0.185755486033,2.99752096494,1.0,0.0,0.0,0.0,1.0,0.0,0.0,0.0,1.0,-2.2956262207,-1.70525390625,8.12630126953,0.1,0.0,0.0,0.0,0.1,0.0,0.0,0.0,0.1
1446041001771303817,4721,1446041001768127918,robocape,-0.272078577253,22.1196858664,36.4200475043,0.0,10.0,0.0,0.0,0.0,10.0,0.0,0.0,0.0,10.0,-0.0302268783724,0.131293841741,2.96170144828,1.0,0.0,0.0,0.0,1.0,0.0,0.0,0.0,1.0,-2.61296630859,0.629890136719,10.765612793,0.1,0.0,0.0,0.0,0.1,0.0,0.0,0.0,0.1
1446041001807111359,4722,1446041001804012060,robocape,0.675565440588,21.8301418434,40.8596743,0.0,10.0,0.0,0.0,0.0,10.0,0.0,0.0,0.0,10.0,-0.443150005389,0.0382163616426,2.50337142467,1.0,0.0,0.0,0.0,1.0,0.0,0.0,0.0,1.0,-3.87993164063,-0.274229736328,10.1069824219,0.1,0.0,0.0,0.0,0.1,0.0,0.0,0.0,0.1
1446041001840699359,4723,1446041001837460041,robocape,0.944311353511,21.0280333177,44.0513618287,0.0,10.0,0.0,0.0,0.0,10.0,0.0,0.0,0.0,10.0,-0.528637476381,-0.248206613595,1.87766172656,1.0,0.0,0.0,0.0,1.0,0.0,0.0,0.0,1.0,-4.24756713867,-1.0346484375,10.3021765137,0.1,0.0,0.0,0.0,0.1,0.0,0.0,0.0,0.1
1446041001871876151,4724,1446041001868449926,robocape,0.762659876363,19.8145368506,46.7917819668,0.0,10.0,0.0,0.0,0.0,10.0,0.0,0.0,0.0,10.0,-0.653406573451,-0.481499525086,1.67313095484,1.0,0.0,0.0,0.0,1.0,0.0,0.0,0.0,1.0,-3.74940307617,-2.11360473633,10.1153649902,0.1,0.0,0.0,0.0,0.1,0.0,0.0,0.0,0.1
1446041001909502859,4725,1446041001906281948,robocape,1.10698607117,18.215806244,49.3550390076,0.0,10.0,0.0,0.0,0.0,10.0,0.0,0.0,0.0,10.0,-0.309991950885,-0.697881363655,1.60988087895,1.0,0.0,0.0,0.0,1.0,0.0,0.0,0.0,1.0,-3.43326049805,-3.02131713867,9.3537487793,0.1,0.0,0.0,0.0,0.1,0.0,0.0,0.0,0.1
1446041001944679984,4726,1446041001941402912,robocape,1.9951042959,16.6442830683,51.6400372365,0.0,10.0,0.0,0.0,0.0,10.0,0.0,0.0,0.0,10.0,0.0625842856169,-0.684565558205,1.50095759037,1.0,0.0,0.0,0.0,1.0,0.0,0.0,0.0,1.0,-3.04646484375,-1.302890625,9.12741943359,0.1,0.0,0.0,0.0,0.1,0.0,0.0,0.0,0.1
1446041001981451026,4727,1446041001978338956,robocape,2.64325850813,15.0556564694,53.7597159727,0.0,10.0,0.0,0.0,0.0,10.0,0.0,0.0,0.0,10.0,-0.00239684498107,-0.68443240015,1.46607018009,1.0,0.0,0.0,0.0,1.0,0.0,0.0,0.0,1.0,-3.2919543457,0.474213867188,8.9633605957,0.1,0.0,0.0,0.0,0.1,0.0,0.0,0.0,0.1
1446041002016718317,4728,1446041002013672113,robocape,3.16821130897,13.5441101984,56.2379819084,0.0,10.0,0.0,0.0,0.0,10.0,0.0,0.0,0.0,10.0,-0.085620629046,-0.609064941301,1.76554264467,1.0,0.0,0.0,0.0,1.0,0.0,0.0,0.0,1.0,-2.91952880859,-1.34001342773,9.48906738281,0.1,0.0,0.0,0.0,0.1,0.0,0.0,0.0,0.1
1446041002051874734,4729,1446041002048454046,robocape,3.72692385543,12.4218581855,58.9748342906,0.0,10.0,0.0,0.0,0.0,10.0,0.0,0.0,0.0,10.0,-0.067910607797,-0.370046233467,2.01721136768,1.0,0.0,0.0,0.0,1.0,0.0,0.0,0.0,1.0,-2.95186157227,-0.173638916016,9.35255126953,0.1,0.0,0.0,0.0,0.1,0.0,0.0,0.0,0.1
1446041002086906234,4730,1446041002083595037,robocape,3.58815253573,11.623983837,61.5899416962,0.0,10.0,0.0,0.0,0.0,10.0,0.0,0.0,0.0,10.0,-0.39734363464,-0.194410759576,2.02200505764,1.0,0.0,0.0,0.0,1.0,0.0,0.0,0.0,1.0,-2.88240600586,0.229921875,9.56451049805,0.1,0.0,0.0,0.0,0.1,0.0,0.0,0.0,0.1
1446041002121070234,4731,1446041002117944002,robocape,3.2145031771,11.5133037413,64.1843854182,0.0,10.0,0.0,0.0,0.0,10.0,0.0,0.0,0.0,10.0,-0.513723774276,0.169377045329,2.08698618824,1.0,0.0,0.0,0.0,1.0,0.0,0.0,0.0,1.0,-2.89797363281,-0.587977294922,9.8830480957,0.1,0.0,0.0,0.0,0.1,0.0,0.0,0.0,0.1
1446041002158052317,4732,1446041002154491901,robocape,2.4607715962,11.7477329914,66.6236023574,0.0,10.0,0.0,0.0,0.0,10.0,0.0,0.0,0.0,10.0,-0.710797694942,0.339153564822,2.06448247703,1.0,0.0,0.0,0.0,1.0,0.0,0.0,0.0,1.0,-3.86556152344,-0.208366699219,9.84951782227,0.1,0.0,0.0,0.0,0.1,0.0,0.0,0.0,0.1
1446041002196486359,4733,1446041002193253040,robocape,1.27651309966,11.9560389349,68.9977406336,0.0,10.0,0.0,0.0,0.0,10.0,0.0,0.0,0.0,10.0,-0.956607463556,0.308260896177,2.11441674747,1.0,0.0,0.0,0.0,1.0,0.0,0.0,0.0,1.0,-4.61640014648,-0.382005615234,9.8519128418,0.1,0.0,0.0,0.0,0.1,0.0,0.0,0.0,0.1
1446041002232211901,4734,1446041002229024887,robocape,-0.0268630635792,12.0326887266,71.168550629,0.0,10.0,0.0,0.0,0.0,10.0,0.0,0.0,0.0,10.0,-1.02078964583,0.2039981395,2.05569404543,1.0,0.0,0.0,0.0,1.0,0.0,0.0,0.0,1.0,-4.99720825195,-2.30879882813,9.33698364258,0.1,0.0,0.0,0.0,0.1,0.0,0.0,0.0,0.1
1446041002275706859,4735,1446041002272196054,robocape,-1.13789897663,11.5104480593,73.0574627399,0.0,10.0,0.0,0.0,0.0,10.0,0.0,0.0,0.0,10.0,-0.895754232648,-0.156194397933,1.89084437396,1.0,0.0,0.0,0.0,1.0,0.0,0.0,0.0,1.0,-4.92775268555,-1.48131958008,8.67476074219,0.1,0.0,0.0,0.0,0.1,0.0,0.0,0.0,0.1
1446041002313969901,4736,1446041002310739994,robocape,-2.88373160499,10.8232182167,74.3136974128,0.0,10.0,0.0,0.0,0.0,10.0,0.0,0.0,0.0,10.0,-1.15248296173,-0.287621397729,1.45062384577,1.0,0.0,0.0,0.0,1.0,0.0,0.0,0.0,1.0,-4.35534301758,-1.79027709961,8.75978393555,0.1,0.0,0.0,0.0,0.1,0.0,0.0,0.0,0.1
1446041002348733859,4737,1446041002345221042,robocape,-3.93577230578,10.0200040742,75.2648721353,0.0,10.0,0.0,0.0,0.0,10.0,0.0,0.0,0.0,10.0,-0.744752998841,-0.383228880862,1.20454776104,1.0,0.0,0.0,0.0,1.0,0.0,0.0,0.0,1.0,-4.45234130859,-1.25259521484,8.5418371582,0.1,0.0,0.0,0.0,0.1,0.0,0.0,0.0,0.1
1446041002383410484,4738,1446041002380188941,robocape,-5.13101830585,9.06677029648,75.7670947043,0.0,10.0,0.0,0.0,0.0,10.0,0.0,0.0,0.0,10.0,-0.759933017054,-0.476040044852,0.841292588356,1.0,0.0,0.0,0.0,1.0,0.0,0.0,0.0,1.0,-4.45952636719,-1.74716674805,8.54423217773,0.1,0.0,0.0,0.0,0.1,0.0,0.0,0.0,0.1
1446041002421318984,4739,1446041002418028116,robocape,-6.05930464866,7.86785406322,76.2084737911,0.0,10.0,0.0,0.0,0.0,10.0,0.0,0.0,0.0,10.0,-0.607333886593,-0.621581798424,0.760598807327,1.0,0.0,0.0,0.0,1.0,0.0,0.0,0.0,1.0,-4.18649414063,-1.12326416016,8.49034423828,0.1,0.0,0.0,0.0,0.1,0.0,0.0,0.0,0.1
1446041002459578109,4740,1446041002456319093,robocape,-6.92044209312,6.41895126962,76.7107773144,0.0,10.0,0.0,0.0,0.0,10.0,0.0,0.0,0.0,10.0,-0.572579634367,-0.772316716123,0.785898837682,1.0,0.0,0.0,0.0,1.0,0.0,0.0,0.0,1.0,-3.89190673828,-2.11001220703,8.813671875,0.1,0.0,0.0,0.0,0.1,0.0,0.0,0.0,0.1
1446041002496583484,4741,1446041002493422985,robocape,-7.37551832589,4.9493757655,77.2005114946,0.0,10.0,0.0,0.0,0.0,10.0,0.0,0.0,0.0,10.0,-0.346610415874,-0.799081485078,0.762862494253,1.0,0.0,0.0,0.0,1.0,0.0,0.0,0.0,1.0,-3.31350952148,-1.47892456055,9.17531982422,0.1,0.0,0.0,0.0,0.1,0.0,0.0,0.0,0.1
1446041002530586068,4742,1446041002527518987,robocape,-7.54648358821,3.8547990957,77.8891957439,0.0,10.0,0.0,0.0,0.0,10.0,0.0,0.0,0.0,10.0,-0.204264455609,-0.63090286224,0.977380120059,1.0,0.0,0.0,0.0,1.0,0.0,0.0,0.0,1.0,-2.89917114258,-1.66094604492,8.92623779297,0.1,0.0,0.0,0.0,0.1,0.0,0.0,0.0,0.1
1446041002565995818,4743,1446041002562771081,robocape,-7.94281278587,3.1394149525,78.6593997277,0.0,10.0,0.0,0.0,0.0,10.0,0.0,0.0,0.0,10.0,-0.323574072445,-0.450606856441,1.11786186756,1.0,0.0,0.0,0.0,1.0,0.0,0.0,0.0,1.0,-3.08119262695,-0.944835205078,8.86516479492,0.1,0.0,0.0,0.0,0.1,0.0,0.0,0.0,0.1
1446041002601693984,4744,1446041002597887992,robocape,-8.44803287141,2.51519777786,79.391387917,0.0,10.0,0.0,0.0,0.0,10.0,0.0,0.0,0.0,10.0,-0.375372555647,-0.41212417869,1.11919344811,1.0,0.0,0.0,0.0,1.0,0.0,0.0,0.0,1.0,-3.69791015625,-1.47892456055,9.18130737305,0.1,0.0,0.0,0.0,0.1,0.0,0.0,0.0,0.1
1446041002636233026,4745,1446041002633068084,robocape,-8.48870716868,1.93118064027,79.9466181751,0.0,10.0,0.0,0.0,0.0,10.0,0.0,0.0,0.0,10.0,-0.113051188274,-0.384427303353,0.968458530407,1.0,0.0,0.0,0.0,1.0,0.0,0.0,0.0,1.0,-3.64761474609,-1.92200317383,8.74541381836,0.1,0.0,0.0,0.0,0.1,0.0,0.0,0.0,0.1
1446041002670654943,4746,1446041002667598962,robocape,-7.86976463723,1.55106102685,80.1407033808,0.0,10.0,0.0,0.0,0.0,10.0,0.0,0.0,0.0,10.0,0.2631203157,-0.245543452505,0.658466579522,1.0,0.0,0.0,0.0,1.0,0.0,0.0,0.0,1.0,-3.32668212891,-1.01668579102,9.05796386719,0.1,0.0,0.0,0.0,0.1,0.0,0.0,0.0,0.1
1446041002705541151,4747,1446041002702425003,robocape,-7.20192842915,1.22559124995,80.0390035685,0.0,10.0,0.0,0.0,0.0,10.0,0.0,0.0,0.0,10.0,0.308527212286,-0.188818121287,0.405066801801,1.0,0.0,0.0,0.0,1.0,0.0,0.0,0.0,1.0,-3.5673815918,0.714913330078,8.80768432617,0.1,0.0,0.0,0.0,0.1,0.0,0.0,0.0,0.1
1446041002739775276,4748,1446041002736407041,robocape,-7.19114425569,1.21082358001,80.136470522,0.0,10.0,0.0,0.0,0.0,10.0,0.0,0.0,0.0,10.0,-0.0454068965859,-0.0435426838228,0.63476444582,1.0,0.0,0.0,0.0,1.0,0.0,0.0,0.0,1.0,-1.90523803711,-0.392783203125,9.32860107422,0.1,0.0,0.0,0.0,0.1,0.0,0.0,0.0,0.1
1446041002774861109,4749,1446041002771722078,robocape,-7.6916707606,1.96396175698,80.435651954,0.0,10.0,0.0,0.0,0.0,10.0,0.0,0.0,0.0,10.0,-0.329965659061,0.340618303421,0.911600041134,1.0,0.0,0.0,0.0,1.0,0.0,0.0,0.0,1.0,-0.682580566406,-1.06099365234,10.0123791504,0.1,0.0,0.0,0.0,0.1,0.0,0.0,0.0,0.1
1446041002809767901,4750,1446041002806710958,robocape,-8.23106599604,3.59352411853,80.6448973414,0.0,10.0,0.0,0.0,0.0,10.0,0.0,0.0,0.0,10.0,-0.36099148576,0.80800307473,0.946753767523,1.0,0.0,0.0,0.0,1.0,0.0,0.0,0.0,1.0,-1.35558105469,-1.93038574219,9.70222412109,0.1,0.0,0.0,0.0,0.1,0.0,0.0,0.0,0.1
1446041002848388651,4751,1446041002845123052,robocape,-8.52162359894,5.3985769275,80.6326322366,0.0,10.0,0.0,0.0,0.0,10.0,0.0,0.0,0.0,10.0,-0.22943132791,0.925182162694,0.7878962085,1.0,0.0,0.0,0.0,1.0,0.0,0.0,0.0,1.0,-2.84288818359,-1.52442993164,10.1381176758,0.1,0.0,0.0,0.0,0.1,0.0,0.0,0.0,0.1
1446041002886010943,4752,1446041002882405042,robocape,-8.59512637475,6.52102646748,80.6502673379,0.0,10.0,0.0,0.0,0.0,10.0,0.0,0.0,0.0,10.0,-0.126100677615,0.574976479348,0.738894044442,1.0,0.0,0.0,0.0,1.0,0.0,0.0,0.0,1.0,-4.95050537109,0.0143701171875,8.5801574707,0.1,0.0,0.0,0.0,0.1,0.0,0.0,0.0,0.1
1446041002921519151,4753,1446041002918330907,robocape,-8.66777242392,7.10899962692,80.4116241798,0.0,10.0,0.0,0.0,0.0,10.0,0.0,0.0,0.0,10.0,-0.0989364344964,0.322109333845,0.444215269825,1.0,0.0,0.0,0.0,1.0,0.0,0.0,0.0,1.0,-4.64274536133,-0.112565917969,8.86875732422,0.1,0.0,0.0,0.0,0.1,0.0,0.0,0.0,0.1
1446041002961117609,4754,1446041002956305027,robocape,-8.87274140359,7.00373063314,80.1762664198,0.0,10.0,0.0,0.0,0.0,10.0,0.0,0.0,0.0,10.0,-0.166847042293,-0.0372842552611,0.35832832467,1.0,0.0,0.0,0.0,1.0,0.0,0.0,0.0,1.0,-5.08821899414,0.00359252929688,8.90109008789,0.1,0.0,0.0,0.0,0.1,0.0,0.0,0.0,0.1
1446041002999896943,4755,1446041002996524095,robocape,-9.271336035,6.28143215635,80.4647241083,0.0,10.0,0.0,0.0,0.0,10.0,0.0,0.0,0.0,10.0,-0.329699342952,-0.405466275965,0.749280372694,1.0,0.0,0.0,0.0,1.0,0.0,0.0,0.0,1.0,-3.72545288086,-1.5675402832,9.03042114258,0.1,0.0,0.0,0.0,0.1,0.0,0.0,0.0,0.1
1446041003033752109,4756,1446041003030675888,robocape,-9.33245167027,6.02206115816,81.1710076039,0.0,10.0,0.0,0.0,0.0,10.0,0.0,0.0,0.0,10.0,-0.198272343156,-0.210123410007,1.18337563038,1.0,0.0,0.0,0.0,1.0,0.0,0.0,0.0,1.0,-2.30520629883,-1.56155273438,9.45194458008,0.1,0.0,0.0,0.0,0.1,0.0,0.0,0.0,0.1
1446041003070741526,4757,1446041003067434072,robocape,-9.14100101907,6.68067505437,81.9697635889,0.0,10.0,0.0,0.0,0.0,10.0,0.0,0.0,0.0,10.0,-0.0825579937925,0.259791364337,1.40854590054,1.0,0.0,0.0,0.0,1.0,0.0,0.0,0.0,1.0,-2.48363525391,-1.09691894531,9.06035888672,0.1,0.0,0.0,0.0,0.1,0.0,0.0,0.0,0.1
1446041003106303443,4758,1446041003103239059,robocape,-8.6452053189,7.8771991812,82.4522300265,0.0,10.0,0.0,0.0,0.0,10.0,0.0,0.0,0.0,10.0,0.104262756677,0.578838062929,1.19908828081,1.0,0.0,0.0,0.0,1.0,0.0,0.0,0.0,1.0,-3.45721069336,-0.318537597656,8.68074829102,0.1,0.0,0.0,0.0,0.1,0.0,0.0,0.0,0.1
1446041003143595401,4759,1446041003139775991,robocape,-8.08584598637,8.92215813847,82.495771893,0.0,10.0,0.0,0.0,0.0,10.0,0.0,0.0,0.0,10.0,0.189350753505,0.546880129848,0.776844089976,1.0,0.0,0.0,0.0,1.0,0.0,0.0,0.0,1.0,-5.00199829102,0.978365478516,8.65560058594,0.1,0.0,0.0,0.0,0.1,0.0,0.0,0.0,0.1
1446041003179042651,4760,1446041003175899028,robocape,-7.82351915005,9.41235934987,82.4683784066,0.0,10.0,0.0,0.0,0.0,10.0,0.0,0.0,0.0,10.0,0.0415453130052,0.270710324807,0.654604995941,1.0,0.0,0.0,0.0,1.0,0.0,0.0,0.0,1.0,-5.44387939453,1.61903320313,8.45322143555,0.1,0.0,0.0,0.0,0.1,0.0,0.0,0.0,0.1
1446041003214378776,4761,1446041003211230039,robocape,-8.04619118879,9.46027360323,82.8172401854,0.0,10.0,0.0,0.0,0.0,10.0,0.0,0.0,0.0,10.0,-0.275104540605,0.0201068662301,0.977912752277,1.0,0.0,0.0,0.0,1.0,0.0,0.0,0.0,1.0,-5.76840454102,0.631087646484,8.6951184082,0.1,0.0,0.0,0.0,0.1,0.0,0.0,0.0,0.1
1446041003244038068,4762,1446041003240514039,robocape,-8.16754064854,9.10844603881,83.3950772008,0.0,10.0,0.0,0.0,0.0,10.0,0.0,0.0,0.0,10.0,-0.254331884103,-0.207859723081,1.14222979153,1.0,0.0,0.0,0.0,1.0,0.0,0.0,0.0,1.0,-5.81031738281,-0.221539306641,9.21723266602,0.1,0.0,0.0,0.0,0.1,0.0,0.0,0.0,0.1
1446041003293366151,4763,1446041003289927005,robocape,-7.80438162841,8.68140309595,83.6566218852,0.0,10.0,0.0,0.0,0.0,10.0,0.0,0.0,0.0,10.0,0.0579237537092,-0.230629750401,0.817723612709,1.0,0.0,0.0,0.0,1.0,0.0,0.0,0.0,1.0,-5.22473510742,1.27175537109,10.0087866211,0.1,0.0,0.0,0.0,0.1,0.0,0.0,0.0,0.1
1446041003328143485,4764,1446041003324981927,robocape,-7.71046617534,8.39944673136,83.7475124769,0.0,10.0,0.0,0.0,0.0,10.0,0.0,0.0,0.0,10.0,-0.0592553342543,-0.143411224701,0.7006776828,1.0,0.0,0.0,0.0,1.0,0.0,0.0,0.0,1.0,-5.19240234375,0.942440185547,10.5536535645,0.1,0.0,0.0,0.0,0.1,0.0,0.0,0.0,0.1
1446041003363396318,4765,1446041003360048055,robocape,-7.74254851098,8.55921980559,84.0260738213,0.0,10.0,0.0,0.0,0.0,10.0,0.0,0.0,0.0,10.0,-0.156194397933,0.0759000910673,0.950349034995,1.0,0.0,0.0,0.0,1.0,0.0,0.0,0.0,1.0,-4.61759765625,0.647852783203,9.72377929688,0.1,0.0,0.0,0.0,0.1,0.0,0.0,0.0,0.1
1446041003398792360,4766,1446041003395579099,robocape,-8.30835267205,9.22716925992,84.2993199228,0.0,10.0,0.0,0.0,0.0,10.0,0.0,0.0,0.0,10.0,-0.453403175586,0.345145677274,1.06326706521,1.0,0.0,0.0,0.0,1.0,0.0,0.0,0.0,1.0,-4.46790893555,0.393980712891,8.86755981445,0.1,0.0,0.0,0.0,0.1,0.0,0.0,0.0,0.1
1446041003433487610,4767,1446041003430342912,robocape,-8.67375471264,10.2933081047,84.6425566093,0.0,10.0,0.0,0.0,0.0,10.0,0.0,0.0,0.0,10.0,-0.375505713701,0.550342239265,1.19962091303,1.0,0.0,0.0,0.0,1.0,0.0,0.0,0.0,1.0,-4.45473632813,-0.650247802734,9.03161865234,0.1,0.0,0.0,0.0,0.1,0.0,0.0,0.0,0.1
1446041003464671360,4768,1446041003461319923,robocape,-8.81601248321,11.3772576887,84.993990986,0.0,10.0,0.0,0.0,0.0,10.0,0.0,0.0,0.0,10.0,-0.274705066442,0.564456993042,1.22119251786,1.0,0.0,0.0,0.0,1.0,0.0,0.0,0.0,1.0,-6.03185668945,0.815504150391,8.5490222168,0.1,0.0,0.0,0.0,0.1,0.0,0.0,0.0,0.1
1446041003503926568,4769,1446041003499656915,robocape,-9.31247841215,11.9961187797,85.1447559876,0.0,10.0,0.0,0.0,0.0,10.0,0.0,0.0,0.0,10.0,-0.439687895972,0.340085671203,1.00427804707,1.0,0.0,0.0,0.0,1.0,0.0,0.0,0.0,1.0,-6.62103149414,2.5638684082,8.23048461914,0.1,0.0,0.0,0.0,0.1,0.0,0.0,0.0,0.1
1446041003537684276,4770,1446041003533790111,robocape,-10.414832614,12.1325698132,84.9736097741,0.0,10.0,0.0,0.0,0.0,10.0,0.0,0.0,0.0,10.0,-0.71013190467,0.111053817456,0.676043442717,1.0,0.0,0.0,0.0,1.0,0.0,0.0,0.0,1.0,-7.11560302734,0.833466796875,8.29515014648,0.1,0.0,0.0,0.0,0.1,0.0,0.0,0.0,0.1
1446041003574586360,4771,1446041003571429967,robocape,-11.1906753767,11.6676077815,84.5241632055,0.0,10.0,0.0,0.0,0.0,10.0,0.0,0.0,0.0,10.0,-0.47124635489,-0.184557063542,0.266182950953,1.0,0.0,0.0,0.0,1.0,0.0,0.0,0.0,1.0,-6.22226074219,0.0682580566406,8.78373413086,0.1,0.0,0.0,0.0,0.1,0.0,0.0,0.0,0.1
1446041003609598193,4772,1446041003606270074,robocape,-11.7904542678,11.2140895442,83.9471904011,0.0,10.0,0.0,0.0,0.0,10.0,0.0,0.0,0.0,10.0,-0.351670421945,-0.168578097002,0.119309616836,1.0,0.0,0.0,0.0,1.0,0.0,0.0,0.0,1.0,-5.07504638672,-0.188009033203,8.90707763672,0.1,0.0,0.0,0.0,0.1,0.0,0.0,0.0,0.1
1446041003642254901,4773,1446041003639079093,robocape,-12.1534693073,11.0765082908,83.2977420375,0.0,10.0,0.0,0.0,0.0,10.0,0.0,0.0,0.0,10.0,-0.214783941915,0.00119842249054,0.0809600971384,1.0,0.0,0.0,0.0,1.0,0.0,0.0,0.0,1.0,-5.07983642578,-0.416733398438,9.0471862793,0.1,0.0,0.0,0.0,0.1,0.0,0.0,0.0,0.1
1446041003684641068,4774,1446041003680385112,robocape,-12.105580135,10.9991395882,82.5677972843,0.0,10.0,0.0,0.0,0.0,10.0,0.0,0.0,0.0,10.0,0.0246342400832,0.0403468905147,-0.0310258266994,1.0,0.0,0.0,0.0,1.0,0.0,0.0,0.0,1.0,-5.79953979492,-0.433498535156,8.98252075195,0.1,0.0,0.0,0.0,0.1,0.0,0.0,0.0,0.1
1446041003718964693,4775,1446041003715636968,robocape,-11.9350986607,10.7282499369,81.747748722,0.0,10.0,0.0,0.0,0.0,10.0,0.0,0.0,0.0,10.0,0.113450662437,-0.050200586548,-0.175768631945,1.0,0.0,0.0,0.0,1.0,0.0,0.0,0.0,1.0,-6.34320922852,0.393980712891,8.86157226562,0.1,0.0,0.0,0.0,0.1,0.0,0.0,0.0,0.1
1446041003749059401,4776,1446041003745798110,robocape,-11.574513515,10.0595471238,80.8210157291,0.0,10.0,0.0,0.0,0.0,10.0,0.0,0.0,0.0,10.0,0.242480817252,-0.24567661056,-0.376704136192,1.0,0.0,0.0,0.0,1.0,0.0,0.0,0.0,1.0,-6.80544799805,-0.403560791016,8.97653320313,0.1,0.0,0.0,0.0,0.1,0.0,0.0,0.0,0.1
1446041003787973610,4777,1446041003784682035,robocape,-11.175632892,8.85880019569,79.8528962495,0.0,10.0,0.0,0.0,0.0,10.0,0.0,0.0,0.0,10.0,0.273240327842,-0.518517464238,-0.520381677001,1.0,0.0,0.0,0.0,1.0,0.0,0.0,0.0,1.0,-6.5563659668,0.548459472656,8.77654907227,0.1,0.0,0.0,0.0,0.1,0.0,0.0,0.0,0.1
1446041003825397193,4778,1446041003822307109,robocape,-10.8493713357,7.62597774767,78.9616987166,0.0,10.0,0.0,0.0,0.0,10.0,0.0,0.0,0.0,10.0,0.214251309697,-0.547412762066,-0.453136859477,1.0,0.0,0.0,0.0,1.0,0.0,0.0,0.0,1.0,-4.70381835938,-0.144898681641,9.32021850586,0.1,0.0,0.0,0.0,0.1,0.0,0.0,0.0,0.1
1446041003858738401,4779,1446041003855653047,robocape,-10.2731321273,6.98084000564,78.0118021494,0.0,10.0,0.0,0.0,0.0,10.0,0.0,0.0,0.0,10.0,0.343814096729,-0.243945555851,-0.426238932467,1.0,0.0,0.0,0.0,1.0,0.0,0.0,0.0,1.0,-4.36372558594,-1.46215942383,10.6949597168,0.1,0.0,0.0,0.0,0.1,0.0,0.0,0.0,0.1
1446041003897915027,4780,1446041003894311904,robocape,-9.17948215178,7.15183353904,77.2792935288,0.0,10.0,0.0,0.0,0.0,10.0,0.0,0.0,0.0,10.0,0.587093862308,0.15020228548,-0.154596501279,1.0,0.0,0.0,0.0,1.0,0.0,0.0,0.0,1.0,-3.78772338867,1.16996704102,10.1920056152,0.1,0.0,0.0,0.0,0.1,0.0,0.0,0.0,0.1
1446041003932323610,4781,1446041003928833961,robocape,-8.66263284897,8.09674324433,76.790052047,0.0,10.0,0.0,0.0,0.0,10.0,0.0,0.0,0.0,10.0,0.249138719977,0.531300637471,0.181094954125,1.0,0.0,0.0,0.0,1.0,0.0,0.0,0.0,1.0,-3.62486206055,1.31965576172,9.13819702148,0.1,0.0,0.0,0.0,0.1,0.0,0.0,0.0,0.1
1446041003967752735,4782,1446041003964567899,robocape,-8.60189314405,8.86634289523,76.419261643,0.0,10.0,0.0,0.0,0.0,10.0,0.0,0.0,0.0,10.0,-0.00652474467069,0.436358944609,0.27790085975,1.0,0.0,0.0,0.0,1.0,0.0,0.0,0.0,1.0,-5.47501464844,-0.408350830078,8.06522827148,0.1,0.0,0.0,0.0,0.1,0.0,0.0,0.0,0.1
1446041004002836193,4783,1446041003999228954,robocape,-8.67190015172,9.1051982543,76.2692665272,0.0,10.0,0.0,0.0,0.0,10.0,0.0,0.0,0.0,10.0,-0.103064334186,0.147139650227,0.398142582967,1.0,0.0,0.0,0.0,1.0,0.0,0.0,0.0,1.0,-5.28700561523,1.33402587891,8.2735949707,0.1,0.0,0.0,0.0,0.1,0.0,0.0,0.0,0.1
1446041004037646527,4784,1446041004034257888,robocape,-8.79038324726,9.14626935317,76.078558647,0.0,10.0,0.0,0.0,0.0,10.0,0.0,0.0,0.0,10.0,-0.122239094035,0.0475374254579,0.337422510113,1.0,0.0,0.0,0.0,1.0,0.0,0.0,0.0,1.0,-4.19727172852,0.604742431641,8.80528930664,0.1,0.0,0.0,0.0,0.1,0.0,0.0,0.0,0.1
1446041004073763277,4785,1446041004070241928,robocape,-8.76188776467,9.57705581768,75.7586022003,0.0,10.0,0.0,0.0,0.0,10.0,0.0,0.0,0.0,10.0,-0.0283626656093,0.260323996555,0.270843482861,1.0,0.0,0.0,0.0,1.0,0.0,0.0,0.0,1.0,-3.51948120117,-0.0742456054688,9.15017211914,0.1,0.0,0.0,0.0,0.1,0.0,0.0,0.0,0.1
1446041004109088693,4786,1446041004105937957,robocape,-8.56465430714,10.1692130586,75.6044440509,0.0,10.0,0.0,0.0,0.0,10.0,0.0,0.0,0.0,10.0,0.0367516230431,0.335425139295,0.418515765306,1.0,0.0,0.0,0.0,1.0,0.0,0.0,0.0,1.0,-4.19128417969,0.662222900391,8.82205444336,0.1,0.0,0.0,0.0,0.1,0.0,0.0,0.0,0.1
1446041004144464902,4787,1446041004141120910,robocape,-8.41335290837,10.5864202881,75.4472632543,0.0,10.0,0.0,0.0,0.0,10.0,0.0,0.0,0.0,10.0,0.0138484376684,0.247540823323,0.392549944678,1.0,0.0,0.0,0.0,1.0,0.0,0.0,0.0,1.0,-5.25227783203,1.27534790039,8.5454296875,0.1,0.0,0.0,0.0,0.1,0.0,0.0,0.0,0.1
1446041004180645485,4788,1446041004177405118,robocape,-8.46315291268,10.8313649183,75.2728781451,0.0,10.0,0.0,0.0,0.0,10.0,0.0,0.0,0.0,10.0,-0.0901480028992,0.161254404004,0.364453595177,1.0,0.0,0.0,0.0,1.0,0.0,0.0,0.0,1.0,-4.04279296875,1.14122680664,8.84001708984,0.1,0.0,0.0,0.0,0.1,0.0,0.0,0.0,0.1
1446041004216243693,4789,1446041004212842941,robocape,-8.80582254953,11.1692171492,75.1220038441,0.0,10.0,0.0,0.0,0.0,10.0,0.0,0.0,0.0,10.0,-0.253799251885,0.210922358334,0.413988391453,1.0,0.0,0.0,0.0,1.0,0.0,0.0,0.0,1.0,-4.01046020508,0.445473632813,9.12262939453,0.1,0.0,0.0,0.0,0.1,0.0,0.0,0.0,0.1
1446041004245893068,4790,1446041004242679119,robocape,-8.92611496072,11.5175797296,75.0614080264,0.0,10.0,0.0,0.0,0.0,10.0,0.0,0.0,0.0,10.0,-0.151533866026,0.21078920028,0.478037415669,1.0,0.0,0.0,0.0,1.0,0.0,0.0,0.0,1.0,-4.4415637207,1.09931396484,9.18849243164,0.1,0.0,0.0,0.0,0.1,0.0,0.0,0.0,0.1
1446041004295924318,4791,1446041004292623996,robocape,-9.30182167142,11.9669039474,75.1572842104,0.0,10.0,0.0,0.0,0.0,10.0,0.0,0.0,0.0,10.0,-0.3207777533,0.256462412975,0.642620771036,1.0,0.0,0.0,0.0,1.0,0.0,0.0,0.0,1.0,-4.29666503906,2.03337158203,9.06754394531,0.1,0.0,0.0,0.0,0.1,0.0,0.0,0.0,0.1
1446041004327797027,4792,1446041004324486017,robocape,-9.93176574152,12.412803282,75.0020793886,0.0,10.0,0.0,0.0,0.0,10.0,0.0,0.0,0.0,10.0,-0.419847345851,0.273107169788,0.458995813875,1.0,0.0,0.0,0.0,1.0,0.0,0.0,0.0,1.0,-4.54694458008,1.71004394531,9.52619018555,0.1,0.0,0.0,0.0,0.1,0.0,0.0,0.0,0.1
1446041004361550860,4793,1446041004358397006,robocape,-10.7069251197,12.5756016111,74.5119231643,0.0,10.0,0.0,0.0,0.0,10.0,0.0,0.0,0.0,10.0,-0.437424209046,0.150601759644,0.150868075753,1.0,0.0,0.0,0.0,1.0,0.0,0.0,0.0,1.0,-5.67619628906,2.46567260742,8.75619140625,0.1,0.0,0.0,0.0,0.1,0.0,0.0,0.0,0.1
1446041004397419318,4794,1446041004394121885,robocape,-11.7561537276,12.4314530401,73.7699963226,0.0,10.0,0.0,0.0,0.0,10.0,0.0,0.0,0.0,10.0,-0.537026433814,0.0149137021044,-0.0905474770627,1.0,0.0,0.0,0.0,1.0,0.0,0.0,0.0,1.0,-6.02227661133,2.13755493164,8.84480712891,0.1,0.0,0.0,0.0,0.1,0.0,0.0,0.0,0.1
1446041004432453610,4795,1446041004429279088,robocape,-12.0895858788,12.0712004286,72.8697027948,0.0,10.0,0.0,0.0,0.0,10.0,0.0,0.0,0.0,10.0,-0.117445404072,-0.082424835738,-0.315850905283,1.0,0.0,0.0,0.0,1.0,0.0,0.0,0.0,1.0,-5.80672485352,0.537681884766,8.60171264648,0.1,0.0,0.0,0.0,0.1,0.0,0.0,0.0,0.1
1446041004465881235,4796,1446041004462682008,robocape,-12.4449092522,11.5348034183,71.768159343,0.0,10.0,0.0,0.0,0.0,10.0,0.0,0.0,0.0,10.0,-0.0918790576077,-0.151267549917,-0.516253777312,1.0,0.0,0.0,0.0,1.0,0.0,0.0,0.0,1.0,-5.53848266602,0.861009521484,8.50830688477,0.1,0.0,0.0,0.0,0.1,0.0,0.0,0.0,0.1
1446041004502541110,4797,1446041004499344110,robocape,-12.7717183397,10.6707743338,70.7425517549,0.0,10.0,0.0,0.0,0.0,10.0,0.0,0.0,0.0,10.0,-0.0892158965177,-0.324506178826,-0.527971686108,1.0,0.0,0.0,0.0,1.0,0.0,0.0,0.0,1.0,-6.2498034668,0.403560791016,8.89989257812,0.1,0.0,0.0,0.0,0.1,0.0,0.0,0.0,0.1
1446041004537177027,4798,1446041004533595085,robocape,-12.663724949,9.63420990647,69.773279271,0.0,10.0,0.0,0.0,0.0,10.0,0.0,0.0,0.0,10.0,0.132359106177,-0.418915239469,-0.55167381981,1.0,0.0,0.0,0.0,1.0,0.0,0.0,0.0,1.0,-5.4798046875,0.116158447266,9.62079345703,0.1,0.0,0.0,0.0,0.1,0.0,0.0,0.0,0.1
1446041004578000318,4799,1446041004574632883,robocape,-12.1479246014,8.8273461608,68.6197631908,0.0,10.0,0.0,0.0,0.0,10.0,0.0,0.0,0.0,10.0,0.368581494867,-0.284558762475,-0.679905026297,1.0,0.0,0.0,0.0,1.0,0.0,0.0,0.0,1.0,-5.06905883789,0.146096191406,8.93581787109,0.1,0.0,0.0,0.0,0.1,0.0,0.0,0.0,0.1
1446041004614807610,4800,1446041004611336946,robocape,-11.8000587576,8.56121496338,67.1613928156,0.0,10.0,0.0,0.0,0.0,10.0,0.0,0.0,0.0,10.0,0.307728263959,0.0199737081756,-0.811997816365,1.0,0.0,0.0,0.0,1.0,0.0,0.0,0.0,1.0,-5.07744140625,1.15679443359,8.4340612793,0.1,0.0,0.0,0.0,0.1,0.0,0.0,0.0,0.1
1446041004651345027,4801,1446041004648129940,robocape,-11.7075277228,8.09504925727,65.4330514707,0.0,10.0,0.0,0.0,0.0,10.0,0.0,0.0,0.0,10.0,0.203332349228,-0.0573911214912,-1.03051018381,1.0,0.0,0.0,0.0,1.0,0.0,0.0,0.0,1.0,-7.11081298828,0.148491210938,8.21371948242,0.1,0.0,0.0,0.0,0.1,0.0,0.0,0.0,0.1
1446041004686208610,4802,1446041004682954072,robocape,-11.3897069307,6.95207847845,63.9352419379,0.0,10.0,0.0,0.0,0.0,10.0,0.0,0.0,0.0,10.0,0.29001824271,-0.430366832157,-0.974184326751,1.0,0.0,0.0,0.0,1.0,0.0,0.0,0.0,1.0,-6.69886962891,-1.22864501953,8.63883544922,0.1,0.0,0.0,0.0,0.1,0.0,0.0,0.0,0.1
1446041004721966694,4803,1446041004718677043,robocape,-10.53431309,5.5495965728,62.8464983616,0.0,10.0,0.0,0.0,0.0,10.0,0.0,0.0,0.0,10.0,0.517718515911,-0.612527050718,-0.733168248099,1.0,0.0,0.0,0.0,1.0,0.0,0.0,0.0,1.0,-5.68338134766,-1.34600097656,9.14059204102,0.1,0.0,0.0,0.0,0.1,0.0,0.0,0.0,0.1
1446041004757482944,4804,1446041004753385066,robocape,-9.34005442089,4.38204103009,61.9303205991,0.0,10.0,0.0,0.0,0.0,10.0,0.0,0.0,0.0,10.0,0.66698869501,-0.519715886729,-0.576973850166,1.0,0.0,0.0,0.0,1.0,0.0,0.0,0.0,1.0,-4.33139282227,0.0131726074219,9.44475952148,0.1,0.0,0.0,0.0,0.1,0.0,0.0,0.0,0.1
1446041004793105027,4805,1446041004789818048,robocape,-8.33599310388,3.70220679331,60.990160988,0.0,10.0,0.0,0.0,0.0,10.0,0.0,0.0,0.0,10.0,0.557133300045,-0.276835595314,-0.519316412565,1.0,0.0,0.0,0.0,1.0,0.0,0.0,0.0,1.0,-3.95297973633,0.516126708984,9.50822753906,0.1,0.0,0.0,0.0,0.1,0.0,0.0,0.0,0.1
1446041004827811360,4806,1446041004824585914,robocape,-7.55788896816,3.39875626156,60.0423983305,0.0,10.0,0.0,0.0,0.0,10.0,0.0,0.0,0.0,10.0,0.433029993247,-0.0896153706812,-0.477238467342,1.0,0.0,0.0,0.0,1.0,0.0,0.0,0.0,1.0,-4.33618286133,0.586779785156,9.11783935547,0.1,0.0,0.0,0.0,0.1,0.0,0.0,0.0,0.1
1446041004862851277,4807,1446041004859457969,robocape,-6.81326725955,3.34178421112,59.259272091,0.0,10.0,0.0,0.0,0.0,10.0,0.0,0.0,0.0,10.0,0.404933643747,0.0206394984481,-0.341816725912,1.0,0.0,0.0,0.0,1.0,0.0,0.0,0.0,1.0,-4.64394287109,-0.754431152344,8.80289428711,0.1,0.0,0.0,0.0,0.1,0.0,0.0,0.0,0.1
1446041004897470985,4808,1446041004893954038,robocape,-5.5870499803,3.19463998846,58.3801459568,0.0,10.0,0.0,0.0,0.0,10.0,0.0,0.0,0.0,10.0,0.664059217811,-0.0272974011733,-0.428369461339,1.0,0.0,0.0,0.0,1.0,0.0,0.0,0.0,1.0,-5.03433105469,-0.611927490234,8.48196166992,0.1,0.0,0.0,0.0,0.1,0.0,0.0,0.0,0.1
1446041004932527569,4809,1446041004929403066,robocape,-3.87105316836,2.80488517562,57.1028811689,0.0,10.0,0.0,0.0,0.0,10.0,0.0,0.0,0.0,10.0,0.937033229544,-0.148204914663,-0.721450339302,1.0,0.0,0.0,0.0,1.0,0.0,0.0,0.0,1.0,-5.99952392578,0.90052734375,8.72864868164,0.1,0.0,0.0,0.0,0.1,0.0,0.0,0.0,0.1
1446041004966795485,4810,1446041004963134050,robocape,-1.73639373629,2.12753563813,55.4590660293,0.0,10.0,0.0,0.0,0.0,10.0,0.0,0.0,0.0,10.0,1.15980665473,-0.312388795866,-0.970056427061,1.0,0.0,0.0,0.0,1.0,0.0,0.0,0.0,1.0,-4.91458007813,-1.28253295898,9.56690551758,0.1,0.0,0.0,0.0,0.1,0.0,0.0,0.0,0.1
1446041005003153777,4811,1446041005000063896,robocape,1.42083062094,2.07376451273,53.5769112925,0.0,10.0,0.0,0.0,0.0,10.0,0.0,0.0,0.0,10.0,1.68897676333,-0.0276968753368,-1.09775500133,1.0,0.0,0.0,0.0,1.0,0.0,0.0,0.0,1.0,-2.26928100586,0.349672851562,9.41482177734,0.1,0.0,0.0,0.0,0.1,0.0,0.0,0.0,0.1
1446041005038858277,4812,1446041005035713911,robocape,4.45766609595,2.80119636815,51.0658189331,0.0,10.0,0.0,0.0,0.0,10.0,0.0,0.0,0.0,10.0,1.63611301569,0.303200890106,-1.49416652959,1.0,0.0,0.0,0.0,1.0,0.0,0.0,0.0,1.0,-3.68713256836,3.23567138672,9.05556884766,0.1,0.0,0.0,0.0,0.1,0.0,0.0,0.0,0.1
1446041005073165860,4813,1446041005069819927,robocape,5.20226829831,3.74156524206,49.3414207656,0.0,10.0,0.0,0.0,0.0,10.0,0.0,0.0,0.0,10.0,0.437291050991,0.408795227327,-0.994690667145,1.0,0.0,0.0,0.0,1.0,0.0,0.0,0.0,1.0,-7.39701782227,10.6901696777,7.16110839844,0.1,0.0,0.0,0.0,0.1,0.0,0.0,0.0,0.1
1446041005108521610,4814,1446041005105253934,robocape,5.06762921609,4.54665909847,48.3516730538,0.0,10.0,0.0,0.0,0.0,10.0,0.0,0.0,0.0,10.0,-0.0315584589174,0.376570978137,-0.530235373035,1.0,0.0,0.0,0.0,1.0,0.0,0.0,0.0,1.0,-4.22720947266,0.0850231933594,9.47230224609,0.1,0.0,0.0,0.0,0.1,0.0,0.0,0.0,0.1
1446041005143388527,4815,1446041005140336990,robocape,5.33826894277,5.76429581589,46.8552701114,0.0,10.0,0.0,0.0,0.0,10.0,0.0,0.0,0.0,10.0,0.210389726116,0.560195935298,-0.860067874041,1.0,0.0,0.0,0.0,1.0,0.0,0.0,0.0,1.0,-3.08478515625,3.77215576172,8.73942626953,0.1,0.0,0.0,0.0,0.1,0.0,0.0,0.0,0.1
1446041005179641235,4816,1446041005176165103,robocape,4.9845463799,7.4818123093,44.4763742546,0.0,10.0,0.0,0.0,0.0,10.0,0.0,0.0,0.0,10.0,-0.0474042674034,0.763927758689,-1.41347274856,1.0,0.0,0.0,0.0,1.0,0.0,0.0,0.0,1.0,-4.55173461914,3.61288696289,8.86396728516,0.1,0.0,0.0,0.0,0.1,0.0,0.0,0.0,0.1
1446041005218693069,4817,1446041005215503931,robocape,4.53776375944,8.48937864782,41.9884374331,0.0,10.0,0.0,0.0,0.0,10.0,0.0,0.0,0.0,10.0,-0.0569916473277,0.395612579931,-1.42772066039,1.0,0.0,0.0,0.0,1.0,0.0,0.0,0.0,1.0,-6.19471801758,1.96990356445,8.45202392578,0.1,0.0,0.0,0.0,0.1,0.0,0.0,0.0,0.1
1446041005252359902,4818,1446041005249241113,robocape,3.44849111202,8.88768443473,39.9061977949,0.0,10.0,0.0,0.0,0.0,10.0,0.0,0.0,0.0,10.0,-0.406398382346,0.116912771854,-1.15341506811,1.0,0.0,0.0,0.0,1.0,0.0,0.0,0.0,1.0,-5.71930664063,1.74596923828,8.57057739258,0.1,0.0,0.0,0.0,0.1,0.0,0.0,0.0,0.1
1446041005298097652,4819,1446041005294998884,robocape,3.30466817625,9.04476781498,38.234478418,0.0,10.0,0.0,0.0,0.0,10.0,0.0,0.0,0.0,10.0,0.0608532309083,0.0229031853747,-0.900148448447,1.0,0.0,0.0,0.0,1.0,0.0,0.0,0.0,1.0,-4.48826660156,-4.09308837891,9.56091796875,0.1,0.0,0.0,0.0,0.1,0.0,0.0,0.0,0.1
1446041005336153152,4820,1446041005332988023,robocape,4.17221020371,8.97655141484,36.0215295861,0.0,10.0,0.0,0.0,0.0,10.0,0.0,0.0,0.0,10.0,0.633432865275,-0.127165942051,-1.20281670633,1.0,0.0,0.0,0.0,1.0,0.0,0.0,0.0,1.0,-5.33610351563,1.27894042969,9.47230224609,0.1,0.0,0.0,0.0,0.1,0.0,0.0,0.0,0.1
1446041005371431361,4821,1446041005368287086,robocape,4.53886821413,8.22138666244,34.1182421964,0.0,10.0,0.0,0.0,0.0,10.0,0.0,0.0,0.0,10.0,0.338487774549,-0.481632683141,-0.999084882943,1.0,0.0,0.0,0.0,1.0,0.0,0.0,0.0,1.0,-5.74325683594,3.46319824219,9.03760620117,0.1,0.0,0.0,0.0,0.1,0.0,0.0,0.0,0.1
1446041005407796902,4822,1446041005404577016,robocape,4.66567499185,6.78306360759,32.5718325166,0.0,10.0,0.0,0.0,0.0,10.0,0.0,0.0,0.0,10.0,0.169909677547,-0.82278361878,-0.771517767796,1.0,0.0,0.0,0.0,1.0,0.0,0.0,0.0,1.0,-5.14450195313,2.34232910156,9.06874145508,0.1,0.0,0.0,0.0,0.1,0.0,0.0,0.0,0.1
1446041005443512236,4823,1446041005439985036,robocape,4.5942238582,4.87248291483,31.2012762955,0.0,10.0,0.0,0.0,0.0,10.0,0.0,0.0,0.0,10.0,0.0334226716805,-1.05940548163,-0.654738153996,1.0,0.0,0.0,0.0,1.0,0.0,0.0,0.0,1.0,-4.02123779297,2.82492553711,9.63396606445,0.1,0.0,0.0,0.0,0.1,0.0,0.0,0.0,0.1
1446041005479726944,4824,1446041005476294040,robocape,4.57297599697,3.18649075957,29.5288779056,0.0,10.0,0.0,0.0,0.0,10.0,0.0,0.0,0.0,10.0,0.0472711093489,-0.953944302466,-0.828908889287,1.0,0.0,0.0,0.0,1.0,0.0,0.0,0.0,1.0,-1.77949951172,1.12446166992,10.096204834,0.1,0.0,0.0,0.0,0.1,0.0,0.0,0.0,0.1
1446041005516431319,4825,1446041005513240098,robocape,5.24766223771,2.29513624407,26.9762376634,0.0,10.0,0.0,0.0,0.0,10.0,0.0,0.0,0.0,10.0,0.409594175654,-0.584830175381,-1.33677370917,1.0,0.0,0.0,0.0,1.0,0.0,0.0,0.0,1.0,-0.610729980469,0.605939941406,10.0315393066,0.1,0.0,0.0,0.0,0.1,0.0,0.0,0.0,0.1
1446041005550362569,4826,1446041005547096014,robocape,6.17958122869,2.15891721059,23.5601394869,0.0,10.0,0.0,0.0,0.0,10.0,0.0,0.0,0.0,10.0,0.544216968758,-0.256062938811,-1.8271948239,1.0,0.0,0.0,0.0,1.0,0.0,0.0,0.0,1.0,-0.70892578125,0.0874182128906,10.1979931641,0.1,0.0,0.0,0.0,0.1,0.0,0.0,0.0,0.1
1446041005584958486,4827,1446041005581378936,robocape,7.44586880479,2.39915756017,20.1260182067,0.0,10.0,0.0,0.0,0.0,10.0,0.0,0.0,0.0,10.0,0.721583497357,-0.0942759025888,-1.83664904577,1.0,0.0,0.0,0.0,1.0,0.0,0.0,0.0,1.0,-1.46096191406,1.85853515625,9.87945556641,0.1,0.0,0.0,0.0,0.1,0.0,0.0,0.0,0.1
1446041005620858736,4828,1446041005617620944,robocape,8.27161680597,2.94879607659,17.1509888598,0.0,10.0,0.0,0.0,0.0,10.0,0.0,0.0,0.0,10.0,0.496280069136,0.0680437658515,-1.60002718292,1.0,0.0,0.0,0.0,1.0,0.0,0.0,0.0,1.0,-1.7208215332,1.42264160156,9.74892700195,0.1,0.0,0.0,0.0,0.1,0.0,0.0,0.0,0.1
1446041005659246111,4829,1446041005655507087,robocape,8.96017831522,4.05410959996,14.3473592978,0.0,10.0,0.0,0.0,0.0,10.0,0.0,0.0,0.0,10.0,0.444614743989,0.349539893073,-1.54489974835,1.0,0.0,0.0,0.0,1.0,0.0,0.0,0.0,1.0,-0.941242675781,2.77223510742,9.36332885742,0.1,0.0,0.0,0.0,0.1,0.0,0.0,0.0,0.1
1446041005696038111,4830,1446041005692692995,robocape,9.01856381274,5.77129359471,11.2546623881,0.0,10.0,0.0,0.0,0.0,10.0,0.0,0.0,0.0,10.0,0.164183881203,0.632234442785,-1.74090840458,1.0,0.0,0.0,0.0,1.0,0.0,0.0,0.0,1.0,-0.93884765625,1.60705810547,9.43278442383,0.1,0.0,0.0,0.0,0.1,0.0,0.0,0.0,0.1
1446041005736048236,4831,1446041005732804059,robocape,8.97395856032,7.79343776301,7.64755906092,0.0,10.0,0.0,0.0,0.0,10.0,0.0,0.0,0.0,10.0,0.197340236775,0.750212479075,-2.02080663515,1.0,0.0,0.0,0.0,1.0,0.0,0.0,0.0,1.0,-1.16158447266,0.289797363281,9.43278442383,0.1,0.0,0.0,0.0,0.1,0.0,0.0,0.0,0.1
1446041005771905361,4832,1446041005767735004,robocape,8.89379083246,9.98817078794,3.54292115467,0.0,10.0,0.0,0.0,0.0,10.0,0.0,0.0,0.0,10.0,0.293347194072,0.808668865003,-2.2764700998,1.0,0.0,0.0,0.0,1.0,0.0,0.0,0.0,1.0,-1.41066650391,-1.35917358398,9.83634521484,0.1,0.0,0.0,0.0,0.1,0.0,0.0,0.0,0.1
1446041005806612194,4833,1446041005803119897,robocape,9.32845572112,12.148532261,-0.903970702989,0.0,10.0,0.0,0.0,0.0,10.0,0.0,0.0,0.0,10.0,0.688427141785,0.770985135578,-2.43958871657,1.0,0.0,0.0,0.0,1.0,0.0,0.0,0.0,1.0,-1.64657592773,-1.40827148438,10.3117565918,0.1,0.0,0.0,0.0,0.1,0.0,0.0,0.0,0.1
1446041005840803611,4834,1446041005837687969,robocape,9.68632002718,14.3954653367,-5.6508380033,0.0,10.0,0.0,0.0,0.0,10.0,0.0,0.0,0.0,10.0,0.785765679628,0.79468726928,-2.59924522392,1.0,0.0,0.0,0.0,1.0,0.0,0.0,0.0,1.0,-1.92439819336,-0.0658630371094,10.5141357422,0.1,0.0,0.0,0.0,0.1,0.0,0.0,0.0,0.1
1446041005876148736,4835,1446041005873089075,robocape,9.55051042322,16.7034479045,-10.801599669,0.0,10.0,0.0,0.0,0.0,10.0,0.0,0.0,0.0,10.0,0.696283467001,0.815060451619,-2.8114991628,1.0,0.0,0.0,0.0,1.0,0.0,0.0,0.0,1.0,-1.97828613281,-0.0622705078125,10.1991906738,0.1,0.0,0.0,0.0,0.1,0.0,0.0,0.0,0.1
1446041005911178111,4836,1446041005907799005,robocape,8.63056042095,18.9670753436,-15.9404365988,0.0,10.0,0.0,0.0,0.0,10.0,0.0,0.0,0.0,10.0,0.400672586002,0.850081019953,-2.80337652147,1.0,0.0,0.0,0.0,1.0,0.0,0.0,0.0,1.0,-1.85015258789,0.219144287109,9.98962646484,0.1,0.0,0.0,0.0,0.1,0.0,0.0,0.0,0.1
1446041005946159527,4837,1446041005943085908,robocape,7.28423206296,21.2258100369,-21.0244166745,0.0,10.0,0.0,0.0,0.0,10.0,0.0,0.0,0.0,10.0,0.282295075548,0.944490080597,-2.77940807166,1.0,0.0,0.0,0.0,1.0,0.0,0.0,0.0,1.0,-1.67052612305,-0.732875976563,9.76449462891,0.1,0.0,0.0,0.0,0.1,0.0,0.0,0.0,0.1
1446041005981729986,4838,1446041005978337049,robocape,5.30854712856,23.5223644925,-26.3706189958,0.0,10.0,0.0,0.0,0.0,10.0,0.0,0.0,0.0,10.0,0.118377510454,1.0776481351,-2.91855823862,1.0,0.0,0.0,0.0,1.0,0.0,0.0,0.0,1.0,-2.76984008789,0.322130126953,8.13348632813,0.1,0.0,0.0,0.0,0.1,0.0,0.0,0.0,0.1
1446041006020237028,4839,1446041006016907930,robocape,2.84029650979,25.4930331463,-32.0077619266,0.0,10.0,0.0,0.0,0.0,10.0,0.0,0.0,0.0,10.0,0.0306263525359,1.05754126887,-3.05504524448,1.0,0.0,0.0,0.0,1.0,0.0,0.0,0.0,1.0,-3.61528198242,-3.3302746582,8.76098144531,0.1,0.0,0.0,0.0,0.1,0.0,0.0,0.0,0.1
1446041006059221319,4840,1446041006055360078,robocape,0.0267266903888,26.8108379718,-38.2575422784,0.0,10.0,0.0,0.0,0.0,10.0,0.0,0.0,0.0,10.0,0.0810932551929,0.900814238719,-3.38008405553,1.0,0.0,0.0,0.0,1.0,0.0,0.0,0.0,1.0,-4.47150146484,-1.64657592773,8.32748291016,0.1,0.0,0.0,0.0,0.1,0.0,0.0,0.0,0.1
1446041006102459069,4841,1446041006097244024,robocape,-3.61334290701,27.7076288143,-44.4847349443,0.0,10.0,0.0,0.0,0.0,10.0,0.0,0.0,0.0,10.0,-0.306130367305,0.902545293428,-3.43095043235,1.0,0.0,0.0,0.0,1.0,0.0,0.0,0.0,1.0,-2.55548583984,-2.74229736328,7.71914794922,0.1,0.0,0.0,0.0,0.1,0.0,0.0,0.0,0.1
1446041006137449736,4842,1446041006134377956,robocape,-6.82336428505,28.56889626,-49.9019619096,0.0,10.0,0.0,0.0,0.0,10.0,0.0,0.0,0.0,10.0,-0.249804510249,1.07045760016,-3.09419371251,1.0,0.0,0.0,0.0,1.0,0.0,0.0,0.0,1.0,-3.19136352539,-5.92527832031,8.60051513672,0.1,0.0,0.0,0.0,0.1,0.0,0.0,0.0,0.1
1446041006172872903,4843,1446041006169655084,robocape,-9.20390486762,29.1619461705,-54.6648512583,0.0,10.0,0.0,0.0,0.0,10.0,0.0,0.0,0.0,10.0,0.0438089999318,1.04382598926,-2.83693235121,1.0,0.0,0.0,0.0,1.0,0.0,0.0,0.0,1.0,-3.61767700195,-5.2498828125,8.03648803711,0.1,0.0,0.0,0.0,0.1,0.0,0.0,0.0,0.1
1446041006207853111,4844,1446041006204226016,robocape,-11.2538161825,29.7743925703,-58.797985434,0.0,10.0,0.0,0.0,0.0,10.0,0.0,0.0,0.0,10.0,0.0707069269416,1.10960606818,-2.57088255831,1.0,0.0,0.0,0.0,1.0,0.0,0.0,0.0,1.0,-2.79498779297,-6.744375,8.05564819336,0.1,0.0,0.0,0.0,0.1,0.0,0.0,0.0,0.1
1446041006242837903,4845,1446041006239757061,robocape,-11.4997858104,30.4858384336,-62.1714543932,0.0,10.0,0.0,0.0,0.0,10.0,0.0,0.0,0.0,10.0,0.84968154579,1.14196347543,-2.22680214547,1.0,0.0,0.0,0.0,1.0,0.0,0.0,0.0,1.0,-3.26201660156,-7.04854248047,7.20421875,0.1,0.0,0.0,0.0,0.1,0.0,0.0,0.0,0.1
1446041006287109944,4846,1446041006283895015,robocape,-11.386232745,31.365162101,-65.2117734507,0.0,10.0,0.0,0.0,0.0,10.0,0.0,0.0,0.0,10.0,0.992160664109,1.22571989171,-2.1169467505,1.0,0.0,0.0,0.0,1.0,0.0,0.0,0.0,1.0,-2.46806762695,-4.69304077148,6.79347290039,0.1,0.0,0.0,0.0,0.1,0.0,0.0,0.0,0.1
1446041006322853111,4847,1446041006319750070,robocape,-11.2663959247,32.4626983773,-68.0025282682,0.0,10.0,0.0,0.0,0.0,10.0,0.0,0.0,0.0,10.0,0.976181697569,1.34316529578,-2.04690561383,1.0,0.0,0.0,0.0,1.0,0.0,0.0,0.0,1.0,-2.14354248047,-4.73854614258,6.99465454102,0.1,0.0,0.0,0.0,0.1,0.0,0.0,0.0,0.1
1446041006357239778,4848,1446041006354094028,robocape,-11.3476932798,33.4988548583,-70.627304853,0.0,10.0,0.0,0.0,0.0,10.0,0.0,0.0,0.0,10.0,0.871519466728,1.31799842348,-2.0265324315,1.0,0.0,0.0,0.0,1.0,0.0,0.0,0.0,1.0,-2.7243347168,-4.04039794922,7.11440551758,0.1,0.0,0.0,0.0,0.1,0.0,0.0,0.0,0.1
1446041006396257778,4849,1446041006389786958,robocape,-12.5143360613,34.121724108,-73.5735259734,0.0,10.0,0.0,0.0,0.0,10.0,0.0,0.0,0.0,10.0,0.435559996282,1.19083248143,-2.2987074949,1.0,0.0,0.0,0.0,1.0,0.0,0.0,0.0,1.0,-2.1806652832,-4.42000854492,6.83897827148,0.1,0.0,0.0,0.0,0.1,0.0,0.0,0.0,0.1
1446041006435162736,4850,1446041006431988000,robocape,-14.5934052362,34.3973652187,-76.7458102242,0.0,10.0,0.0,0.0,0.0,10.0,0.0,0.0,0.0,10.0,0.0410126807872,1.12012555449,-2.52214671036,1.0,0.0,0.0,0.0,1.0,0.0,0.0,0.0,1.0,-1.26696533203,-5.67859130859,7.50000366211,0.1,0.0,0.0,0.0,0.1,0.0,0.0,0.0,0.1
1446041006470594819,4851,1446041006466696023,robocape,-16.1984185217,34.6287078395,-79.115997929,0.0,10.0,0.0,0.0,0.0,10.0,0.0,0.0,0.0,10.0,0.0298274042089,0.996288563799,-2.07287143446,1.0,0.0,0.0,0.0,1.0,0.0,0.0,0.0,1.0,-2.53033813477,-5.11935424805,8.1969543457,0.1,0.0,0.0,0.0,0.1,0.0,0.0,0.0,0.1
1446041006510566569,4852,1446041006506122112,robocape,-17.2557253667,35.235148675,-80.1403566955,0.0,10.0,0.0,0.0,0.0,10.0,0.0,0.0,0.0,10.0,-0.130494893414,0.88723211716,-1.1528824359,1.0,0.0,0.0,0.0,1.0,0.0,0.0,0.0,1.0,-1.89565795898,-5.7863671875,7.9670324707,0.1,0.0,0.0,0.0,0.1,0.0,0.0,0.0,0.1
1446041006543346528,4853,1446041006539988040,robocape,-16.5418788689,36.3430517219,-80.1691705088,0.0,10.0,0.0,0.0,0.0,10.0,0.0,0.0,0.0,10.0,0.482964263686,0.9327721718,-0.493084275828,1.0,0.0,0.0,0.0,1.0,0.0,0.0,0.0,1.0,-2.60817626953,-8.39813598633,7.37426513672,0.1,0.0,0.0,0.0,0.1,0.0,0.0,0.0,0.1
1446041006578560528,4854,1446041006574573993,robocape,-14.0121687545,37.6966448301,-79.148747646,0.0,10.0,0.0,0.0,0.0,10.0,0.0,0.0,0.0,10.0,1.09043130833,0.843156801119,0.135954373649,1.0,0.0,0.0,0.0,1.0,0.0,0.0,0.0,1.0,-3.57456665039,-5.75283691406,6.29530883789,0.1,0.0,0.0,0.0,0.1,0.0,0.0,0.0,0.1
1446041006614201194,4855,1446041006611021041,robocape,-10.62491391,39.4078185005,-77.6543733675,0.0,10.0,0.0,0.0,0.0,10.0,0.0,0.0,0.0,10.0,1.39349904038,1.01493069143,0.332628820151,1.0,0.0,0.0,0.0,1.0,0.0,0.0,0.0,1.0,-2.63571899414,-6.23543334961,6.39230712891,0.1,0.0,0.0,0.0,0.1,0.0,0.0,0.0,0.1
1446041006647690653,4856,1446041006644560098,robocape,-7.39660584199,40.9460198386,-76.1885146761,0.0,10.0,0.0,0.0,0.0,10.0,0.0,0.0,0.0,10.0,1.33957002831,1.00148172792,0.197473394829,1.0,0.0,0.0,0.0,1.0,0.0,0.0,0.0,1.0,-4.21403686523,-3.48475341797,7.35869750977,0.1,0.0,0.0,0.0,0.1,0.0,0.0,0.0,0.1
1446041006683574986,4857,1446041006680252075,robocape,-6.07336207699,41.9107757434,-76.015895438,0.0,10.0,0.0,0.0,0.0,10.0,0.0,0.0,0.0,10.0,0.855806816297,0.897085813193,-0.580169643474,1.0,0.0,0.0,0.0,1.0,0.0,0.0,0.0,1.0,-5.82708251953,-3.74940307617,7.65567993164,0.1,0.0,0.0,0.0,0.1,0.0,0.0,0.0,0.1
1446041006718701486,4858,1446041006715564966,robocape,-6.30239807604,42.580545416,-77.0117008065,0.0,10.0,0.0,0.0,0.0,10.0,0.0,0.0,0.0,10.0,0.523843786419,0.895487916539,-1.24502780961,1.0,0.0,0.0,0.0,1.0,0.0,0.0,0.0,1.0,-4.59005493164,-2.98179931641,7.79339355469,0.1,0.0,0.0,0.0,0.1,0.0,0.0,0.0,0.1
1446041006752990195,4859,1446041006749885082,robocape,-6.90714588099,42.9347013787,-78.680605792,0.0,10.0,0.0,0.0,0.0,10.0,0.0,0.0,0.0,10.0,0.629970755858,0.853809445479,-1.68365044115,1.0,0.0,0.0,0.0,1.0,0.0,0.0,0.0,1.0,-4.90020996094,-6.06179443359,8.39693847656,0.1,0.0,0.0,0.0,0.1,0.0,0.0,0.0,0.1
1446041006791813736,4860,1446041006788503885,robocape,-6.28162315965,42.7402718512,-80.3302740888,0.0,10.0,0.0,0.0,0.0,10.0,0.0,0.0,0.0,10.0,1.31946316208,0.616255476244,-1.81707481176,1.0,0.0,0.0,0.0,1.0,0.0,0.0,0.0,1.0,-5.9049206543,-4.95529541016,8.6220703125,0.1,0.0,0.0,0.0,0.1,0.0,0.0,0.0,0.1
1446041006829746820,4861,1446041006826591014,robocape,-5.71518316764,42.0378980932,-82.1572020245,0.0,10.0,0.0,0.0,0.0,10.0,0.0,0.0,0.0,10.0,1.3761884933,0.353401476654,-1.98685133125,1.0,0.0,0.0,0.0,1.0,0.0,0.0,0.0,1.0,-4.59005493164,-2.9853918457,8.63284790039,0.1,0.0,0.0,0.0,0.1,0.0,0.0,0.0,0.1
1446041006865438445,4862,1446041006862220048,robocape,-5.13027723529,41.3649318568,-83.9234254789,0.0,10.0,0.0,0.0,0.0,10.0,0.0,0.0,0.0,10.0,1.38337902824,0.364054121014,-2.04903614271,1.0,0.0,0.0,0.0,1.0,0.0,0.0,0.0,1.0,-3.58534423828,-3.11592041016,8.3885559082,0.1,0.0,0.0,0.0,0.1,0.0,0.0,0.0,0.1
1446041006905857945,4863,1446041006900674104,robocape,-5.4042207875,40.7123722831,-85.8163048792,0.0,10.0,0.0,0.0,0.0,10.0,0.0,0.0,0.0,10.0,0.972186955933,0.361790434087,-2.14837205137,1.0,0.0,0.0,0.0,1.0,0.0,0.0,0.0,1.0,-3.80329101563,-3.38176757813,8.37777832031,0.1,0.0,0.0,0.0,0.1,0.0,0.0,0.0,0.1
1446041006940200195,4864,1446041006936954021,robocape,-6.39252580764,39.7696713818,-87.9545021511,0.0,10.0,0.0,0.0,0.0,10.0,0.0,0.0,0.0,10.0,0.673380281627,0.230363434292,-2.34038596596,1.0,0.0,0.0,0.0,1.0,0.0,0.0,0.0,1.0,-3.45002563477,-4.31462768555,8.24365722656,0.1,0.0,0.0,0.0,0.1,0.0,0.0,0.0,0.1
1446041006975741695,4865,1446041006972153902,robocape,-7.39941004099,38.6630282805,-90.0921676611,0.0,10.0,0.0,0.0,0.0,10.0,0.0,0.0,0.0,10.0,0.652341309015,0.178032318872,-2.46036137307,1.0,0.0,0.0,0.0,1.0,0.0,0.0,0.0,1.0,-3.21890625,-4.04518798828,8.95258300781,0.1,0.0,0.0,0.0,0.1,0.0,0.0,0.0,0.1
1446041007011705778,4866,1446041007008299112,robocape,-8.12589573214,37.4264489676,-91.8853262143,0.0,10.0,0.0,0.0,0.0,10.0,0.0,0.0,0.0,10.0,0.636894974692,0.0727042977592,-2.32134436417,1.0,0.0,0.0,0.0,1.0,0.0,0.0,0.0,1.0,-2.93270141602,-4.27031982422,8.69032836914,0.1,0.0,0.0,0.0,0.1,0.0,0.0,0.0,0.1
1446041007046546361,4867,1446041007043392896,robocape,-8.09382024239,36.0196315133,-93.3027987058,0.0,10.0,0.0,0.0,0.0,10.0,0.0,0.0,0.0,10.0,0.879375791944,-0.0599211245268,-2.1833926197,1.0,0.0,0.0,0.0,1.0,0.0,0.0,0.0,1.0,-2.94347900391,-4.64274536133,9.53217773438,0.1,0.0,0.0,0.0,0.1,0.0,0.0,0.0,0.1
1446041007081182861,4868,1446041007078111886,robocape,-7.40760158846,34.38963394,-94.1463828116,0.0,10.0,0.0,0.0,0.0,10.0,0.0,0.0,0.0,10.0,0.972719588151,-0.309193002558,-1.79137530724,1.0,0.0,0.0,0.0,1.0,0.0,0.0,0.0,1.0,-2.58901611328,-4.00447265625,9.72497680664,0.1,0.0,0.0,0.0,0.1,0.0,0.0,0.0,0.1
1446041007116998903,4869,1446041007113452911,robocape,-5.72737062299,32.9859425872,-94.3528345011,0.0,10.0,0.0,0.0,0.0,10.0,0.0,0.0,0.0,10.0,1.25381624121,-0.314386166684,-1.34343161189,1.0,0.0,0.0,0.0,1.0,0.0,0.0,0.0,1.0,-1.6058605957,-4.99840576172,8.84959716797,0.1,0.0,0.0,0.0,0.1,0.0,0.0,0.0,0.1
1446041007150598403,4870,1446041007147480010,robocape,-2.65302042713,32.0245734986,-94.0086306582,0.0,10.0,0.0,0.0,0.0,10.0,0.0,0.0,0.0,10.0,1.82706166585,-0.15020228548,-1.01506384948,1.0,0.0,0.0,0.0,1.0,0.0,0.0,0.0,1.0,-1.16397949219,-3.54822143555,9.15975219727,0.1,0.0,0.0,0.0,0.1,0.0,0.0,0.0,0.1
1446041007187252320,4871,1446041007184056997,robocape,0.726273032225,31.9148218679,-93.3222922008,0.0,10.0,0.0,0.0,0.0,10.0,0.0,0.0,0.0,10.0,1.91521229793,0.272707695624,-0.840626798084,1.0,0.0,0.0,0.0,1.0,0.0,0.0,0.0,1.0,-0.132923583984,0.486188964844,9.76569213867,0.1,0.0,0.0,0.0,0.1,0.0,0.0,0.0,0.1
1446041007224748736,4872,1446041007221551895,robocape,2.64632363749,32.265416752,-92.8334096611,0.0,10.0,0.0,0.0,0.0,10.0,0.0,0.0,0.0,10.0,1.2210593598,0.496546385245,-0.937565861762,1.0,0.0,0.0,0.0,1.0,0.0,0.0,0.0,1.0,-1.16397949219,2.20820800781,9.14897460938,0.1,0.0,0.0,0.0,0.1,0.0,0.0,0.0,0.1
