%time,field.header.seq,field.header.stamp,field.header.frame_id,field.orientation.x,field.orientation.y,field.orientation.z,field.orientation.w,field.orientation_covariance0,field.orientation_covariance1,field.orientation_covariance2,field.orientation_covariance3,field.orientation_covariance4,field.orientation_covariance5,field.orientation_covariance6,field.orientation_covariance7,field.orientation_covariance8,field.angular_velocity.x,field.angular_velocity.y,field.angular_velocity.z,field.angular_velocity_covariance0,field.angular_velocity_covariance1,field.angular_velocity_covariance2,field.angular_velocity_covariance3,field.angular_velocity_covariance4,field.angular_velocity_covariance5,field.angular_velocity_covariance6,field.angular_velocity_covariance7,field.angular_velocity_covariance8,field.linear_acceleration.x,field.linear_acceleration.y,field.linear_acceleration.z,field.linear_acceleration_covariance0,field.linear_acceleration_covariance1,field.linear_acceleration_covariance2,field.linear_acceleration_covariance3,field.linear_acceleration_covariance4,field.linear_acceleration_covariance5,field.linear_acceleration_covariance6,field.linear_acceleration_covariance7,field.linear_acceleration_covariance8
1446040796493998928,2293,1446040796410584926,robocape,-20.5939435992,17.2223015685,4.06853921619,0.0,10.0,0.0,0.0,0.0,10.0,0.0,0.0,0.0,10.0,4.36318997193,0.168711255057,-0.0643153403254,1.0,0.0,0.0,0.0,1.0,0.0,0.0,0.0,1.0,3.2991394043,-4.00327514648,8.05205566406,0.1,0.0,0.0,0.0,0.1,0.0,0.0,0.0,0.1
1446040796543165719,2294,1446040796455596923,robocape,-13.1083698347,19.3924716663,5.02837080537,0.0,10.0,0.0,0.0,0.0,10.0,0.0,0.0,0.0,10.0,3.81271457461,0.89136001685,0.759400384836,1.0,0.0,0.0,0.0,1.0,0.0,0.0,0.0,1.0,10.7189099121,4.28708496094,6.70485717773,0.1,0.0,0.0,0.0,0.1,0.0,0.0,0.0,0.1
1446040796543302178,2295,1446040796496705055,robocape,-5.21696243739,19.5892566329,7.50008729342,0.0,10.0,0.0,0.0,0.0,10.0,0.0,0.0,0.0,10.0,3.7205692009,-0.135554899485,1.20148512579,1.0,0.0,0.0,0.0,1.0,0.0,0.0,0.0,1.0,1.96870605469,5.93126586914,-0.352067871094,0.1,0.0,0.0,0.0,0.1,0.0,0.0,0.0,0.1
1446040796543337261,2296,1446040796532996892,robocape,0.164815674086,22.3746478017,10.3150838467,0.0,10.0,0.0,0.0,0.0,10.0,0.0,0.0,0.0,10.0,2.28472589918,1.46207543845,1.47339387309,1.0,0.0,0.0,0.0,1.0,0.0,0.0,0.0,1.0,1.37114868164,7.38264770508,9.98244140625,0.1,0.0,0.0,0.0,0.1,0.0,0.0,0.0,0.1
1446040796588333553,2297,1446040796585088968,robocape,-0.255952840681,23.1919445136,11.4657564729,0.0,10.0,0.0,0.0,0.0,10.0,0.0,0.0,0.0,10.0,-0.460194236366,0.483496895904,0.582965962618,1.0,0.0,0.0,0.0,1.0,0.0,0.0,0.0,1.0,-2.90755371094,6.73120239258,13.2193103027,0.1,0.0,0.0,0.0,0.1,0.0,0.0,0.0,0.1
1446040796620552303,2298,1446040796617434024,robocape,-1.6011528921,23.3850366774,12.2430668422,0.0,10.0,0.0,0.0,0.0,10.0,0.0,0.0,0.0,10.0,-0.873250521437,0.139017008902,0.398275741021,1.0,0.0,0.0,0.0,1.0,0.0,0.0,0.0,1.0,-2.76984008789,3.95537475586,8.59931762695,0.1,0.0,0.0,0.0,0.1,0.0,0.0,0.0,0.1
1446040796658167594,2299,1446040796654599905,robocape,-4.35220257314,23.2930524361,12.8286494182,0.0,10.0,0.0,0.0,0.0,10.0,0.0,0.0,0.0,10.0,-1.57552610089,-0.0191747598486,0.303200890106,1.0,0.0,0.0,0.0,1.0,0.0,0.0,0.0,1.0,1.62502075195,3.96974487305,7.20541625977,0.1,0.0,0.0,0.0,0.1,0.0,0.0,0.0,0.1
1446040796691503553,2300,1446040796688445091,robocape,-7.99470819803,23.300629911,12.5948178033,0.0,10.0,0.0,0.0,0.0,10.0,0.0,0.0,0.0,10.0,-1.88205594236,0.065780078925,-0.0822916776834,1.0,0.0,0.0,0.0,1.0,0.0,0.0,0.0,1.0,-7.33115478516,1.02506835938,9.92615844727,0.1,0.0,0.0,0.0,0.1,0.0,0.0,0.0,0.1
1446040796727506261,2301,1446040796724337100,robocape,-10.7794166193,23.0271257085,11.6783063468,0.0,10.0,0.0,0.0,0.0,10.0,0.0,0.0,0.0,10.0,-1.29149997063,-0.0311589847539,-0.4360926285,1.0,0.0,0.0,0.0,1.0,0.0,0.0,0.0,1.0,-6.49050292969,1.84656005859,8.5418371582,0.1,0.0,0.0,0.0,0.1,0.0,0.0,0.0,0.1
1446040796758918136,2302,1446040796755939006,robocape,-13.1355892496,22.9094083351,11.0242960382,0.0,10.0,0.0,0.0,0.0,10.0,0.0,0.0,0.0,10.0,-1.13197662134,0.051265850984,-0.293613510181,1.0,0.0,0.0,0.0,1.0,0.0,0.0,0.0,1.0,-7.31079711914,1.17475708008,11.5559692383,0.1,0.0,0.0,0.0,0.1,0.0,0.0,0.0,0.1
1446040796788712761,2303,1446040796785643100,robocape,-15.0874379304,22.81486807,10.325997926,0.0,10.0,0.0,0.0,0.0,10.0,0.0,0.0,0.0,10.0,-0.915461624715,0.0797616746479,-0.311723005594,1.0,0.0,0.0,0.0,1.0,0.0,0.0,0.0,1.0,-4.3266027832,-1.05740112305,7.76465332031,0.1,0.0,0.0,0.0,0.1,0.0,0.0,0.0,0.1
1446040796823988553,2304,1446040796820875883,robocape,-15.1173692279,22.1252010971,9.45393198353,0.0,10.0,0.0,0.0,0.0,10.0,0.0,0.0,0.0,10.0,0.154862817388,-0.233692385654,-0.498543756063,1.0,0.0,0.0,0.0,1.0,0.0,0.0,0.0,1.0,-4.56131469727,-1.95313842773,8.02571044922,0.1,0.0,0.0,0.0,0.1,0.0,0.0,0.0,0.1
1446040796854543886,2305,1446040796851291894,robocape,-13.0033550706,22.2611212443,8.26399721031,0.0,10.0,0.0,0.0,0.0,10.0,0.0,0.0,0.0,10.0,1.35128793711,0.196141814284,-0.549410132883,1.0,0.0,0.0,0.0,1.0,0.0,0.0,0.0,1.0,-3.72425537109,-3.35781738281,11.358380127,0.1,0.0,0.0,0.0,0.1,0.0,0.0,0.0,0.1
1446040796887832928,2306,1446040796884794950,robocape,-8.19240738614,21.9143100678,8.02777060056,0.0,10.0,0.0,0.0,0.0,10.0,0.0,0.0,0.0,10.0,2.58659520874,-0.200003397865,-0.167246516457,1.0,0.0,0.0,0.0,1.0,0.0,0.0,0.0,1.0,-4.64394287109,-0.197589111328,9.26034301758,0.1,0.0,0.0,0.0,0.1,0.0,0.0,0.0,0.1
1446040796918306803,2307,1446040796915230989,robocape,-0.919582426696,22.5642185209,8.81029472528,0.0,10.0,0.0,0.0,0.0,10.0,0.0,0.0,0.0,10.0,3.65958281193,0.292947719909,0.398009424912,1.0,0.0,0.0,0.0,1.0,0.0,0.0,0.0,1.0,-8.43046875,2.46687011719,5.85462524414,0.1,0.0,0.0,0.0,0.1,0.0,0.0,0.0,0.1
1446040796947935386,2308,1446040796944762945,robocape,6.03459869749,22.6091642399,10.2938739534,0.0,10.0,0.0,0.0,0.0,10.0,0.0,0.0,0.0,10.0,3.35012349327,0.0792290424299,0.727309293701,1.0,0.0,0.0,0.0,1.0,0.0,0.0,0.0,1.0,-1.05620361328,2.75307495117,6.17196533203,0.1,0.0,0.0,0.0,0.1,0.0,0.0,0.0,0.1
1446040796983919386,2309,1446040796980602025,robocape,12.6178677844,21.8938861375,12.112362703,0.0,10.0,0.0,0.0,0.0,10.0,0.0,0.0,0.0,10.0,3.11217004987,-0.173371786964,0.95700693772,1.0,0.0,0.0,0.0,1.0,0.0,0.0,0.0,1.0,-5.72170166016,7.60777954102,4.6020300293,0.1,0.0,0.0,0.0,0.1,0.0,0.0,0.0,0.1
1446040797018011136,2310,1446040797014905929,robocape,16.4287937925,21.6764031875,14.2917605431,0.0,10.0,0.0,0.0,0.0,10.0,0.0,0.0,0.0,10.0,1.61906878471,0.239285023944,1.09602394662,1.0,0.0,0.0,0.0,1.0,0.0,0.0,0.0,1.0,-1.97110107422,4.84033447266,9.72018676758,0.1,0.0,0.0,0.0,0.1,0.0,0.0,0.0,0.1
1446040797051330803,2311,1446040797048161983,robocape,18.9628119323,20.8013922965,16.3547272267,0.0,10.0,0.0,0.0,0.0,10.0,0.0,0.0,0.0,10.0,0.982040651967,-0.0595216503633,1.13836820795,1.0,0.0,0.0,0.0,1.0,0.0,0.0,0.0,1.0,-7.30840209961,6.84975585938,11.0542126465,0.1,0.0,0.0,0.0,0.1,0.0,0.0,0.0,0.1
1446040797086362595,2312,1446040797083050966,robocape,18.9845258294,21.3085024146,18.3000157126,0.0,10.0,0.0,0.0,0.0,10.0,0.0,0.0,0.0,10.0,-0.312255637812,0.628372859204,0.852477864934,1.0,0.0,0.0,0.0,1.0,0.0,0.0,0.0,1.0,-6.49050292969,4.32301025391,12.3822509766,0.1,0.0,0.0,0.0,0.1,0.0,0.0,0.0,0.1
1446040797119262345,2313,1446040797116082906,robocape,18.6413662542,21.164117526,19.2286766185,0.0,10.0,0.0,0.0,0.0,10.0,0.0,0.0,0.0,10.0,-0.331164081551,0.1153148752,0.47923583816,1.0,0.0,0.0,0.0,1.0,0.0,0.0,0.0,1.0,-9.65073120117,4.19008666992,9.0016809082,0.1,0.0,0.0,0.0,0.1,0.0,0.0,0.0,0.1
1446040797152923011,2314,1446040797149420022,robocape,18.1364696405,22.2623915888,20.5254859965,0.0,10.0,0.0,0.0,0.0,10.0,0.0,0.0,0.0,10.0,-0.476972151233,0.815593083837,0.462724239401,1.0,0.0,0.0,0.0,1.0,0.0,0.0,0.0,1.0,-7.43174560547,-1.16397949219,14.2228234863,0.1,0.0,0.0,0.0,0.1,0.0,0.0,0.0,0.1
1446040797187119428,2315,1446040797183455944,robocape,17.3946191236,22.7570436525,22.026603283,0.0,10.0,0.0,0.0,0.0,10.0,0.0,0.0,0.0,10.0,-0.657933947304,0.533564324397,0.657268157032,1.0,0.0,0.0,0.0,1.0,0.0,0.0,0.0,1.0,-6.06658447266,10.2482885742,7.45090576172,0.1,0.0,0.0,0.0,0.1,0.0,0.0,0.0,0.1
1446040797221283470,2316,1446040797217981100,robocape,13.076075631,22.974006861,23.1505272048,0.0,10.0,0.0,0.0,0.0,10.0,0.0,0.0,0.0,10.0,-2.48912351284,0.259391890174,0.498943230226,1.0,0.0,0.0,0.0,1.0,0.0,0.0,0.0,1.0,-6.55397094727,8.89869506836,11.9259997559,0.1,0.0,0.0,0.0,0.1,0.0,0.0,0.0,0.1
1446040797253213220,2317,1446040797249644041,robocape,7.77465698137,23.4735690255,23.7731766069,0.0,10.0,0.0,0.0,0.0,10.0,0.0,0.0,0.0,10.0,-2.904842959,0.329033552679,0.261389260991,1.0,0.0,0.0,0.0,1.0,0.0,0.0,0.0,1.0,-3.66797241211,5.74565185547,5.53489013672,0.1,0.0,0.0,0.0,0.1,0.0,0.0,0.0,0.1
1446040797290886011,2318,1446040797287503957,robocape,1.57540001932,23.606650004,22.7693500828,0.0,10.0,0.0,0.0,0.0,10.0,0.0,0.0,0.0,10.0,-3.03879996183,0.031957933081,-0.485094792558,1.0,0.0,0.0,0.0,1.0,0.0,0.0,0.0,1.0,-1.6896862793,-0.009580078125,12.4816442871,0.1,0.0,0.0,0.0,0.1,0.0,0.0,0.0,0.1
1446040797325251136,2319,1446040797321882963,robocape,-2.27642430381,23.6537825742,21.1722679786,0.0,10.0,0.0,0.0,0.0,10.0,0.0,0.0,0.0,10.0,-1.68591412807,0.0439421579863,-0.753541430438,1.0,0.0,0.0,0.0,1.0,0.0,0.0,0.0,1.0,-1.1076965332,-0.209564208984,6.61504394531,0.1,0.0,0.0,0.0,0.1,0.0,0.0,0.0,0.1
1446040797357625886,2320,1446040797354187011,robocape,-5.16609463017,23.1609225916,20.0641089934,0.0,10.0,0.0,0.0,0.0,10.0,0.0,0.0,0.0,10.0,-1.28990207398,-0.204930245882,-0.531966427743,1.0,0.0,0.0,0.0,1.0,0.0,0.0,0.0,1.0,-0.740061035156,-1.13883178711,11.1452233887,0.1,0.0,0.0,0.0,0.1,0.0,0.0,0.0,0.1
1446040797393314136,2321,1446040797389939069,robocape,-7.80356278147,23.1495099772,19.4392574801,0.0,10.0,0.0,0.0,0.0,10.0,0.0,0.0,0.0,10.0,-1.27445573966,0.0704406108326,-0.260723470719,1.0,0.0,0.0,0.0,1.0,0.0,0.0,0.0,1.0,-0.171243896484,-0.167651367188,10.4374951172,0.1,0.0,0.0,0.0,0.1,0.0,0.0,0.0,0.1
1446040797427096970,2322,1446040797424022912,robocape,-9.11085833589,22.8771942949,18.5348606279,0.0,10.0,0.0,0.0,0.0,10.0,0.0,0.0,0.0,10.0,-0.512525351786,-0.0543284862376,-0.431165780484,1.0,0.0,0.0,0.0,1.0,0.0,0.0,0.0,1.0,-0.531694335938,0.446671142578,10.8087231445,0.1,0.0,0.0,0.0,0.1,0.0,0.0,0.0,0.1
1446040797461879970,2323,1446040797458761930,robocape,-8.30368077768,22.784373662,18.0385150249,0.0,10.0,0.0,0.0,0.0,10.0,0.0,0.0,0.0,10.0,0.517452199802,-0.000798948327024,-0.233958701763,1.0,0.0,0.0,0.0,1.0,0.0,0.0,0.0,1.0,-6.55756347656,7.00064208984,6.43302246094,0.1,0.0,0.0,0.0,0.1,0.0,0.0,0.0,0.1
1446040797494215136,2324,1446040797490765094,robocape,-9.52366464832,22.6400361871,18.0510195913,0.0,10.0,0.0,0.0,0.0,10.0,0.0,0.0,0.0,10.0,-0.66579027252,-0.0355532005526,0.0310258266994,1.0,0.0,0.0,0.0,1.0,0.0,0.0,0.0,1.0,-6.59588378906,5.11935424805,8.72026611328,0.1,0.0,0.0,0.0,0.1,0.0,0.0,0.0,0.1
1446040797527122303,2325,1446040797523849010,robocape,-12.6055195022,22.2781651094,17.9895587156,0.0,10.0,0.0,0.0,0.0,10.0,0.0,0.0,0.0,10.0,-1.64463513118,-0.124635939016,-0.0127831732324,1.0,0.0,0.0,0.0,1.0,0.0,0.0,0.0,1.0,-4.38288574219,1.42024658203,10.9667944336,0.1,0.0,0.0,0.0,0.1,0.0,0.0,0.0,0.1
1446040797560272886,2326,1446040797557080984,robocape,-17.2749778763,21.9513332935,17.3674795212,0.0,10.0,0.0,0.0,0.0,10.0,0.0,0.0,0.0,10.0,-2.39990761632,-0.0121173829599,-0.261921893209,1.0,0.0,0.0,0.0,1.0,0.0,0.0,0.0,1.0,-2.68960693359,2.50758544922,6.66294433594,0.1,0.0,0.0,0.0,0.1,0.0,0.0,0.0,0.1
1446040797594852178,2327,1446040797590759038,robocape,-22.5410728924,20.9571601838,16.3346276201,0.0,10.0,0.0,0.0,0.0,10.0,0.0,0.0,0.0,10.0,-2.66755530588,-0.239684498107,-0.569650157168,1.0,0.0,0.0,0.0,1.0,0.0,0.0,0.0,1.0,-0.568817138672,3.96375732422,5.92887084961,0.1,0.0,0.0,0.0,0.1,0.0,0.0,0.0,0.1
1446040797623999511,2328,1446040797620956897,robocape,-26.9509596743,20.2545833112,14.1585735463,0.0,10.0,0.0,0.0,0.0,10.0,0.0,0.0,0.0,10.0,-2.02227137375,0.182293376616,-1.05181547253,1.0,0.0,0.0,0.0,1.0,0.0,0.0,0.0,1.0,-3.5601965332,-1.7974621582,10.9117089844,0.1,0.0,0.0,0.0,0.1,0.0,0.0,0.0,0.1
1446040797657968553,2329,1446040797654614925,robocape,-27.9919149115,19.6653748326,11.2135066855,0.0,10.0,0.0,0.0,0.0,10.0,0.0,0.0,0.0,10.0,-0.0249005561922,0.398808373239,-1.4250574993,1.0,0.0,0.0,0.0,1.0,0.0,0.0,0.0,1.0,-2.21778808594,-7.10841796875,14.7629003906,0.1,0.0,0.0,0.0,0.1,0.0,0.0,0.0,0.1
1446040797687105553,2330,1446040797684005022,robocape,-24.6879956261,19.6947561112,8.64087881544,0.0,10.0,0.0,0.0,0.0,10.0,0.0,0.0,0.0,10.0,2.29058485358,0.504003236297,-1.18723721396,1.0,0.0,0.0,0.0,1.0,0.0,0.0,0.0,1.0,-6.974296875,0.347277832031,10.4362976074,0.1,0.0,0.0,0.0,0.1,0.0,0.0,0.0,0.1
1446040797718419595,2331,1446040797715267896,robocape,-19.2390993012,20.2315845422,7.30579442307,0.0,10.0,0.0,0.0,0.0,10.0,0.0,0.0,0.0,10.0,3.18820329899,0.421178926396,-0.559530145026,1.0,0.0,0.0,0.0,1.0,0.0,0.0,0.0,1.0,-8.13827636719,1.21427490234,8.49752929688,0.1,0.0,0.0,0.0,0.1,0.0,0.0,0.0,0.1
1446040797750058053,2332,1446040797746843099,robocape,-14.6151121659,20.8671885796,8.24441438076,0.0,10.0,0.0,0.0,0.0,10.0,0.0,0.0,0.0,10.0,2.27447272898,0.154995975443,0.519715886729,1.0,0.0,0.0,0.0,1.0,0.0,0.0,0.0,1.0,-7.24852661133,3.5218762207,7.38624023438,0.1,0.0,0.0,0.0,0.1,0.0,0.0,0.0,0.1
1446040797779976595,2333,1446040797776837110,robocape,-12.938629329,20.9564231973,9.80439840616,0.0,10.0,0.0,0.0,0.0,10.0,0.0,0.0,0.0,10.0,0.572047002149,-0.117711720182,0.763927758689,1.0,0.0,0.0,0.0,1.0,0.0,0.0,0.0,1.0,-0.597557373047,5.77918212891,7.09404785156,0.1,0.0,0.0,0.0,0.1,0.0,0.0,0.0,0.1
1446040797808372720,2334,1446040797805268049,robocape,-13.8166903619,20.2905962803,10.6267631356,0.0,10.0,0.0,0.0,0.0,10.0,0.0,0.0,0.0,10.0,-0.636362342474,-0.402403640711,0.33143039766,1.0,0.0,0.0,0.0,1.0,0.0,0.0,0.0,1.0,-6.06299194336,3.76497070313,9.02203857422,0.1,0.0,0.0,0.0,0.1,0.0,0.0,0.0,0.1
1446040797837001470,2335,1446040797833637952,robocape,-14.9158132934,20.5273628312,10.20616604,0.0,10.0,0.0,0.0,0.0,10.0,0.0,0.0,0.0,10.0,-0.531167479416,0.209191303626,-0.144343331082,1.0,0.0,0.0,0.0,1.0,0.0,0.0,0.0,1.0,-3.69671264648,1.60346557617,10.3117565918,0.1,0.0,0.0,0.0,0.1,0.0,0.0,0.0,0.1
1446040797867482387,2336,1446040797864181995,robocape,-13.6505902629,20.1623867753,9.04705666542,0.0,10.0,0.0,0.0,0.0,10.0,0.0,0.0,0.0,10.0,0.881240004707,-0.0545948023466,-0.604670725502,1.0,0.0,0.0,0.0,1.0,0.0,0.0,0.0,1.0,-9.08311157227,1.01548828125,5.9815612793,0.1,0.0,0.0,0.0,0.1,0.0,0.0,0.0,0.1
1446040797902796262,2337,1446040797899710893,robocape,-8.66353003477,20.9370419055,8.07902964413,0.0,10.0,0.0,0.0,0.0,10.0,0.0,0.0,0.0,10.0,2.80777073727,0.456732126949,-0.405466275965,1.0,0.0,0.0,0.0,1.0,0.0,0.0,0.0,1.0,-8.05564819336,0.0359252929688,7.92990966797,0.1,0.0,0.0,0.0,0.1,0.0,0.0,0.0,0.1
1446040797934506970,2338,1446040797931382894,robocape,-3.73605613336,19.9219858529,8.05868088705,0.0,10.0,0.0,0.0,0.0,10.0,0.0,0.0,0.0,10.0,2.59445153396,-0.561793831952,-0.084022732392,1.0,0.0,0.0,0.0,1.0,0.0,0.0,0.0,1.0,3.11592041016,-1.98786621094,10.8841662598,0.1,0.0,0.0,0.0,0.1,0.0,0.0,0.0,0.1
1446040797967668678,2339,1446040797964581012,robocape,1.67621541443,20.3816824001,9.07763374222,0.0,10.0,0.0,0.0,0.0,10.0,0.0,0.0,0.0,10.0,2.65170949739,0.246076084723,0.512392193731,1.0,0.0,0.0,0.0,1.0,0.0,0.0,0.0,1.0,1.55796020508,8.49752929688,7.280859375,0.1,0.0,0.0,0.0,0.1,0.0,0.0,0.0,0.1
1446040798003039387,2340,1446040797999948024,robocape,3.60570452664,20.0723812473,11.2119704837,0.0,10.0,0.0,0.0,0.0,10.0,0.0,0.0,0.0,10.0,0.625842856169,-0.0808269390839,1.07232181292,1.0,0.0,0.0,0.0,1.0,0.0,0.0,0.0,1.0,-1.80344970703,10.1860180664,6.0126965332,0.1,0.0,0.0,0.0,0.1,0.0,0.0,0.0,0.1
1446040798034032803,2341,1446040798030796051,robocape,1.60490296947,20.7244433656,13.301387147,0.0,10.0,0.0,0.0,0.0,10.0,0.0,0.0,0.0,10.0,-1.43184856008,0.437690525155,1.03849966708,1.0,0.0,0.0,0.0,1.0,0.0,0.0,0.0,1.0,2.45848754883,5.57201293945,7.77782592773,0.1,0.0,0.0,0.0,0.1,0.0,0.0,0.0,0.1
1446040798072234553,2342,1446040798068651914,robocape,-3.6475097347,20.6807849148,12.7963992662,0.0,10.0,0.0,0.0,0.0,10.0,0.0,0.0,0.0,10.0,-2.66449267062,0.0031957933081,-0.235023966199,1.0,0.0,0.0,0.0,1.0,0.0,0.0,0.0,1.0,0.208366699219,-0.256267089844,8.76098144531,0.1,0.0,0.0,0.0,0.1,0.0,0.0,0.0,0.1
1446040798107510845,2343,1446040798103816986,robocape,-7.96164459849,20.7400870825,11.2481603699,0.0,10.0,0.0,0.0,0.0,10.0,0.0,0.0,0.0,10.0,-1.98698448931,0.137552270303,-0.734233512535,1.0,0.0,0.0,0.0,1.0,0.0,0.0,0.0,1.0,7.09165283203,-1.72561157227,13.6635864258,0.1,0.0,0.0,0.0,0.1,0.0,0.0,0.0,0.1
1446040798141240262,2344,1446040798137890100,robocape,-10.7077698607,19.5580854182,9.91392951133,0.0,10.0,0.0,0.0,0.0,10.0,0.0,0.0,0.0,10.0,-1.20454776104,-0.493217433883,-0.741157731369,1.0,0.0,0.0,0.0,1.0,0.0,0.0,0.0,1.0,-7.21499633789,1.74477172852,5.07504638672,0.1,0.0,0.0,0.0,0.1,0.0,0.0,0.0,0.1
1446040798174291512,2345,1446040798171128988,robocape,-12.7856043768,18.5594514756,8.73914220717,0.0,10.0,0.0,0.0,0.0,10.0,0.0,0.0,0.0,10.0,-0.898816867902,-0.378701507009,-0.667121853065,1.0,0.0,0.0,0.0,1.0,0.0,0.0,0.0,1.0,-4.25115966797,-0.585582275391,12.7858117676,0.1,0.0,0.0,0.0,0.1,0.0,0.0,0.0,0.1
1446040798207430720,2346,1446040798204138040,robocape,-14.7284538488,18.8388939256,8.09440697826,0.0,10.0,0.0,0.0,0.0,10.0,0.0,0.0,0.0,10.0,-0.944490080597,0.258326625738,-0.253000303558,1.0,0.0,0.0,0.0,1.0,0.0,0.0,0.0,1.0,-0.8813671875,2.54949829102,12.5678649902,0.1,0.0,0.0,0.0,0.1,0.0,0.0,0.0,0.1
1446040798240663387,2347,1446040798237381935,robocape,-17.3449324292,19.0573241509,7.58082263271,0.0,10.0,0.0,0.0,0.0,10.0,0.0,0.0,0.0,10.0,-1.33597476084,0.232493963164,-0.18389127327,1.0,0.0,0.0,0.0,1.0,0.0,0.0,0.0,1.0,-7.33474731445,2.27167602539,7.92990966797,0.1,0.0,0.0,0.0,0.1,0.0,0.0,0.0,0.1
1446040798275272053,2348,1446040798272063016,robocape,-21.3563740868,18.5371981637,6.83981486036,0.0,10.0,0.0,0.0,0.0,10.0,0.0,0.0,0.0,10.0,-2.05622667765,-0.0719053494321,-0.402536798765,1.0,0.0,0.0,0.0,1.0,0.0,0.0,0.0,1.0,-1.49329467773,0.202379150391,8.70469848633,0.1,0.0,0.0,0.0,0.1,0.0,0.0,0.0,0.1
1446040798307317845,2349,1446040798304090023,robocape,-25.3706829996,18.2398641411,5.15008158977,0.0,10.0,0.0,0.0,0.0,10.0,0.0,0.0,0.0,10.0,-1.93132442253,0.263386631809,-0.796684640097,1.0,0.0,0.0,0.0,1.0,0.0,0.0,0.0,1.0,-2.26928100586,-3.27399169922,9.69264404297,0.1,0.0,0.0,0.0,0.1,0.0,0.0,0.0,0.1
1446040798335797428,2350,1446040798332443952,robocape,-28.1932157597,17.5478247906,2.69449529181,0.0,10.0,0.0,0.0,0.0,10.0,0.0,0.0,0.0,10.0,-1.17085877325,0.282161917494,-1.23477463942,1.0,0.0,0.0,0.0,1.0,0.0,0.0,0.0,1.0,-0.844244384766,-7.07009765625,14.750925293,0.1,0.0,0.0,0.0,0.1,0.0,0.0,0.0,0.1
1446040798371837179,2351,1446040798368262052,robocape,-25.7636393951,17.9463424537,-0.165456670518,0.0,10.0,0.0,0.0,0.0,10.0,0.0,0.0,0.0,10.0,1.77805950179,0.798282536751,-1.18630510758,1.0,0.0,0.0,0.0,1.0,0.0,0.0,0.0,1.0,-9.63037353516,-4.45952636719,15.231126709,0.1,0.0,0.0,0.0,0.1,0.0,0.0,0.0,0.1
1446040798408850220,2352,1446040798405586957,robocape,-19.0905236917,18.5000845826,-1.00585859943,0.0,10.0,0.0,0.0,0.0,10.0,0.0,0.0,0.0,10.0,3.73748027382,0.328367762407,-0.294412458508,1.0,0.0,0.0,0.0,1.0,0.0,0.0,0.0,1.0,-9.48906738281,-4.47868652344,15.4790112305,0.1,0.0,0.0,0.0,0.1,0.0,0.0,0.0,0.1
1446040798437447595,2353,1446040798433242082,robocape,-12.5595685721,18.5757687356,-0.339880792436,0.0,10.0,0.0,0.0,0.0,10.0,0.0,0.0,0.0,10.0,3.35811297654,-0.119575932945,0.319446172755,1.0,0.0,0.0,0.0,1.0,0.0,0.0,0.0,1.0,-14.2671313477,6.33722167969,0.136516113281,0.1,0.0,0.0,0.0,0.1,0.0,0.0,0.0,0.1
1446040798474142637,2354,1446040798470961093,robocape,-11.7545098391,18.8620488839,1.73654819782,0.0,10.0,0.0,0.0,0.0,10.0,0.0,0.0,0.0,10.0,0.0597879664723,-0.0511326929295,1.04209493455,1.0,0.0,0.0,0.0,1.0,0.0,0.0,0.0,1.0,-4.42240356445,10.3321142578,2.85246826172,0.1,0.0,0.0,0.0,0.1,0.0,0.0,0.0,0.1
1446040798517946345,2355,1446040798514830112,robocape,-16.1064220797,18.5860499731,1.66614191793,0.0,10.0,0.0,0.0,0.0,10.0,0.0,0.0,0.0,10.0,-2.31641751615,-0.0769653555033,-0.0581900698182,1.0,0.0,0.0,0.0,1.0,0.0,0.0,0.0,1.0,-7.72274047852,4.71938598633,6.85694091797,0.1,0.0,0.0,0.0,0.1,0.0,0.0,0.0,0.1
1446040798548629429,2356,1446040798545412063,robocape,-20.3305464862,17.8508016752,0.166490388174,0.0,10.0,0.0,0.0,0.0,10.0,0.0,0.0,0.0,10.0,-2.03105980535,-0.0747016685767,-0.820653089908,1.0,0.0,0.0,0.0,1.0,0.0,0.0,0.0,1.0,-6.71443725586,-1.59268798828,11.2290490723,0.1,0.0,0.0,0.0,0.1,0.0,0.0,0.0,0.1
1446040798578877095,2357,1446040798575319051,robocape,-21.6701085212,18.3021820411,-2.88529268032,0.0,10.0,0.0,0.0,0.0,10.0,0.0,0.0,0.0,10.0,-0.252733987449,0.808935181112,-1.33184686115,1.0,0.0,0.0,0.0,1.0,0.0,0.0,0.0,1.0,3.13148803711,-8.98850830078,17.8464880371,0.1,0.0,0.0,0.0,0.1,0.0,0.0,0.0,0.1
1446040798607480804,2358,1446040798604397058,robocape,-18.7198323659,18.7815518063,-5.35664402936,0.0,10.0,0.0,0.0,0.0,10.0,0.0,0.0,0.0,10.0,1.97513342246,0.638759187456,-1.06406601354,1.0,0.0,0.0,0.0,1.0,0.0,0.0,0.0,1.0,-0.108973388672,-3.44763061523,12.7642565918,0.1,0.0,0.0,0.0,0.1,0.0,0.0,0.0,0.1
1446040798636570804,2359,1446040798633327007,robocape,-12.7683776255,19.0466441867,-6.51725962384,0.0,10.0,0.0,0.0,0.0,10.0,0.0,0.0,0.0,10.0,3.34905822883,0.233159753436,-0.507465345715,1.0,0.0,0.0,0.0,1.0,0.0,0.0,0.0,1.0,-3.02490966797,-3.66437988281,9.61959594727,0.1,0.0,0.0,0.0,0.1,0.0,0.0,0.0,0.1
1446040798672805595,2360,1446040798669553041,robocape,-5.3770110881,19.7419468559,-5.72810483696,0.0,10.0,0.0,0.0,0.0,10.0,0.0,0.0,0.0,10.0,3.74653502152,0.259125574065,0.449941066169,1.0,0.0,0.0,0.0,1.0,0.0,0.0,0.0,1.0,-1.03345092773,0.1916015625,7.48084350586,0.1,0.0,0.0,0.0,0.1,0.0,0.0,0.0,0.1
1446040798702879470,2361,1446040798699618101,robocape,1.77918827985,19.9774802482,-4.04450692236,0.0,10.0,0.0,0.0,0.0,10.0,0.0,0.0,0.0,10.0,3.45065782442,0.0916127414987,0.83490100174,1.0,0.0,0.0,0.0,1.0,0.0,0.0,0.0,1.0,-4.34097290039,2.89078857422,6.974296875,0.1,0.0,0.0,0.0,0.1,0.0,0.0,0.0,0.1
1446040798732745095,2362,1446040798729574918,robocape,7.2697877537,19.9103569132,-2.32907646364,0.0,10.0,0.0,0.0,0.0,10.0,0.0,0.0,0.0,10.0,2.5794046738,0.0571248053822,0.841825220574,1.0,0.0,0.0,0.0,1.0,0.0,0.0,0.0,1.0,2.68721191406,5.19719238281,8.99449584961,0.1,0.0,0.0,0.0,0.1,0.0,0.0,0.0,0.1
1446040798766224220,2363,1446040798763149976,robocape,11.2442153154,19.523204442,-0.64766109693,0.0,10.0,0.0,0.0,0.0,10.0,0.0,0.0,0.0,10.0,1.80389216437,-0.0320910911355,0.847551016918,1.0,0.0,0.0,0.0,1.0,0.0,0.0,0.0,1.0,3.6751574707,1.73998168945,11.4984887695,0.1,0.0,0.0,0.0,0.1,0.0,0.0,0.0,0.1
1446040798804692929,2364,1446040798801428079,robocape,14.0873576011,19.8757760478,0.861445909552,0.0,10.0,0.0,0.0,0.0,10.0,0.0,0.0,0.0,10.0,1.25701203452,0.394414157441,0.682301871278,1.0,0.0,0.0,0.0,1.0,0.0,0.0,0.0,1.0,0.864602050781,6.50966308594,13.5282678223,0.1,0.0,0.0,0.0,0.1,0.0,0.0,0.0,0.1
1446040798838861179,2365,1446040798835514068,robocape,16.7212193636,19.4985914196,2.15740890835,0.0,10.0,0.0,0.0,0.0,10.0,0.0,0.0,0.0,10.0,1.18697089785,0.0245010820287,0.667787643337,1.0,0.0,0.0,0.0,1.0,0.0,0.0,0.0,1.0,-0.898132324219,2.81414794922,5.99593139648,0.1,0.0,0.0,0.0,0.1,0.0,0.0,0.0,0.1
1446040798869656470,2366,1446040798866352081,robocape,18.884336008,19.5885766596,3.41846069423,0.0,10.0,0.0,0.0,0.0,10.0,0.0,0.0,0.0,10.0,0.959936414919,0.289219294383,0.579104379038,1.0,0.0,0.0,0.0,1.0,0.0,0.0,0.0,1.0,-3.00814453125,1.73159912109,11.2637768555,0.1,0.0,0.0,0.0,0.1,0.0,0.0,0.0,0.1
1446040798904628637,2367,1446040798901340961,robocape,19.8307183569,20.4783100185,5.30871397555,0.0,10.0,0.0,0.0,0.0,10.0,0.0,0.0,0.0,10.0,0.2054628781,0.804674123367,0.726909819537,1.0,0.0,0.0,0.0,1.0,0.0,0.0,0.0,1.0,-0.876577148438,4.42839111328,11.6350048828,0.1,0.0,0.0,0.0,0.1,0.0,0.0,0.0,0.1
1446040798933179095,2368,1446040798930080890,robocape,19.1678518827,21.1979427532,7.24454798072,0.0,10.0,0.0,0.0,0.0,10.0,0.0,0.0,0.0,10.0,-0.682035555169,0.704672424435,0.771917241959,1.0,0.0,0.0,0.0,1.0,0.0,0.0,0.0,1.0,-7.37666015625,4.65831298828,8.74900634766,0.1,0.0,0.0,0.0,0.1,0.0,0.0,0.0,0.1
1446040798966677304,2369,1446040798963439941,robocape,15.6804642939,21.5448668391,8.14372491569,0.0,10.0,0.0,0.0,0.0,10.0,0.0,0.0,0.0,10.0,-2.00988767468,0.285757184966,0.360592011597,1.0,0.0,0.0,0.0,1.0,0.0,0.0,0.0,1.0,-2.55907836914,2.09204956055,11.9487524414,0.1,0.0,0.0,0.0,0.1,0.0,0.0,0.0,0.1
1446040798999682970,2370,1446040798996520042,robocape,12.5958869673,22.1585553593,7.97741562655,0.0,10.0,0.0,0.0,0.0,10.0,0.0,0.0,0.0,10.0,-1.58351558416,0.290950349091,-0.157126504315,1.0,0.0,0.0,0.0,1.0,0.0,0.0,0.0,1.0,1.94834838867,1.90404052734,7.60179199219,0.1,0.0,0.0,0.0,0.1,0.0,0.0,0.0,0.1
1446040799034625929,2371,1446040799031491041,robocape,11.6784543514,21.2439801289,6.84774066721,0.0,10.0,0.0,0.0,0.0,10.0,0.0,0.0,0.0,10.0,-0.26431873819,-0.589357549235,-0.437823683209,1.0,0.0,0.0,0.0,1.0,0.0,0.0,0.0,1.0,-4.74932373047,-0.252674560547,7.68442016602,0.1,0.0,0.0,0.0,0.1,0.0,0.0,0.0,0.1
1446040799069651262,2372,1446040799066581964,robocape,13.6995144086,21.0069993857,6.22682208586,0.0,10.0,0.0,0.0,0.0,10.0,0.0,0.0,0.0,10.0,1.19655827777,-0.151533866026,-0.261788735155,1.0,0.0,0.0,0.0,1.0,0.0,0.0,0.0,1.0,-8.20892944336,3.4907409668,8.34065551758,0.1,0.0,0.0,0.0,0.1,0.0,0.0,0.0,0.1
1446040799100885971,2373,1446040799097697019,robocape,15.2137004479,19.323156818,6.61320343407,0.0,10.0,0.0,0.0,0.0,10.0,0.0,0.0,0.0,10.0,0.731703509499,-0.793888320953,0.40679785651,1.0,0.0,0.0,0.0,1.0,0.0,0.0,0.0,1.0,19.6194012451,19.6194012451,10.1632653809,0.1,0.0,0.0,0.0,0.1,0.0,0.0,0.0,0.1
1446040799139952721,2374,1446040799136161088,robocape,15.1270555822,17.325947962,7.48219012039,0.0,10.0,0.0,0.0,0.0,10.0,0.0,0.0,0.0,10.0,-0.191747598486,-0.900814238719,0.689359248167,1.0,0.0,0.0,0.0,1.0,0.0,0.0,0.0,1.0,-3.94220214844,12.1367614746,-2.20461547852,0.1,0.0,0.0,0.0,0.1,0.0,0.0,0.0,0.1
1446040799170805971,2375,1446040799167771100,robocape,9.3435014949,17.1950441604,9.10470471087,0.0,10.0,0.0,0.0,0.0,10.0,0.0,0.0,0.0,10.0,-3.29872448423,0.0689758722331,0.795619375661,1.0,0.0,0.0,0.0,1.0,0.0,0.0,0.0,1.0,-2.86683837891,5.53489013672,12.0780834961,0.1,0.0,0.0,0.0,0.1,0.0,0.0,0.0,0.1
1446040799204546596,2376,1446040799201386928,robocape,1.7321701789,17.333873894,9.2411608397,0.0,10.0,0.0,0.0,0.0,10.0,0.0,0.0,0.0,10.0,-4.01285113053,0.0560595409462,0.0511326929295,1.0,0.0,0.0,0.0,1.0,0.0,0.0,0.0,1.0,-6.75994262695,5.3684362793,6.82820068359,0.1,0.0,0.0,0.0,0.1,0.0,0.0,0.0,0.1
1446040799243045929,2377,1446040799239835977,robocape,-6.88212991536,17.0349704914,7.67791725909,0.0,10.0,0.0,0.0,0.0,10.0,0.0,0.0,0.0,10.0,-4.27716986872,-0.118510668509,-0.788961472936,1.0,0.0,0.0,0.0,1.0,0.0,0.0,0.0,1.0,-9.04479125977,-5.83666259766,12.3415356445,0.1,0.0,0.0,0.0,0.1,0.0,0.0,0.0,0.1
1446040799277108221,2378,1446040799273909091,robocape,-12.9245010836,16.5795587128,5.55696099873,0.0,10.0,0.0,0.0,0.0,10.0,0.0,0.0,0.0,10.0,-2.87115397121,-0.0195742340121,-1.07658287066,1.0,0.0,0.0,0.0,1.0,0.0,0.0,0.0,1.0,-4.23798706055,-3.74221801758,5.51333496094,0.1,0.0,0.0,0.0,0.1,0.0,0.0,0.0,0.1
1446040799309539512,2379,1446040799306418895,robocape,-17.7145999058,16.2237560818,3.33822813519,0.0,10.0,0.0,0.0,0.0,10.0,0.0,0.0,0.0,10.0,-2.23239478376,0.161520720113,-1.10973922624,1.0,0.0,0.0,0.0,1.0,0.0,0.0,0.0,1.0,-6.79946044922,-2.08725952148,3.70988525391,0.1,0.0,0.0,0.0,0.1,0.0,0.0,0.0,0.1
1446040799344626221,2380,1446040799341136932,robocape,-20.4035767848,16.3994736661,1.18261398841,0.0,10.0,0.0,0.0,0.0,10.0,0.0,0.0,0.0,10.0,-1.14728979761,0.486692689212,-0.983105916403,1.0,0.0,0.0,0.0,1.0,0.0,0.0,0.0,1.0,-2.75307495117,-1.63939086914,12.0804785156,0.1,0.0,0.0,0.0,0.1,0.0,0.0,0.0,0.1
1446040799379597512,2381,1446040799376512050,robocape,-22.1470517276,15.8428756609,-0.317710372835,0.0,10.0,0.0,0.0,0.0,10.0,0.0,0.0,0.0,10.0,-0.740092466933,0.0356863586071,-0.803742016986,1.0,0.0,0.0,0.0,1.0,0.0,0.0,0.0,1.0,-3.73383544922,1.67411865234,9.89502319336,0.1,0.0,0.0,0.0,0.1,0.0,0.0,0.0,0.1
1446040799412121596,2382,1446040799408751010,robocape,-20.8412520157,16.0017322863,-1.78629003427,0.0,10.0,0.0,0.0,0.0,10.0,0.0,0.0,0.0,10.0,0.894955284321,0.348208312528,-0.657667631195,1.0,0.0,0.0,0.0,1.0,0.0,0.0,0.0,1.0,-6.74317749023,1.44539428711,5.55165527344,0.1,0.0,0.0,0.0,0.1,0.0,0.0,0.0,0.1
1446040799447041637,2383,1446040799443732976,robocape,-18.3053919321,15.9858688672,-3.19384457096,0.0,10.0,0.0,0.0,0.0,10.0,0.0,0.0,0.0,10.0,1.5491608061,0.212653413043,-0.670450804427,1.0,0.0,0.0,0.0,1.0,0.0,0.0,0.0,1.0,-3.11232788086,-0.585582275391,7.97781005859,0.1,0.0,0.0,0.0,0.1,0.0,0.0,0.0,0.1
1446040799493674179,2384,1446040799483448028,robocape,-15.3096745525,16.0990711939,-3.91213686905,0.0,10.0,0.0,0.0,0.0,10.0,0.0,0.0,0.0,10.0,1.68697939251,0.145275437464,-0.327835130189,1.0,0.0,0.0,0.0,1.0,0.0,0.0,0.0,1.0,0.0550854492188,-1.15439941406,16.6753234863,0.1,0.0,0.0,0.0,0.1,0.0,0.0,0.0,0.1
1446040799530157762,2385,1446040799527087926,robocape,-12.5340709739,15.9659679171,-3.40324759727,0.0,10.0,0.0,0.0,0.0,10.0,0.0,0.0,0.0,10.0,1.38843903431,-0.140748063611,0.232760279273,1.0,0.0,0.0,0.0,1.0,0.0,0.0,0.0,1.0,-5.33490600586,5.96719116211,-1.80704223633,0.1,0.0,0.0,0.0,0.1,0.0,0.0,0.0,0.1
1446040799564165846,2386,1446040799560857057,robocape,-8.92613856406,16.1771019756,-3.0455711283,0.0,10.0,0.0,0.0,0.0,10.0,0.0,0.0,0.0,10.0,1.84317379044,0.0648479725434,0.198272343156,1.0,0.0,0.0,0.0,1.0,0.0,0.0,0.0,1.0,-3.15903076172,-2.74229736328,13.8480029297,0.1,0.0,0.0,0.0,0.1,0.0,0.0,0.0,0.1
1446040799599274554,2387,1446040799596129894,robocape,-5.42320834635,16.0500268694,-2.69200809155,0.0,10.0,0.0,0.0,0.0,10.0,0.0,0.0,0.0,10.0,1.78498372063,-0.0937432703708,0.168711255057,1.0,0.0,0.0,0.0,1.0,0.0,0.0,0.0,1.0,0.392783203125,2.2956262207,9.71779174805,0.1,0.0,0.0,0.0,0.1,0.0,0.0,0.0,0.1
1446040799637192179,2388,1446040799634018898,robocape,-1.79388207088,16.6137187268,-2.43641827855,0.0,10.0,0.0,0.0,0.0,10.0,0.0,0.0,0.0,10.0,1.86248170835,0.295610880999,0.145941227736,1.0,0.0,0.0,0.0,1.0,0.0,0.0,0.0,1.0,-3.67635498047,2.38663696289,9.80281494141,0.1,0.0,0.0,0.0,0.1,0.0,0.0,0.0,0.1
1446040799671243471,2389,1446040799668150901,robocape,0.853519678869,16.6098613623,-1.5305819469,0.0,10.0,0.0,0.0,0.0,10.0,0.0,0.0,0.0,10.0,1.25141939623,0.00585895439817,0.453669491695,1.0,0.0,0.0,0.0,1.0,0.0,0.0,0.0,1.0,-0.765208740234,1.69567382813,9.33339111328,0.1,0.0,0.0,0.0,0.1,0.0,0.0,0.0,0.1
1446040799705029304,2390,1446040799701879978,robocape,2.76121268942,16.8962461378,-0.679919264292,0.0,10.0,0.0,0.0,0.0,10.0,0.0,0.0,0.0,10.0,0.8736499956,0.182692850779,0.420646294178,1.0,0.0,0.0,0.0,1.0,0.0,0.0,0.0,1.0,0.271834716797,2.4560925293,6.15280517578,0.1,0.0,0.0,0.0,0.1,0.0,0.0,0.0,0.1
1446040799738309179,2391,1446040799735173940,robocape,4.38884374568,16.9199175999,-0.256899373525,0.0,10.0,0.0,0.0,0.0,10.0,0.0,0.0,0.0,10.0,0.792689898462,0.0444747902043,0.209990251953,1.0,0.0,0.0,0.0,1.0,0.0,0.0,0.0,1.0,-2.12078979492,2.05013671875,9.78006225586,0.1,0.0,0.0,0.0,0.1,0.0,0.0,0.0,0.1
1446040799773349429,2392,1446040799770170927,robocape,5.46439021142,16.8547047685,0.301388204058,0.0,10.0,0.0,0.0,0.0,10.0,0.0,0.0,0.0,10.0,0.483896370067,0.00798948327024,0.281229811112,1.0,0.0,0.0,0.0,1.0,0.0,0.0,0.0,1.0,-3.15783325195,2.8009753418,4.66430053711,0.1,0.0,0.0,0.0,0.1,0.0,0.0,0.0,0.1
1446040799807288971,2393,1446040799804177045,robocape,4.16097653808,17.0778190833,1.31282289266,0.0,10.0,0.0,0.0,0.0,10.0,0.0,0.0,0.0,10.0,-0.834102053413,0.172306522528,0.495347962755,1.0,0.0,0.0,0.0,1.0,0.0,0.0,0.0,1.0,-5.19719238281,3.19136352539,11.6002770996,0.1,0.0,0.0,0.0,0.1,0.0,0.0,0.0,0.1
1446040799840461221,2394,1446040799837342977,robocape,1.86155317927,17.2972880628,1.75878639649,0.0,10.0,0.0,0.0,0.0,10.0,0.0,0.0,0.0,10.0,-1.27205889468,0.139150166957,0.217580261059,1.0,0.0,0.0,0.0,1.0,0.0,0.0,0.0,1.0,0.549656982422,-1.27055786133,18.5434387207,0.1,0.0,0.0,0.0,0.1,0.0,0.0,0.0,0.1
1446040799875181096,2395,1446040799871819972,robocape,-0.41186726987,17.4481278421,1.65497934686,0.0,10.0,0.0,0.0,0.0,10.0,0.0,0.0,0.0,10.0,-1.17485351489,0.0938764284253,-0.0516653251475,1.0,0.0,0.0,0.0,1.0,0.0,0.0,0.0,1.0,-1.76512939453,-5.58758056641,2.3411315918,0.1,0.0,0.0,0.0,0.1,0.0,0.0,0.0,0.1
1446040799909880804,2396,1446040799906538963,robocape,-2.53046955618,17.5947971123,0.795863569036,0.0,10.0,0.0,0.0,0.0,10.0,0.0,0.0,0.0,10.0,-0.976581171732,0.106260127494,-0.425972616358,1.0,0.0,0.0,0.0,1.0,0.0,0.0,0.0,1.0,-1.56873779297,1.45736938477,5.91569824219,0.1,0.0,0.0,0.0,0.1,0.0,0.0,0.0,0.1
1446040799942843513,2397,1446040799939471960,robocape,-2.2948238097,17.7174900495,-0.618789743844,0.0,10.0,0.0,0.0,0.0,10.0,0.0,0.0,0.0,10.0,0.34621094171,0.110521185238,-0.702675053617,1.0,0.0,0.0,0.0,1.0,0.0,0.0,0.0,1.0,-3.54702392578,0.329315185547,6.65216674805,0.1,0.0,0.0,0.0,0.1,0.0,0.0,0.0,0.1
1446040799978873346,2398,1446040799975168943,robocape,-1.11100453763,17.2348503389,-1.16493138089,0.0,10.0,0.0,0.0,0.0,10.0,0.0,0.0,0.0,10.0,0.705338214707,-0.235956072581,-0.28056402084,1.0,0.0,0.0,0.0,1.0,0.0,0.0,0.0,1.0,-4.89062988281,1.78428955078,9.75012451172,0.1,0.0,0.0,0.0,0.1,0.0,0.0,0.0,0.1
1446040800013260054,2399,1446040800009608983,robocape,-0.211312869589,17.6314441788,-0.874852080481,0.0,10.0,0.0,0.0,0.0,10.0,0.0,0.0,0.0,10.0,0.42543998414,0.226501850711,0.146473859954,1.0,0.0,0.0,0.0,1.0,0.0,0.0,0.0,1.0,-0.131726074219,3.06802001953,13.5977233887,0.1,0.0,0.0,0.0,0.1,0.0,0.0,0.0,0.1
1446040800046373971,2400,1446040800042474985,robocape,-0.115595231419,17.9382187875,-0.520478501087,0.0,10.0,0.0,0.0,0.0,10.0,0.0,0.0,0.0,10.0,-0.0066579027252,0.180695479962,0.176567580272,1.0,0.0,0.0,0.0,1.0,0.0,0.0,0.0,1.0,-1.74836425781,1.16757202148,11.0817553711,0.1,0.0,0.0,0.0,0.1,0.0,0.0,0.0,0.1
1446040800080299971,2401,1446040800077100038,robocape,-0.968638710663,17.4928962231,-0.0583844658133,0.0,10.0,0.0,0.0,0.0,10.0,0.0,0.0,0.0,10.0,-0.520914309219,-0.224637637948,0.22823290542,1.0,0.0,0.0,0.0,1.0,0.0,0.0,0.0,1.0,0.524509277344,6.66893188477,6.85813842773,0.1,0.0,0.0,0.0,0.1,0.0,0.0,0.0,0.1
1446040800113543304,2402,1446040800110152006,robocape,-3.95505091264,17.64724347,0.0913120683094,0.0,10.0,0.0,0.0,0.0,10.0,0.0,0.0,0.0,10.0,-1.59230401576,0.0980043281149,0.0784300941028,1.0,0.0,0.0,0.0,1.0,0.0,0.0,0.0,1.0,0.0299377441406,4.63556030273,9.27591064453,0.1,0.0,0.0,0.0,0.1,0.0,0.0,0.0,0.1
1446040800147059679,2403,1446040800143484115,robocape,-8.53131936951,17.0270719162,-0.171444491854,0.0,10.0,0.0,0.0,0.0,10.0,0.0,0.0,0.0,10.0,-2.36675126075,-0.287621397729,-0.165515461748,1.0,0.0,0.0,0.0,1.0,0.0,0.0,0.0,1.0,-3.73144042969,1.73040161133,12.2385498047,0.1,0.0,0.0,0.0,0.1,0.0,0.0,0.0,0.1
1446040800181532471,2404,1446040800178358078,robocape,-13.7438791983,16.6978315617,-1.33867079134,0.0,10.0,0.0,0.0,0.0,10.0,0.0,0.0,0.0,10.0,-2.58712784096,-0.0134489635049,-0.607866518811,1.0,0.0,0.0,0.0,1.0,0.0,0.0,0.0,1.0,-3.87993164063,-1.45736938477,9.75850708008,0.1,0.0,0.0,0.0,0.1,0.0,0.0,0.0,0.1
1446040800211474471,2405,1446040800208137035,robocape,-17.108770096,14.1573187884,-2.84814203885,0.0,10.0,0.0,0.0,0.0,10.0,0.0,0.0,0.0,10.0,-1.57166451731,-1.06233495883,-1.09056446639,1.0,0.0,0.0,0.0,1.0,0.0,0.0,0.0,1.0,10.1848205566,7.68442016602,-0.940045166016,0.1,0.0,0.0,0.0,0.1,0.0,0.0,0.0,0.1
1446040800249133138,2406,1446040800245224952,robocape,-15.6861037739,14.6386087885,-4.30601871326,0.0,10.0,0.0,0.0,0.0,10.0,0.0,0.0,0.0,10.0,0.92891058822,0.456598968894,-0.639025503565,1.0,0.0,0.0,0.0,1.0,0.0,0.0,0.0,1.0,-8.88312744141,5.88815551758,9.89262817383,0.1,0.0,0.0,0.0,0.1,0.0,0.0,0.0,0.1
1446040800279084304,2407,1446040800275799036,robocape,-18.9668780155,13.6791816723,-5.54747402253,0.0,10.0,0.0,0.0,0.0,10.0,0.0,0.0,0.0,10.0,-1.60721771786,-0.253000303558,-0.761397755654,1.0,0.0,0.0,0.0,1.0,0.0,0.0,0.0,1.0,7.54191650391,-5.45345947266,17.0764892578,0.1,0.0,0.0,0.0,0.1,0.0,0.0,0.0,0.1
1446040800308858679,2408,1446040800305798053,robocape,-19.420592855,13.947950182,-6.70428263589,0.0,10.0,0.0,0.0,0.0,10.0,0.0,0.0,0.0,10.0,-0.125035413179,0.352602528326,-0.516520093421,1.0,0.0,0.0,0.0,1.0,0.0,0.0,0.0,1.0,-4.09787841797,3.78413085938,4.37809570313,0.1,0.0,0.0,0.0,0.1,0.0,0.0,0.0,0.1
1446040800341751763,2409,1446040800338428974,robocape,-21.7382774428,14.5909207,-8.31170470779,0.0,10.0,0.0,0.0,0.0,10.0,0.0,0.0,0.0,10.0,-1.07818076732,0.658732895631,-0.664725008084,1.0,0.0,0.0,0.0,1.0,0.0,0.0,0.0,1.0,3.76497070313,2.12318481445,10.5572460938,0.1,0.0,0.0,0.0,0.1,0.0,0.0,0.0,0.1
1446040800371180929,2410,1446040800368083000,robocape,-25.2582052202,14.1315826655,-9.91492753655,0.0,10.0,0.0,0.0,0.0,10.0,0.0,0.0,0.0,10.0,-1.73891103377,0.174703367509,-0.872717889219,1.0,0.0,0.0,0.0,1.0,0.0,0.0,0.0,1.0,2.84288818359,-1.10051147461,9.70461914063,0.1,0.0,0.0,0.0,0.1,0.0,0.0,0.0,0.1
1446040800402712096,2411,1446040800399646997,robocape,-29.1935685524,14.5237121148,-12.6984735874,0.0,10.0,0.0,0.0,0.0,10.0,0.0,0.0,0.0,10.0,-1.87073750773,0.939962706743,-1.21773040844,1.0,0.0,0.0,0.0,1.0,0.0,0.0,0.0,1.0,13.2504455566,-6.99704956055,14.8970214844,0.1,0.0,0.0,0.0,0.1,0.0,0.0,0.0,0.1
1446040800437714096,2412,1446040800434544086,robocape,-29.4987426982,14.8212356174,-16.601983111,0.0,10.0,0.0,0.0,0.0,10.0,0.0,0.0,0.0,10.0,0.265650318735,1.17245666991,-1.68844413111,1.0,0.0,0.0,0.0,1.0,0.0,0.0,0.0,1.0,6.4725402832,-2.9925769043,14.1102575684,0.1,0.0,0.0,0.0,0.1,0.0,0.0,0.0,0.1
1446040800467940221,2413,1446040800464721918,robocape,-22.9062813012,17.027589165,-22.6223453486,0.0,10.0,0.0,0.0,0.0,10.0,0.0,0.0,0.0,10.0,4.36318997193,2.33625806627,-2.18512367441,1.0,0.0,0.0,0.0,1.0,0.0,0.0,0.0,1.0,-16.615447998,-4.42839111328,13.6204760742,0.1,0.0,0.0,0.0,0.1,0.0,0.0,0.0,0.1
1446040800503646346,2414,1446040800500443935,robocape,-16.4024054892,16.9396654863,-28.9065369613,0.0,10.0,0.0,0.0,0.0,10.0,0.0,0.0,0.0,10.0,4.36318997193,1.0436928312,-3.01602993451,1.0,0.0,0.0,0.0,1.0,0.0,0.0,0.0,1.0,1.9196081543,-6.68330200195,-5.98515380859,0.1,0.0,0.0,0.0,0.1,0.0,0.0,0.0,0.1
1446040800536192263,2415,1446040800533097028,robocape,-8.92287748787,16.5910443409,-31.8347584606,0.0,10.0,0.0,0.0,0.0,10.0,0.0,0.0,0.0,10.0,4.36318997193,0.162186510386,-1.50149022259,1.0,0.0,0.0,0.0,1.0,0.0,0.0,0.0,1.0,7.15392333984,-12.507989502,9.37530395508,0.1,0.0,0.0,0.0,0.1,0.0,0.0,0.0,0.1
1446040800567211846,2416,1446040800563963890,robocape,-0.718133157714,15.3088261271,-32.251048527,0.0,10.0,0.0,0.0,0.0,10.0,0.0,0.0,0.0,10.0,4.36318997193,-0.654738153996,-0.2631203157,1.0,0.0,0.0,0.0,1.0,0.0,0.0,0.0,1.0,-3.47756835938,-10.8949438477,-8.84959716797,0.1,0.0,0.0,0.0,0.1,0.0,0.0,0.0,0.1
1446040800604314763,2417,1446040800600824117,robocape,8.17442262906,12.9167289498,-30.0450406446,0.0,10.0,0.0,0.0,0.0,10.0,0.0,0.0,0.0,10.0,4.36318997193,-1.20121880968,1.25101992206,1.0,0.0,0.0,0.0,1.0,0.0,0.0,0.0,1.0,-0.730480957031,1.36875366211,-11.7092504883,0.1,0.0,0.0,0.0,0.1,0.0,0.0,0.0,0.1
1446040800640992305,2418,1446040800637864112,robocape,10.9689252911,13.8240978646,-21.5523865548,0.0,10.0,0.0,0.0,0.0,10.0,0.0,0.0,0.0,10.0,0.344080412838,1.09615710468,4.36318997193,1.0,0.0,0.0,0.0,1.0,0.0,0.0,0.0,1.0,16.8226171875,19.6194012451,19.6194012451,0.1,0.0,0.0,0.0,0.1,0.0,0.0,0.0,0.1
1446040800675653555,2419,1446040800672496080,robocape,21.1193026672,11.3009036146,-13.507428227,0.0,10.0,0.0,0.0,0.0,10.0,0.0,0.0,0.0,10.0,4.36318997193,-0.153531236843,4.36318997193,1.0,0.0,0.0,0.0,1.0,0.0,0.0,0.0,1.0,-11.9092346191,9.87107299805,-12.3163879395,0.1,0.0,0.0,0.0,0.1,0.0,0.0,0.0,0.1
1446040800708743555,2420,1446040800705483913,robocape,31.397840218,13.4660806983,-2.86478830113,0.0,10.0,0.0,0.0,0.0,10.0,0.0,0.0,0.0,10.0,4.36318997193,3.52655791548,4.36318997193,1.0,0.0,0.0,0.0,1.0,0.0,0.0,0.0,1.0,4.61640014648,0.989143066406,-8.64242797852,0.1,0.0,0.0,0.0,0.1,0.0,0.0,0.0,0.1
1446040800744270096,2421,1446040800741075038,robocape,41.5632178424,14.8061591937,8.73347149962,0.0,10.0,0.0,0.0,0.0,10.0,0.0,0.0,0.0,10.0,4.36318997193,4.35413522423,4.36318997193,1.0,0.0,0.0,0.0,1.0,0.0,0.0,0.0,1.0,8.03050048828,1.65376098633,-7.90595947266,0.1,0.0,0.0,0.0,0.1,0.0,0.0,0.0,0.1
1446040800782442721,2422,1446040800778465986,robocape,49.2288780712,6.23003303446,11.5285680078,0.0,10.0,0.0,0.0,0.0,10.0,0.0,0.0,0.0,10.0,4.36318997193,-1.96115182673,4.36318997193,1.0,0.0,0.0,0.0,1.0,0.0,0.0,0.0,1.0,19.543359375,16.4585742188,-19.62,0.1,0.0,0.0,0.0,0.1,0.0,0.0,0.0,0.1
1446040800817529180,2423,1446040800814013004,robocape,55.7041476964,-1.61094456502,14.0521181231,0.0,10.0,0.0,0.0,0.0,10.0,0.0,0.0,0.0,10.0,4.36318997193,-1.30428314387,4.36318997193,1.0,0.0,0.0,0.0,1.0,0.0,0.0,0.0,1.0,15.9927429199,-0.730480957031,-14.2695263672,0.1,0.0,0.0,0.0,0.1,0.0,0.0,0.0,0.1
1446040800849378388,2424,1446040800845724105,robocape,60.9356716357,-7.8143403095,18.0702155128,0.0,10.0,0.0,0.0,0.0,10.0,0.0,0.0,0.0,10.0,4.36318997193,0.211454990552,4.36318997193,1.0,0.0,0.0,0.0,1.0,0.0,0.0,0.0,1.0,15.6346875,-1.8741027832,-12.5870251465,0.1,0.0,0.0,0.0,0.1,0.0,0.0,0.0,0.1
1446040800877713555,2425,1446040800874690055,robocape,64.8517463744,-13.001521998,23.1851881168,0.0,10.0,0.0,0.0,0.0,10.0,0.0,0.0,0.0,10.0,4.36318997193,1.2357067458,4.36318997193,1.0,0.0,0.0,0.0,1.0,0.0,0.0,0.0,1.0,16.2082946777,-1.70525390625,-12.4217687988,0.1,0.0,0.0,0.0,0.1,0.0,0.0,0.0,0.1
1446040800913663971,2426,1446040800909184932,robocape,67.2057324883,-16.9146502161,30.2131041632,0.0,10.0,0.0,0.0,0.0,10.0,0.0,0.0,0.0,10.0,4.36318997193,2.59911206586,4.36318997193,1.0,0.0,0.0,0.0,1.0,0.0,0.0,0.0,1.0,16.0071130371,-1.04542602539,-13.4420471191,0.1,0.0,0.0,0.0,0.1,0.0,0.0,0.0,0.1
1446040800942906180,2427,1446040800939819097,robocape,67.7863427903,-19.2486693142,39.6701535778,0.0,10.0,0.0,0.0,0.0,10.0,0.0,0.0,0.0,10.0,4.36318997193,4.21391979283,4.36318997193,1.0,0.0,0.0,0.0,1.0,0.0,0.0,0.0,1.0,14.8191833496,-0.613125,-15.2371142578,0.1,0.0,0.0,0.0,0.1,0.0,0.0,0.0,0.1
1446040800972613055,2428,1446040800969531059,robocape,67.5982085761,-20.7771023729,48.8034296334,0.0,10.0,0.0,0.0,0.0,10.0,0.0,0.0,0.0,10.0,4.36318997193,4.36318997193,4.36318997193,1.0,0.0,0.0,0.0,1.0,0.0,0.0,0.0,1.0,19.6194012451,15.8131164551,-19.3840905762,0.1,0.0,0.0,0.0,0.1,0.0,0.0,0.0,0.1
1446040801002941513,2429,1446040800999872922,robocape,67.0507866632,-21.5515809698,57.2630959184,0.0,10.0,0.0,0.0,0.0,10.0,0.0,0.0,0.0,10.0,4.36318997193,4.36318997193,4.36318997193,1.0,0.0,0.0,0.0,1.0,0.0,0.0,0.0,1.0,14.1006774902,16.8501599121,19.6194012451,0.1,0.0,0.0,0.0,0.1,0.0,0.0,0.0,0.1
1446040801031346430,2430,1446040801028202056,robocape,71.618498323,-26.7224988476,53.5205770378,0.0,10.0,0.0,0.0,0.0,10.0,0.0,0.0,0.0,10.0,4.36318997193,-2.17473734616,4.36318997193,1.0,0.0,0.0,0.0,1.0,0.0,0.0,0.0,1.0,-19.62,-19.62,12.2720800781,0.1,0.0,0.0,0.0,0.1,0.0,0.0,0.0,0.1
1446040801059259555,2431,1446040801056082963,robocape,76.8574639459,-29.0770046206,49.1861364486,0.0,10.0,0.0,0.0,0.0,10.0,0.0,0.0,0.0,10.0,4.36318997193,-1.98312290573,2.76236384068,1.0,0.0,0.0,0.0,1.0,0.0,0.0,0.0,1.0,12.7498864746,-6.40667724609,-18.8104833984,0.1,0.0,0.0,0.0,0.1,0.0,0.0,0.0,0.1
1446040801093317638,2432,1446040801089848995,robocape,80.2141772878,-29.1030294888,48.486755935,0.0,10.0,0.0,0.0,0.0,10.0,0.0,0.0,0.0,10.0,4.36318997193,-0.0219710789932,1.92040546206,1.0,0.0,0.0,0.0,1.0,0.0,0.0,0.0,1.0,3.68354003906,-1.48491210938,-13.432467041,0.1,0.0,0.0,0.0,0.1,0.0,0.0,0.0,0.1
1446040801126073805,2433,1446040801122999906,robocape,83.0082157716,-28.6770861779,48.5432329578,0.0,10.0,0.0,0.0,0.0,10.0,0.0,0.0,0.0,10.0,4.36318997193,0.412789968962,1.74050893042,1.0,0.0,0.0,0.0,1.0,0.0,0.0,0.0,1.0,2.44172241211,-1.31965576172,-13.0277087402,0.1,0.0,0.0,0.0,0.1,0.0,0.0,0.0,0.1
1446040801158944680,2434,1446040801155750989,robocape,85.3479681749,-27.8403432314,49.2595124159,0.0,10.0,0.0,0.0,0.0,10.0,0.0,0.0,0.0,10.0,4.36318997193,0.805073597531,1.54303553559,1.0,0.0,0.0,0.0,1.0,0.0,0.0,0.0,1.0,2.50758544922,-0.0934057617188,-13.0971643066,0.1,0.0,0.0,0.0,0.1,0.0,0.0,0.0,0.1
1446040801189871180,2435,1446040801186610937,robocape,87.4120785695,-26.6346783058,50.3952326651,0.0,10.0,0.0,0.0,0.0,10.0,0.0,0.0,0.0,10.0,4.36318997193,1.09029815028,1.336374235,1.0,0.0,0.0,0.0,1.0,0.0,0.0,0.0,1.0,1.22026245117,0.439486083984,-12.5630749512,0.1,0.0,0.0,0.0,0.1,0.0,0.0,0.0,0.1
1446040801221311597,2436,1446040801217927932,robocape,89.2986136146,-26.4346379355,50.8873773562,0.0,10.0,0.0,0.0,0.0,10.0,0.0,0.0,0.0,10.0,4.36318997193,0.884835272179,1.99377555009,1.0,0.0,0.0,0.0,1.0,0.0,0.0,0.0,1.0,-4.19966674805,11.3535900879,-7.52874389648,0.1,0.0,0.0,0.0,0.1,0.0,0.0,0.0,0.1
1446040801250991930,2437,1446040801247203111,robocape,89.7327590872,-26.2529709009,53.6374868255,0.0,10.0,0.0,0.0,0.0,10.0,0.0,0.0,0.0,10.0,4.36318997193,2.09071461377,2.13665414257,1.0,0.0,0.0,0.0,1.0,0.0,0.0,0.0,1.0,6.50846557617,19.6194012451,-19.62,0.1,0.0,0.0,0.0,0.1,0.0,0.0,0.0,0.1
1446040801282001972,2438,1446040801278950929,robocape,93.3197752629,-26.368724875,49.1771365157,0.0,10.0,0.0,0.0,0.0,10.0,0.0,0.0,0.0,10.0,3.37222773031,-1.55448712828,1.77792634374,1.0,0.0,0.0,0.0,1.0,0.0,0.0,0.0,1.0,-7.83291137695,2.29921875,-4.55891967773,0.1,0.0,0.0,0.0,0.1,0.0,0.0,0.0,0.1
1446040801314796930,2439,1446040801311558961,robocape,97.6529455113,-22.6963851529,43.744794009,0.0,10.0,0.0,0.0,0.0,10.0,0.0,0.0,0.0,10.0,2.13186045261,-2.57740730298,-1.06499811992,1.0,0.0,0.0,0.0,1.0,0.0,0.0,0.0,1.0,-3.47876586914,-6.58630371094,-7.20900878906,0.1,0.0,0.0,0.0,0.1,0.0,0.0,0.0,0.1
1446040801346403305,2440,1446040801343091011,robocape,101.262511728,-18.1760518867,40.5434464628,0.0,10.0,0.0,0.0,0.0,10.0,0.0,0.0,0.0,10.0,2.95264670057,-1.63704512207,-1.28337732931,1.0,0.0,0.0,0.0,1.0,0.0,0.0,0.0,1.0,-1.97589111328,0.972377929688,-1.19271972656,0.1,0.0,0.0,0.0,0.1,0.0,0.0,0.0,0.1
1446040801376685638,2441,1446040801373524904,robocape,104.327268564,-13.815527956,37.6954645375,0.0,10.0,0.0,0.0,0.0,10.0,0.0,0.0,0.0,10.0,3.04146312292,-1.53371447178,-1.14782242982,1.0,0.0,0.0,0.0,1.0,0.0,0.0,0.0,1.0,-0.853824462891,0.724493408203,-0.946032714844,0.1,0.0,0.0,0.0,0.1,0.0,0.0,0.0,0.1
1446040801407099722,2442,1446040801403789997,robocape,106.983231708,-9.60611741172,34.8983443319,0.0,10.0,0.0,0.0,0.0,10.0,0.0,0.0,0.0,10.0,3.07528526877,-1.55462028633,-1.04422546342,1.0,0.0,0.0,0.0,1.0,0.0,0.0,0.0,1.0,-1.29211303711,1.60107055664,-1.01788330078,0.1,0.0,0.0,0.0,0.1,0.0,0.0,0.0,0.1
1446040801441096180,2443,1446040801437925100,robocape,109.107418386,-6.29929003156,31.7579974429,0.0,10.0,0.0,0.0,0.0,10.0,0.0,0.0,0.0,10.0,2.99019727194,-1.62146562969,-0.522512205874,1.0,0.0,0.0,0.0,1.0,0.0,0.0,0.0,1.0,-0.960402832031,7.02938232422,-4.29906005859,0.1,0.0,0.0,0.0,0.1,0.0,0.0,0.0,0.1
1446040801471991722,2444,1446040801468560934,robocape,105.225042862,-9.5980795925,35.2600037919,0.0,10.0,0.0,0.0,0.0,10.0,0.0,0.0,0.0,10.0,-1.69443624356,2.2706111454,1.13810189185,1.0,0.0,0.0,0.0,1.0,0.0,0.0,0.0,1.0,-5.88097045898,19.6194012451,-13.5426379395,0.1,0.0,0.0,0.0,0.1,0.0,0.0,0.0,0.1
1446040801514159347,2445,1446040801510951995,robocape,98.5745201821,-15.5939447185,38.3713359275,0.0,10.0,0.0,0.0,0.0,10.0,0.0,0.0,0.0,10.0,-4.36332312999,1.85622327979,2.29684328214,1.0,0.0,0.0,0.0,1.0,0.0,0.0,0.0,1.0,-3.86795654297,0.487386474609,-8.06522827148,0.1,0.0,0.0,0.0,0.1,0.0,0.0,0.0,0.1
1446040801546815097,2446,1446040801543459892,robocape,90.9595310703,-17.9590746005,44.7211498056,0.0,10.0,0.0,0.0,0.0,10.0,0.0,0.0,0.0,10.0,-4.36332312999,2.91642770975,0.370712023739,1.0,0.0,0.0,0.0,1.0,0.0,0.0,0.0,1.0,-5.49297729492,19.6194012451,-19.62,0.1,0.0,0.0,0.0,0.1,0.0,0.0,0.0,0.1
1446040801582341930,2447,1446040801579260110,robocape,85.5984127179,-21.08290391,44.2689830102,0.0,10.0,0.0,0.0,0.0,10.0,0.0,0.0,0.0,10.0,-4.18262765002,-0.592153868379,0.884835272179,1.0,0.0,0.0,0.0,1.0,0.0,0.0,0.0,1.0,-4.41162597656,-0.819096679688,-7.2461315918,0.1,0.0,0.0,0.0,0.1,0.0,0.0,0.0,0.1
1446040801618837555,2448,1446040801615520954,robocape,81.9209319311,-22.8411185266,45.0245662161,0.0,10.0,0.0,0.0,0.0,10.0,0.0,0.0,0.0,10.0,-1.92786231311,0.234890808145,0.864195773731,1.0,0.0,0.0,0.0,1.0,0.0,0.0,0.0,1.0,1.01548828125,7.23176147461,0.0239501953125,0.1,0.0,0.0,0.0,0.1,0.0,0.0,0.0,0.1
1446040801653099222,2449,1446040801649837970,robocape,78.11414528,-24.4490232013,46.3316842804,0.0,10.0,0.0,0.0,0.0,10.0,0.0,0.0,0.0,10.0,-1.73411734381,0.469115826017,0.928511114056,1.0,0.0,0.0,0.0,1.0,0.0,0.0,0.0,1.0,0.332907714844,12.379855957,-2.39382202148,0.1,0.0,0.0,0.0,0.1,0.0,0.0,0.0,0.1
1446040801689975222,2450,1446040801686686038,robocape,73.2809419322,-26.1142538802,48.3506741549,0.0,10.0,0.0,0.0,0.0,10.0,0.0,0.0,0.0,10.0,-2.2603579752,0.682168713224,0.953411670248,1.0,0.0,0.0,0.0,1.0,0.0,0.0,0.0,1.0,0.235909423828,9.85311035156,-0.778381347656,0.1,0.0,0.0,0.0,0.1,0.0,0.0,0.0,0.1
1446040801725360055,2451,1446040801722284078,robocape,69.6140008098,-26.2647238557,50.3131461642,0.0,10.0,0.0,0.0,0.0,10.0,0.0,0.0,0.0,10.0,-1.48378020134,0.8470183847,0.355265689417,1.0,0.0,0.0,0.0,1.0,0.0,0.0,0.0,1.0,2.54470825195,8.86396728516,2.19743041992,0.1,0.0,0.0,0.0,0.1,0.0,0.0,0.0,0.1
1446040801762143263,2452,1446040801758796930,robocape,67.8950257303,-26.4244538776,51.0990805623,0.0,10.0,0.0,0.0,0.0,10.0,0.0,0.0,0.0,10.0,-0.290284558819,0.366184649886,0.553404874518,1.0,0.0,0.0,0.0,1.0,0.0,0.0,0.0,1.0,0.0514929199219,5.59955566406,3.47158081055,0.1,0.0,0.0,0.0,0.1,0.0,0.0,0.0,0.1
1446040801795839805,2453,1446040801792759895,robocape,67.4078493786,-25.2932242111,51.9558418761,0.0,10.0,0.0,0.0,0.0,10.0,0.0,0.0,0.0,10.0,0.504402710461,0.667787643337,0.0584563859272,1.0,0.0,0.0,0.0,1.0,0.0,0.0,0.0,1.0,1.54838012695,7.87482421875,2.71116210938,0.1,0.0,0.0,0.0,0.1,0.0,0.0,0.0,0.1
1446040801828066430,2454,1446040801824948072,robocape,67.2438310359,-24.1118398341,52.3281833537,0.0,10.0,0.0,0.0,0.0,10.0,0.0,0.0,0.0,10.0,0.510128506805,0.472711093489,-0.0854874709915,1.0,0.0,0.0,0.0,1.0,0.0,0.0,0.0,1.0,0.435893554688,14.3617346191,0.434696044922,0.1,0.0,0.0,0.0,0.1,0.0,0.0,0.0,0.1
1446040801860176055,2455,1446040801856705904,robocape,66.7299613461,-23.2221887865,52.0348610223,0.0,10.0,0.0,0.0,0.0,10.0,0.0,0.0,0.0,10.0,-0.0744353524677,0.0908137931717,-0.274039276169,1.0,0.0,0.0,0.0,1.0,0.0,0.0,0.0,1.0,1.06817871094,12.6205554199,-0.4215234375,0.1,0.0,0.0,0.0,0.1,0.0,0.0,0.0,0.1
1446040801890212222,2456,1446040801887051105,robocape,66.0266343455,-22.8408013407,51.3293873338,0.0,10.0,0.0,0.0,0.0,10.0,0.0,0.0,0.0,10.0,-0.329299868788,-0.2039981395,-0.168045464784,1.0,0.0,0.0,0.0,1.0,0.0,0.0,0.0,1.0,1.08733886719,10.5368884277,1.45497436523,0.1,0.0,0.0,0.0,0.1,0.0,0.0,0.0,0.1
1446040801923600680,2457,1446040801920214891,robocape,65.770860594,-22.3701350286,50.6396613902,0.0,10.0,0.0,0.0,0.0,10.0,0.0,0.0,0.0,10.0,0.031957933081,-0.159789665405,-0.112385398001,1.0,0.0,0.0,0.0,1.0,0.0,0.0,0.0,1.0,0.743653564453,9.75012451172,1.55317016602,0.1,0.0,0.0,0.0,0.1,0.0,0.0,0.0,0.1
1446040801956305847,2458,1446040801953197956,robocape,65.4397679081,-21.9029857974,50.3381645963,0.0,10.0,0.0,0.0,0.0,10.0,0.0,0.0,0.0,10.0,0.140082273338,0.0223705531567,0.0189084437396,1.0,0.0,0.0,0.0,1.0,0.0,0.0,0.0,1.0,0.760418701172,11.3955029297,0.540076904297,0.1,0.0,0.0,0.0,0.1,0.0,0.0,0.0,0.1
1446040801992585639,2459,1446040801989279985,robocape,64.7030115998,-21.5208472882,50.2152638287,0.0,10.0,0.0,0.0,0.0,10.0,0.0,0.0,0.0,10.0,-0.112784872165,0.0745685105222,0.034621094171,1.0,0.0,0.0,0.0,1.0,0.0,0.0,0.0,1.0,0.9196875,11.9870727539,0.444276123047,0.1,0.0,0.0,0.0,0.1,0.0,0.0,0.0,0.1
1446040802026010764,2460,1446040802022716045,robocape,63.8685120467,-21.0686586212,50.2670786517,0.0,10.0,0.0,0.0,0.0,10.0,0.0,0.0,0.0,10.0,-0.142745434428,0.168711255057,0.0303600364269,1.0,0.0,0.0,0.0,1.0,0.0,0.0,0.0,1.0,0.932860107422,10.4518652344,1.50526977539,0.1,0.0,0.0,0.0,0.1,0.0,0.0,0.0,0.1
1446040802057047430,2461,1446040802053977012,robocape,63.3428812055,-20.6221296159,50.2359783446,0.0,10.0,0.0,0.0,0.0,10.0,0.0,0.0,0.0,10.0,0.0648479725434,0.143144908592,0.068709556124,1.0,0.0,0.0,0.0,1.0,0.0,0.0,0.0,1.0,0.583187255859,10.055489502,1.62861328125,0.1,0.0,0.0,0.0,0.1,0.0,0.0,0.0,0.1
1446040802087708097,2462,1446040802084583997,robocape,63.0575811802,-20.1762917912,49.9363384399,0.0,10.0,0.0,0.0,0.0,10.0,0.0,0.0,0.0,10.0,0.137552270303,0.0262321367373,0.00719053494321,1.0,0.0,0.0,0.0,1.0,0.0,0.0,0.0,1.0,0.541274414062,10.8721911621,1.34839599609,0.1,0.0,0.0,0.0,0.1,0.0,0.0,0.0,0.1
1446040802117306139,2463,1446040802114156961,robocape,62.8490196837,-19.7448951789,49.4050953702,0.0,10.0,0.0,0.0,0.0,10.0,0.0,0.0,0.0,10.0,0.0992027506055,-0.0838895743375,-0.0707069269416,1.0,0.0,0.0,0.0,1.0,0.0,0.0,0.0,1.0,0.725690917969,11.2973071289,0.998723144531,0.1,0.0,0.0,0.0,0.1,0.0,0.0,0.0,0.1
1446040802149147097,2464,1446040802145699024,robocape,62.5172198807,-19.3399113602,48.9112941772,0.0,10.0,0.0,0.0,0.0,10.0,0.0,0.0,0.0,10.0,0.0138484376684,-0.0772316716123,-0.0761664071763,1.0,0.0,0.0,0.0,1.0,0.0,0.0,0.0,1.0,0.701740722656,10.9428442383,1.00351318359,0.1,0.0,0.0,0.0,0.1,0.0,0.0,0.0,0.1
1446040802185510055,2465,1446040802182152032,robocape,62.1361059709,-18.9518037086,48.6273121602,0.0,10.0,0.0,0.0,0.0,10.0,0.0,0.0,0.0,10.0,0.0527305895836,0.0165115987585,0.0,1.0,0.0,0.0,0.0,1.0,0.0,0.0,0.0,1.0,0.724493408203,10.8614135742,0.941242675781,0.1,0.0,0.0,0.0,0.1,0.0,0.0,0.0,0.1
1446040802220473097,2466,1446040802217068910,robocape,61.6104642029,-18.5832009164,48.4601413414,0.0,10.0,0.0,0.0,0.0,10.0,0.0,0.0,0.0,10.0,-0.0210389726116,0.0621848114534,0.0210389726116,1.0,0.0,0.0,0.0,1.0,0.0,0.0,0.0,1.0,0.693358154297,11.2386291504,0.787961425781,0.1,0.0,0.0,0.0,0.1,0.0,0.0,0.0,0.1
1446040802254252139,2467,1446040802250689983,robocape,61.0270874423,-18.2337361937,48.3100159799,0.0,10.0,0.0,0.0,0.0,10.0,0.0,0.0,0.0,10.0,-0.0651142886524,0.0643153403254,0.0209058145571,1.0,0.0,0.0,0.0,1.0,0.0,0.0,0.0,1.0,0.698148193359,10.6147265625,1.23463256836,0.1,0.0,0.0,0.0,0.1,0.0,0.0,0.0,0.1
1446040802287739097,2468,1446040802284461021,robocape,60.48928386,-17.9079066055,48.2178357994,0.0,10.0,0.0,0.0,0.0,10.0,0.0,0.0,0.0,10.0,-0.0131826473959,0.0884169481906,0.0619184953443,1.0,0.0,0.0,0.0,1.0,0.0,0.0,0.0,1.0,0.760418701172,10.6602319336,1.18553466797,0.1,0.0,0.0,0.0,0.1,0.0,0.0,0.0,0.1
1446040802318522472,2469,1446040802315463066,robocape,59.9763314208,-17.5484919431,48.0309205624,0.0,10.0,0.0,0.0,0.0,10.0,0.0,0.0,0.0,10.0,-0.0414121549507,0.0535295379106,0.00266316109008,1.0,0.0,0.0,0.0,1.0,0.0,0.0,0.0,1.0,1.06099365234,11.173963623,1.00351318359,0.1,0.0,0.0,0.0,0.1,0.0,0.0,0.0,0.1
1446040802349783472,2470,1446040802346729993,robocape,59.4380324228,-17.2034675129,47.8405384735,0.0,10.0,0.0,0.0,0.0,10.0,0.0,0.0,0.0,10.0,-0.067377975579,0.0482032157304,-0.00146473859954,1.0,0.0,0.0,0.0,1.0,0.0,0.0,0.0,1.0,0.649050292969,10.6650219727,1.21187988281,0.1,0.0,0.0,0.0,0.1,0.0,0.0,0.0,0.1
1446040802382676222,2471,1446040802379539966,robocape,59.0869527073,-16.8647048354,47.5621069651,0.0,10.0,0.0,0.0,0.0,10.0,0.0,0.0,0.0,10.0,0.0372842552611,0.0130494893414,-0.00479368996214,1.0,0.0,0.0,0.0,1.0,0.0,0.0,0.0,1.0,0.702938232422,10.3033740234,1.51724487305,0.1,0.0,0.0,0.0,0.1,0.0,0.0,0.0,0.1
1446040802412820472,2472,1446040802409624099,robocape,58.8381988502,-16.5252936456,47.2167986182,0.0,10.0,0.0,0.0,0.0,10.0,0.0,0.0,0.0,10.0,0.085354312937,-0.0139815957229,-0.0201068662301,1.0,0.0,0.0,0.0,1.0,0.0,0.0,0.0,1.0,0.762813720703,11.072175293,0.924477539063,0.1,0.0,0.0,0.0,0.1,0.0,0.0,0.0,0.1
1446040802447577014,2473,1446040802444480895,robocape,58.5046508085,-16.1915043972,46.8980260942,0.0,10.0,0.0,0.0,0.0,10.0,0.0,0.0,0.0,10.0,0.0262321367373,-0.00599211245268,-0.0278300333913,1.0,0.0,0.0,0.0,1.0,0.0,0.0,0.0,1.0,0.890947265625,10.8793762207,0.971180419922,0.1,0.0,0.0,0.0,0.1,0.0,0.0,0.0,0.1
1446040802478938805,2474,1446040802475677013,robocape,58.1148674568,-15.8927188308,46.6593002066,0.0,10.0,0.0,0.0,0.0,10.0,0.0,0.0,0.0,10.0,0.00932106381528,0.0202400242846,0.00852211548825,1.0,0.0,0.0,0.0,1.0,0.0,0.0,0.0,1.0,0.737666015625,10.7464526367,1.11248657227,0.1,0.0,0.0,0.0,0.1,0.0,0.0,0.0,0.1
1446040802519812222,2475,1446040802516740083,robocape,57.6932936996,-15.586769286,46.4650669807,0.0,10.0,0.0,0.0,0.0,10.0,0.0,0.0,0.0,10.0,-0.00692421883421,0.0416784710597,0.0118510668509,1.0,0.0,0.0,0.0,1.0,0.0,0.0,0.0,1.0,0.675395507813,11.0146948242,1.08135131836,0.1,0.0,0.0,0.0,0.1,0.0,0.0,0.0,0.1
1446040802551258305,2476,1446040802548029899,robocape,57.2830063064,-15.291701939,46.2476629661,0.0,10.0,0.0,0.0,0.0,10.0,0.0,0.0,0.0,10.0,-0.0105194863058,0.0290284558819,0.00506000607115,1.0,0.0,0.0,0.0,1.0,0.0,0.0,0.0,1.0,0.661025390625,10.7189099121,1.20229980469,0.1,0.0,0.0,0.0,0.1,0.0,0.0,0.0,0.1
1446040802582265931,2477,1446040802579191923,robocape,56.9269087467,-15.0014102323,46.0247169548,0.0,10.0,0.0,0.0,0.0,10.0,0.0,0.0,0.0,10.0,0.0221042370477,0.0272974011733,0.00932106381528,1.0,0.0,0.0,0.0,1.0,0.0,0.0,0.0,1.0,0.687370605469,10.8925488281,1.08973388672,0.1,0.0,0.0,0.0,0.1,0.0,0.0,0.0,0.1
1446040802611379306,2478,1446040802608284950,robocape,56.5441332989,-14.7165875039,45.7988935926,0.0,10.0,0.0,0.0,0.0,10.0,0.0,0.0,0.0,10.0,-0.00279631914458,0.0239684498107,0.00173105470855,1.0,0.0,0.0,0.0,1.0,0.0,0.0,0.0,1.0,0.699345703125,10.9176965332,1.08015380859,0.1,0.0,0.0,0.0,0.1,0.0,0.0,0.0,0.1
1446040802640467056,2479,1446040802637361049,robocape,56.176823611,-14.4370885142,45.5783993899,0.0,10.0,0.0,0.0,0.0,10.0,0.0,0.0,0.0,10.0,0.00519316412565,0.0256995045193,0.00439421579863,1.0,0.0,0.0,0.0,1.0,0.0,0.0,0.0,1.0,0.656235351563,10.7991430664,1.15559692383,0.1,0.0,0.0,0.0,0.1,0.0,0.0,0.0,0.1
1446040802670058097,2480,1446040802666939020,robocape,55.826418479,-14.1627405145,45.3616518247,0.0,10.0,0.0,0.0,0.0,10.0,0.0,0.0,0.0,10.0,0.0138484376684,0.0267647689553,0.0066579027252,1.0,0.0,0.0,0.0,1.0,0.0,0.0,0.0,1.0,0.675395507813,10.9212890625,1.08733886719,0.1,0.0,0.0,0.0,0.1,0.0,0.0,0.0,0.1
1446040802699673847,2481,1446040802696440935,robocape,55.4627212441,-13.8935448706,45.1471880723,0.0,10.0,0.0,0.0,0.0,10.0,0.0,0.0,0.0,10.0,0.00066579027252,0.0262321367373,0.00372842552611,1.0,0.0,0.0,0.0,1.0,0.0,0.0,0.0,1.0,0.686173095703,10.8793762207,1.08973388672,0.1,0.0,0.0,0.0,0.1,0.0,0.0,0.0,0.1
1446040802732948222,2482,1446040802729923963,robocape,55.1099736785,-13.629845973,44.9369189473,0.0,10.0,0.0,0.0,0.0,10.0,0.0,0.0,0.0,10.0,0.00532632218016,0.0271642431188,0.00559263828917,1.0,0.0,0.0,0.0,1.0,0.0,0.0,0.0,1.0,0.655037841797,10.8183032227,1.15559692383,0.1,0.0,0.0,0.0,0.1,0.0,0.0,0.0,0.1
1446040802767408889,2483,1446040802763223886,robocape,54.7688175257,-13.3709830818,44.7241802512,0.0,10.0,0.0,0.0,0.0,10.0,0.0,0.0,0.0,10.0,0.00865527354276,0.0253000303558,0.00452737385313,1.0,0.0,0.0,0.0,1.0,0.0,0.0,0.0,1.0,0.677790527344,10.9081164551,1.11368408203,0.1,0.0,0.0,0.0,0.1,0.0,0.0,0.0,0.1
1446040802801271722,2484,1446040802797806978,robocape,54.4226405991,-13.1168948654,44.5172833649,0.0,10.0,0.0,0.0,0.0,10.0,0.0,0.0,0.0,10.0,0.00266316109008,0.0266316109008,0.00452737385313,1.0,0.0,0.0,0.0,1.0,0.0,0.0,0.0,1.0,0.682580566406,10.8769812012,1.12206665039,0.1,0.0,0.0,0.0,0.1,0.0,0.0,0.0,0.1
1446040802832809972,2485,1446040802829783916,robocape,54.0877760562,-12.8677472637,44.3120127477,0.0,10.0,0.0,0.0,0.0,10.0,0.0,0.0,0.0,10.0,0.00705737688871,0.0264984528463,0.00532632218016,1.0,0.0,0.0,0.0,1.0,0.0,0.0,0.0,1.0,0.678988037109,10.8554260254,1.1112890625,0.1,0.0,0.0,0.0,0.1,0.0,0.0,0.0,0.1
1446040802866808431,2486,1446040802863346099,robocape,53.7562559275,-12.6231676773,44.1068808171,0.0,10.0,0.0,0.0,0.0,10.0,0.0,0.0,0.0,10.0,0.00559263828917,0.0255663464648,0.00426105774413,1.0,0.0,0.0,0.0,1.0,0.0,0.0,0.0,1.0,0.684975585938,10.8781787109,1.10290649414,0.1,0.0,0.0,0.0,0.1,0.0,0.0,0.0,0.1
1446040802899514139,2487,1446040802896493911,robocape,53.4262920696,-12.3835504325,43.9062652201,0.0,10.0,0.0,0.0,0.0,10.0,0.0,0.0,0.0,10.0,0.00412789968962,0.0263652947918,0.00506000607115,1.0,0.0,0.0,0.0,1.0,0.0,0.0,0.0,1.0,0.676593017578,10.8662036133,1.08135131836,0.1,0.0,0.0,0.0,0.1,0.0,0.0,0.0,0.1
1446040802932824764,2488,1446040802929774045,robocape,53.1038049606,-12.1485142785,43.7059334137,0.0,10.0,0.0,0.0,0.0,10.0,0.0,0.0,0.0,10.0,0.00572579634367,0.0255663464648,0.00479368996214,1.0,0.0,0.0,0.0,1.0,0.0,0.0,0.0,1.0,0.676593017578,10.8745861816,1.10290649414,0.1,0.0,0.0,0.0,0.1,0.0,0.0,0.0,0.1
1446040802966535014,2489,1446040802963182926,robocape,52.7839374218,-11.9176395061,43.508401796,0.0,10.0,0.0,0.0,0.0,10.0,0.0,0.0,0.0,10.0,0.00466053190764,0.0258326625738,0.00479368996214,1.0,0.0,0.0,0.0,1.0,0.0,0.0,0.0,1.0,0.690963134766,10.8733886719,1.12685668945,0.1,0.0,0.0,0.0,0.1,0.0,0.0,0.0,0.1
1446040802999619556,2490,1446040802996511936,robocape,52.4688446832,-11.6901680929,43.3130516509,0.0,10.0,0.0,0.0,0.0,10.0,0.0,0.0,0.0,10.0,0.00492684801665,0.0260989786828,0.00452737385313,1.0,0.0,0.0,0.0,1.0,0.0,0.0,0.0,1.0,0.678988037109,10.8662036133,1.11727661133,0.1,0.0,0.0,0.0,0.1,0.0,0.0,0.0,0.1
1446040803033080347,2491,1446040803029962062,robocape,52.159939834,-11.4666235536,43.1186625687,0.0,10.0,0.0,0.0,0.0,10.0,0.0,0.0,0.0,10.0,0.00599211245268,0.0256995045193,0.00426105774413,1.0,0.0,0.0,0.0,1.0,0.0,0.0,0.0,1.0,0.673000488281,10.8817712402,1.09212890625,0.1,0.0,0.0,0.0,0.1,0.0,0.0,0.0,0.1
1446040803066245431,2492,1446040803063050985,robocape,51.8546737873,-11.2467270958,42.9255423916,0.0,10.0,0.0,0.0,0.0,10.0,0.0,0.0,0.0,10.0,0.00545948023466,0.0254331884103,0.00372842552611,1.0,0.0,0.0,0.0,1.0,0.0,0.0,0.0,1.0,0.675395507813,10.8709936523,1.09452392578,0.1,0.0,0.0,0.0,0.1,0.0,0.0,0.0,0.1
1446040803099884889,2493,1446040803096798896,robocape,51.5540298518,-11.0309277409,42.7355538846,0.0,10.0,0.0,0.0,0.0,10.0,0.0,0.0,0.0,10.0,0.00612527050718,0.0258326625738,0.00439421579863,1.0,0.0,0.0,0.0,1.0,0.0,0.0,0.0,1.0,0.681383056641,10.8697961426,1.1148815918,0.1,0.0,0.0,0.0,0.1,0.0,0.0,0.0,0.1
1446040803132948764,2494,1446040803129841089,robocape,51.2573125742,-10.8183488047,42.5478310182,0.0,10.0,0.0,0.0,0.0,10.0,0.0,0.0,0.0,10.0,0.00612527050718,0.0260989786828,0.00426105774413,1.0,0.0,0.0,0.0,1.0,0.0,0.0,0.0,1.0,0.676593017578,10.8650061035,1.12086914062,0.1,0.0,0.0,0.0,0.1,0.0,0.0,0.0,0.1
1446040803170292931,2495,1446040803166837930,robocape,50.9640140597,-10.6101258453,42.3614018019,0.0,10.0,0.0,0.0,0.0,10.0,0.0,0.0,0.0,10.0,0.00572579634367,0.0255663464648,0.00426105774413,1.0,0.0,0.0,0.0,1.0,0.0,0.0,0.0,1.0,0.659827880859,10.8757836914,1.11368408203,0.1,0.0,0.0,0.0,0.1,0.0,0.0,0.0,0.1
1446040803208915431,2496,1446040803205724954,robocape,50.6742368157,-10.4056380518,42.1771025518,0.0,10.0,0.0,0.0,0.0,10.0,0.0,0.0,0.0,10.0,0.00559263828917,0.0255663464648,0.00439421579863,1.0,0.0,0.0,0.0,1.0,0.0,0.0,0.0,1.0,0.652642822266,10.8769812012,1.10170898438,0.1,0.0,0.0,0.0,0.1,0.0,0.0,0.0,0.1
1446040803243316347,2497,1446040803240232944,robocape,50.3347607914,-10.2168329753,42.0283188114,0.0,10.0,0.0,0.0,0.0,10.0,0.0,0.0,0.0,10.0,-0.0219710789932,0.0344879361165,0.018242653467,1.0,0.0,0.0,0.0,1.0,0.0,0.0,0.0,1.0,0.547261962891,10.7356750488,1.04303100586,0.1,0.0,0.0,0.0,0.1,0.0,0.0,0.0,0.1
1446040803282814931,2498,1446040803279478073,robocape,49.9252650624,-10.0124167894,41.8713244977,0.0,10.0,0.0,0.0,0.0,10.0,0.0,0.0,0.0,10.0,-0.0745685105222,0.034621094171,-0.0033289513626,1.0,0.0,0.0,0.0,1.0,0.0,0.0,0.0,1.0,0.989143066406,11.455378418,1.04542602539,0.1,0.0,0.0,0.0,0.1,0.0,0.0,0.0,0.1
1446040803314851348,2499,1446040803311309099,robocape,49.5129445178,-9.76699319871,41.7476812667,0.0,10.0,0.0,0.0,0.0,10.0,0.0,0.0,0.0,10.0,-0.0760332491218,0.0621848114534,-0.0109189604693,1.0,0.0,0.0,0.0,1.0,0.0,0.0,0.0,1.0,0.535286865234,10.7751928711,1.17475708008,0.1,0.0,0.0,0.0,0.1,0.0,0.0,0.0,0.1
1446040803354222473,2500,1446040803351130962,robocape,49.2292530985,-9.54080721718,41.671952296,0.0,10.0,0.0,0.0,0.0,10.0,0.0,0.0,0.0,10.0,0.0159789665405,0.0792290424299,0.0306263525359,1.0,0.0,0.0,0.0,1.0,0.0,0.0,0.0,1.0,0.615520019531,10.8015380859,1.33402587891,0.1,0.0,0.0,0.0,0.1,0.0,0.0,0.0,0.1
1446040803392901598,2501,1446040803386876106,robocape,48.971104185,-9.36741452642,41.4405865254,0.0,10.0,0.0,0.0,0.0,10.0,0.0,0.0,0.0,10.0,0.00279631914458,-0.00159789665405,-0.0119842249054,1.0,0.0,0.0,0.0,1.0,0.0,0.0,0.0,1.0,0.614322509766,10.7536376953,1.17715209961,0.1,0.0,0.0,0.0,0.1,0.0,0.0,0.0,0.1
1446040803433339723,2502,1446040803429893970,robocape,48.7325313068,-9.18376405426,41.2491480479,0.0,10.0,0.0,0.0,0.0,10.0,0.0,0.0,0.0,10.0,0.0199737081756,0.0187752856851,0.0,1.0,0.0,0.0,0.0,1.0,0.0,0.0,0.0,1.0,0.820294189453,10.7823779297,1.07057373047,0.1,0.0,0.0,0.0,0.1,0.0,0.0,0.0,0.1
1446040803471733389,2503,1446040803464965105,robocape,48.5100160591,-8.9749435085,41.0488685361,0.0,10.0,0.0,0.0,0.0,10.0,0.0,0.0,0.0,10.0,0.0246342400832,0.0241016078652,-0.0159789665405,1.0,0.0,0.0,0.0,1.0,0.0,0.0,0.0,1.0,0.855021972656,10.9093139648,1.27175537109,0.1,0.0,0.0,0.0,0.1,0.0,0.0,0.0,0.1
1446040803522521181,2504,1446040803519088029,robocape,48.2047693443,-8.77593735519,40.900663923,0.0,10.0,0.0,0.0,0.0,10.0,0.0,0.0,0.0,10.0,-0.0211721306661,0.0404800485692,-0.000133158054504,1.0,0.0,0.0,0.0,1.0,0.0,0.0,0.0,1.0,0.756826171875,11.3464050293,1.10649902344,0.1,0.0,0.0,0.0,0.1,0.0,0.0,0.0,0.1
1446040803560641723,2505,1446040803557318925,robocape,47.883717634,-8.6057208386,40.797619031,0.0,10.0,0.0,0.0,0.0,10.0,0.0,0.0,0.0,10.0,-0.0241016078652,0.0490021640575,0.0284958236638,1.0,0.0,0.0,0.0,1.0,0.0,0.0,0.0,1.0,0.562829589844,10.8099206543,1.28253295898,0.1,0.0,0.0,0.0,0.1,0.0,0.0,0.0,0.1
1446040803599187348,2506,1446040803595700025,robocape,47.6771309247,-8.42621598008,40.6390074492,0.0,10.0,0.0,0.0,0.0,10.0,0.0,0.0,0.0,10.0,0.0364853069341,0.0323574072445,0.00985369603329,1.0,0.0,0.0,0.0,1.0,0.0,0.0,0.0,1.0,0.585582275391,10.5081481934,1.36635864258,0.1,0.0,0.0,0.0,0.1,0.0,0.0,0.0,0.1
1446040803637568181,2507,1446040803632075071,robocape,47.6162577317,-8.28575683659,40.2735104586,0.0,10.0,0.0,0.0,0.0,10.0,0.0,0.0,0.0,10.0,0.0937432703708,-0.0613858631263,-0.0508663768205,1.0,0.0,0.0,0.0,1.0,0.0,0.0,0.0,1.0,0.707728271484,10.7033422852,1.07416625977,0.1,0.0,0.0,0.0,0.1,0.0,0.0,0.0,0.1
1446040803683575973,2508,1446040803680255889,robocape,47.4648809129,-8.14956952126,39.9679008494,0.0,10.0,0.0,0.0,0.0,10.0,0.0,0.0,0.0,10.0,0.0448742643678,-0.0408795227327,-0.034621094171,1.0,0.0,0.0,0.0,1.0,0.0,0.0,0.0,1.0,0.6514453125,10.8087231445,0.984353027344,0.1,0.0,0.0,0.0,0.1,0.0,0.0,0.0,0.1
1446040803711086931,2509,1446040803708112955,robocape,47.2793513534,-7.98690642127,39.7850033428,0.0,10.0,0.0,0.0,0.0,10.0,0.0,0.0,0.0,10.0,0.0407463646782,0.0167779148675,0.00133158054504,1.0,0.0,0.0,0.0,1.0,0.0,0.0,0.0,1.0,0.712518310547,10.9296716309,0.940045166016,0.1,0.0,0.0,0.0,0.1,0.0,0.0,0.0,0.1
1446040803743918348,2510,1446040803740797042,robocape,46.970489881,-7.8025272334,39.6911657588,0.0,10.0,0.0,0.0,0.0,10.0,0.0,0.0,0.0,10.0,-0.0263652947918,0.0575242795457,0.0167779148675,1.0,0.0,0.0,0.0,1.0,0.0,0.0,0.0,1.0,0.658630371094,11.1057055664,0.953217773438,0.1,0.0,0.0,0.0,0.1,0.0,0.0,0.0,0.1
1446040803777439973,2511,1446040803774116039,robocape,46.6365829599,-7.61922520144,39.6352843838,0.0,10.0,0.0,0.0,0.0,10.0,0.0,0.0,0.0,10.0,-0.0384826777516,0.0720385074866,0.0298274042089,1.0,0.0,0.0,0.0,1.0,0.0,0.0,0.0,1.0,0.644260253906,10.8051306152,1.22026245117,0.1,0.0,0.0,0.0,0.1,0.0,0.0,0.0,0.1
1446040803810713806,2512,1446040803807693004,robocape,46.3626529388,-7.44760633321,39.5489846514,0.0,10.0,0.0,0.0,0.0,10.0,0.0,0.0,0.0,10.0,-0.00719053494321,0.0573911214912,0.0256995045193,1.0,0.0,0.0,0.0,1.0,0.0,0.0,0.0,1.0,0.641865234375,10.7931555176,1.25738525391,0.1,0.0,0.0,0.0,0.1,0.0,0.0,0.0,0.1
1446040803844097348,2513,1446040803840822935,robocape,46.1275716463,-7.29589289164,39.3913409742,0.0,10.0,0.0,0.0,0.0,10.0,0.0,0.0,0.0,10.0,0.00479368996214,0.0231695014837,0.00479368996214,1.0,0.0,0.0,0.0,1.0,0.0,0.0,0.0,1.0,0.646655273438,10.8362658691,1.19032470703,0.1,0.0,0.0,0.0,0.1,0.0,0.0,0.0,0.1
1446040803877414681,2514,1446040803873914003,robocape,45.911469893,-7.14685984282,39.2287488573,0.0,10.0,0.0,0.0,0.0,10.0,0.0,0.0,0.0,10.0,0.0141147537774,0.0207726565026,0.00359526747161,1.0,0.0,0.0,0.0,1.0,0.0,0.0,0.0,1.0,0.656235351563,10.8949438477,1.06458618164,0.1,0.0,0.0,0.0,0.1,0.0,0.0,0.0,0.1
1446040803911847431,2515,1446040803908701896,robocape,45.6769713331,-6.99122189448,39.0852521297,0.0,10.0,0.0,0.0,0.0,10.0,0.0,0.0,0.0,10.0,0.0031957933081,0.0303600364269,0.00572579634367,1.0,0.0,0.0,0.0,1.0,0.0,0.0,0.0,1.0,0.640667724609,10.9548193359,1.09212890625,0.1,0.0,0.0,0.0,0.1,0.0,0.0,0.0,0.1
1446040803944003139,2516,1446040803940819025,robocape,45.4530268241,-6.84267733087,38.9350689591,0.0,10.0,0.0,0.0,0.0,10.0,0.0,0.0,0.0,10.0,0.00719053494321,0.0255663464648,0.00492684801665,1.0,0.0,0.0,0.0,1.0,0.0,0.0,0.0,1.0,0.637075195313,10.7943530273,1.19990478516,0.1,0.0,0.0,0.0,0.1,0.0,0.0,0.0,0.1
1446040803977993806,2517,1446040803974107980,robocape,45.2373821455,-6.69676774567,38.7858956466,0.0,10.0,0.0,0.0,0.0,10.0,0.0,0.0,0.0,10.0,0.0107858024148,0.0253000303558,0.00545948023466,1.0,0.0,0.0,0.0,1.0,0.0,0.0,0.0,1.0,0.647852783203,10.9452392578,1.08135131836,0.1,0.0,0.0,0.0,0.1,0.0,0.0,0.0,0.1
1446040804010726681,2518,1446040804007608890,robocape,45.0037142333,-6.55101755708,38.6436559275,0.0,10.0,0.0,0.0,0.0,10.0,0.0,0.0,0.0,10.0,-0.00133158054504,0.0276968753368,0.00532632218016,1.0,0.0,0.0,0.0,1.0,0.0,0.0,0.0,1.0,0.664617919922,10.8458459473,1.12086914062,0.1,0.0,0.0,0.0,0.1,0.0,0.0,0.0,0.1
1446040804044137890,2519,1446040804040761947,robocape,44.7901879586,-6.40920953404,38.5023859775,0.0,10.0,0.0,0.0,0.0,10.0,0.0,0.0,0.0,10.0,0.00972053797879,0.0271642431188,0.00745685105222,1.0,0.0,0.0,0.0,1.0,0.0,0.0,0.0,1.0,0.664617919922,10.8650061035,1.15439941406,0.1,0.0,0.0,0.0,0.1,0.0,0.0,0.0,0.1
1446040804077612598,2520,1446040804074074983,robocape,44.5721874297,-6.26910806622,38.3571263508,0.0,10.0,0.0,0.0,0.0,10.0,0.0,0.0,0.0,10.0,0.00466053190764,0.0250337142467,0.00439421579863,1.0,0.0,0.0,0.0,1.0,0.0,0.0,0.0,1.0,0.674197998047,10.8997338867,1.12206665039,0.1,0.0,0.0,0.0,0.1,0.0,0.0,0.0,0.1
1446040804111093223,2521,1446040804107578992,robocape,44.3553940244,-6.12910482629,38.219929188,0.0,10.0,0.0,0.0,0.0,10.0,0.0,0.0,0.0,10.0,0.00479368996214,0.0282295075548,0.00652474467069,1.0,0.0,0.0,0.0,1.0,0.0,0.0,0.0,1.0,0.643062744141,10.8638085938,1.11847412109,0.1,0.0,0.0,0.0,0.1,0.0,0.0,0.0,0.1
1446040804144228806,2522,1446040804140712976,robocape,44.1439944861,-5.99402304081,38.0771281134,0.0,10.0,0.0,0.0,0.0,10.0,0.0,0.0,0.0,10.0,0.00585895439817,0.0245010820287,0.00492684801665,1.0,0.0,0.0,0.0,1.0,0.0,0.0,0.0,1.0,0.641865234375,10.8865612793,1.13523925781,0.1,0.0,0.0,0.0,0.1,0.0,0.0,0.0,0.1
1446040804177318848,2523,1446040804173926115,robocape,43.9339504739,-5.85913914162,37.9394204864,0.0,10.0,0.0,0.0,0.0,10.0,0.0,0.0,0.0,10.0,0.00572579634367,0.0264984528463,0.00585895439817,1.0,0.0,0.0,0.0,1.0,0.0,0.0,0.0,1.0,0.647852783203,10.8973388672,1.12925170898,0.1,0.0,0.0,0.0,0.1,0.0,0.0,0.0,0.1
1446040804210845640,2524,1446040804207348108,robocape,43.7237977404,-5.72559819273,37.8041440895,0.0,10.0,0.0,0.0,0.0,10.0,0.0,0.0,0.0,10.0,0.00439421579863,0.0270310850643,0.00599211245268,1.0,0.0,0.0,0.0,1.0,0.0,0.0,0.0,1.0,0.667012939453,10.8817712402,1.149609375,0.1,0.0,0.0,0.0,0.1,0.0,0.0,0.0,0.1
1446040804252374890,2525,1446040804245165109,robocape,43.519164357,-5.59489223173,37.6665158918,0.0,10.0,0.0,0.0,0.0,10.0,0.0,0.0,0.0,10.0,0.00599211245268,0.0253000303558,0.00506000607115,1.0,0.0,0.0,0.0,1.0,0.0,0.0,0.0,1.0,0.667012939453,10.8566235352,1.12326416016,0.1,0.0,0.0,0.0,0.1,0.0,0.0,0.0,0.1
1446040804282556056,2526,1446040804279369115,robocape,43.3165936519,-5.46353514382,37.5314041262,0.0,10.0,0.0,0.0,0.0,10.0,0.0,0.0,0.0,10.0,0.00599211245268,0.0266316109008,0.00466053190764,1.0,0.0,0.0,0.0,1.0,0.0,0.0,0.0,1.0,0.662222900391,10.8877587891,1.1148815918,0.1,0.0,0.0,0.0,0.1,0.0,0.0,0.0,0.1
1446040804314651515,2527,1446040804311383962,robocape,43.1166039295,-5.33488885016,37.3971642084,0.0,10.0,0.0,0.0,0.0,10.0,0.0,0.0,0.0,10.0,0.00625842856169,0.0260989786828,0.00492684801665,1.0,0.0,0.0,0.0,1.0,0.0,0.0,0.0,1.0,0.657432861328,10.8757836914,1.12565917969,0.1,0.0,0.0,0.0,0.1,0.0,0.0,0.0,0.1
1446040804346446806,2528,1446040804343010902,robocape,42.9199135337,-5.20880138095,37.264350401,0.0,10.0,0.0,0.0,0.0,10.0,0.0,0.0,0.0,10.0,0.00705737688871,0.0258326625738,0.00545948023466,1.0,0.0,0.0,0.0,1.0,0.0,0.0,0.0,1.0,0.657432861328,10.8853637695,1.12685668945,0.1,0.0,0.0,0.0,0.1,0.0,0.0,0.0,0.1
1446040804391163556,2529,1446040804387903928,robocape,42.7209987171,-5.0828334038,37.1350775871,0.0,10.0,0.0,0.0,0.0,10.0,0.0,0.0,0.0,10.0,0.00466053190764,0.0271642431188,0.00559263828917,1.0,0.0,0.0,0.0,1.0,0.0,0.0,0.0,1.0,0.645457763672,10.8745861816,1.14721435547,0.1,0.0,0.0,0.0,0.1,0.0,0.0,0.0,0.1
1446040804423770473,2530,1446040804420495033,robocape,42.5271950327,-4.95950358779,37.0043869931,0.0,10.0,0.0,0.0,0.0,10.0,0.0,0.0,0.0,10.0,0.00625842856169,0.0258326625738,0.00506000607115,1.0,0.0,0.0,0.0,1.0,0.0,0.0,0.0,1.0,0.647852783203,10.8781787109,1.12685668945,0.1,0.0,0.0,0.0,0.1,0.0,0.0,0.0,0.1
1446040804455025640,2531,1446040804451602935,robocape,42.3340090512,-4.83788970329,36.874092093,0.0,10.0,0.0,0.0,0.0,10.0,0.0,0.0,0.0,10.0,0.00532632218016,0.0254331884103,0.00466053190764,1.0,0.0,0.0,0.0,1.0,0.0,0.0,0.0,1.0,0.667012939453,10.8793762207,1.13164672852,0.1,0.0,0.0,0.0,0.1,0.0,0.0,0.0,0.1
1446040804496654931,2532,1446040804493046998,robocape,42.143232849,-4.71725812889,36.7462516321,0.0,10.0,0.0,0.0,0.0,10.0,0.0,0.0,0.0,10.0,0.00572579634367,0.0260989786828,0.00506000607115,1.0,0.0,0.0,0.0,1.0,0.0,0.0,0.0,1.0,0.640667724609,10.8781787109,1.15080688477,0.1,0.0,0.0,0.0,0.1,0.0,0.0,0.0,0.1
1446040804519926765,2533,1446040804516489982,robocape,41.9541058054,-4.59806971426,36.6199445065,0.0,10.0,0.0,0.0,0.0,10.0,0.0,0.0,0.0,10.0,0.00559263828917,0.0262321367373,0.00519316412565,1.0,0.0,0.0,0.0,1.0,0.0,0.0,0.0,1.0,0.641865234375,10.8781787109,1.14002929688,0.1,0.0,0.0,0.0,0.1,0.0,0.0,0.0,0.1
1446040804543601348,2534,1446040804540595054,robocape,41.7669248315,-4.47907334818,36.4949501541,0.0,10.0,0.0,0.0,0.0,10.0,0.0,0.0,0.0,10.0,0.00559263828917,0.0267647689553,0.00479368996214,1.0,0.0,0.0,0.0,1.0,0.0,0.0,0.0,1.0,0.655037841797,10.8745861816,1.12326416016,0.1,0.0,0.0,0.0,0.1,0.0,0.0,0.0,0.1
1446040804577312390,2535,1446040804574018955,robocape,41.5823504411,-4.362018988,36.3705288067,0.0,10.0,0.0,0.0,0.0,10.0,0.0,0.0,0.0,10.0,0.00599211245268,0.0263652947918,0.00479368996214,1.0,0.0,0.0,0.0,1.0,0.0,0.0,0.0,1.0,0.674197998047,10.8733886719,1.14002929688,0.1,0.0,0.0,0.0,0.1,0.0,0.0,0.0,0.1
1446040804611012848,2536,1446040804607543945,robocape,41.3992247019,-4.2469435363,36.2467944135,0.0,10.0,0.0,0.0,0.0,10.0,0.0,0.0,0.0,10.0,0.00572579634367,0.0259658206283,0.00479368996214,1.0,0.0,0.0,0.0,1.0,0.0,0.0,0.0,1.0,0.659827880859,10.8781787109,1.12565917969,0.1,0.0,0.0,0.0,0.1,0.0,0.0,0.0,0.1
1446040804644277015,2537,1446040804640794038,robocape,41.2176434946,-4.13322584154,36.1256717699,0.0,10.0,0.0,0.0,0.0,10.0,0.0,0.0,0.0,10.0,0.00572579634367,0.0264984528463,0.00545948023466,1.0,0.0,0.0,0.0,1.0,0.0,0.0,0.0,1.0,0.646655273438,10.8709936523,1.11967163086,0.1,0.0,0.0,0.0,0.1,0.0,0.0,0.0,0.1
1446040804677266723,2538,1446040804674132108,robocape,41.0374763947,-4.02053363764,36.0053496538,0.0,10.0,0.0,0.0,0.0,10.0,0.0,0.0,0.0,10.0,0.00545948023466,0.0264984528463,0.00519316412565,1.0,0.0,0.0,0.0,1.0,0.0,0.0,0.0,1.0,0.639470214844,10.8697961426,1.14362182617,0.1,0.0,0.0,0.0,0.1,0.0,0.0,0.0,0.1
1446040804710482848,2539,1446040804707262039,robocape,40.8605315724,-3.90967724595,35.8851483319,0.0,10.0,0.0,0.0,0.0,10.0,0.0,0.0,0.0,10.0,0.00625842856169,0.0259658206283,0.00506000607115,1.0,0.0,0.0,0.0,1.0,0.0,0.0,0.0,1.0,0.647852783203,10.8697961426,1.11607910156,0.1,0.0,0.0,0.0,0.1,0.0,0.0,0.0,0.1
1446040804743868848,2540,1446040804740786075,robocape,40.68409245,-3.80026029738,35.7666393674,0.0,10.0,0.0,0.0,0.0,10.0,0.0,0.0,0.0,10.0,0.00559263828917,0.0260989786828,0.00532632218016,1.0,0.0,0.0,0.0,1.0,0.0,0.0,0.0,1.0,0.653840332031,10.8757836914,1.14362182617,0.1,0.0,0.0,0.0,0.1,0.0,0.0,0.0,0.1
1446040804777333348,2541,1446040804774219989,robocape,40.5113547206,-3.69158258309,35.6492914815,0.0,10.0,0.0,0.0,0.0,10.0,0.0,0.0,0.0,10.0,0.0067910607797,0.0263652947918,0.00532632218016,1.0,0.0,0.0,0.0,1.0,0.0,0.0,0.0,1.0,0.653840332031,10.8709936523,1.13643676758,0.1,0.0,0.0,0.0,0.1,0.0,0.0,0.0,0.1
1446040804810875557,2542,1446040804807219982,robocape,40.3394245774,-3.58237264509,35.5333389975,0.0,10.0,0.0,0.0,0.0,10.0,0.0,0.0,0.0,10.0,0.00625842856169,0.0271642431188,0.00479368996214,1.0,0.0,0.0,0.0,1.0,0.0,0.0,0.0,1.0,0.652642822266,10.8757836914,1.13164672852,0.1,0.0,0.0,0.0,0.1,0.0,0.0,0.0,0.1
1446040804843775432,2543,1446040804840554952,robocape,40.1691556413,-3.4754724153,35.4166365724,0.0,10.0,0.0,0.0,0.0,10.0,0.0,0.0,0.0,10.0,0.00612527050718,0.0260989786828,0.00439421579863,1.0,0.0,0.0,0.0,1.0,0.0,0.0,0.0,1.0,0.634680175781,10.8805737305,1.14242431641,0.1,0.0,0.0,0.0,0.1,0.0,0.0,0.0,0.1
1446040804877016723,2544,1446040804873903989,robocape,40.0000032673,-3.37043792938,35.3025026482,0.0,10.0,0.0,0.0,0.0,10.0,0.0,0.0,0.0,10.0,0.00599211245268,0.0263652947918,0.00532632218016,1.0,0.0,0.0,0.0,1.0,0.0,0.0,0.0,1.0,0.650247802734,10.8733886719,1.11967163086,0.1,0.0,0.0,0.0,0.1,0.0,0.0,0.0,0.1
1446040804910549598,2545,1446040804907300949,robocape,39.8322949203,-3.26624879269,35.1890388966,0.0,10.0,0.0,0.0,0.0,10.0,0.0,0.0,0.0,10.0,0.00585895439817,0.0263652947918,0.00506000607115,1.0,0.0,0.0,0.0,1.0,0.0,0.0,0.0,1.0,0.633482666016,10.8817712402,1.13284423828,0.1,0.0,0.0,0.0,0.1,0.0,0.0,0.0,0.1
1446040804943535057,2546,1446040804940512895,robocape,39.6665678187,-3.16311404489,35.0768435109,0.0,10.0,0.0,0.0,0.0,10.0,0.0,0.0,0.0,10.0,0.00612527050718,0.0264984528463,0.00519316412565,1.0,0.0,0.0,0.0,1.0,0.0,0.0,0.0,1.0,0.640667724609,10.8685986328,1.13523925781,0.1,0.0,0.0,0.0,0.1,0.0,0.0,0.0,0.1
1446040804977356765,2547,1446040804974023103,robocape,39.50231251,-3.06122405272,34.964644368,0.0,10.0,0.0,0.0,0.0,10.0,0.0,0.0,0.0,10.0,0.00599211245268,0.0260989786828,0.00479368996214,1.0,0.0,0.0,0.0,1.0,0.0,0.0,0.0,1.0,0.640667724609,10.8650061035,1.1148815918,0.1,0.0,0.0,0.0,0.1,0.0,0.0,0.0,0.1
1446040805010499182,2548,1446040805007348060,robocape,39.3390209961,-2.96014498269,34.8542700912,0.0,10.0,0.0,0.0,0.0,10.0,0.0,0.0,0.0,10.0,0.00572579634367,0.0264984528463,0.00506000607115,1.0,0.0,0.0,0.0,1.0,0.0,0.0,0.0,1.0,0.641865234375,10.8745861816,1.11967163086,0.1,0.0,0.0,0.0,0.1,0.0,0.0,0.0,0.1
1446040805043698723,2549,1446040805040529012,robocape,39.1763743884,-2.8607603863,34.7444633043,0.0,10.0,0.0,0.0,0.0,10.0,0.0,0.0,0.0,10.0,0.00519316412565,0.0260989786828,0.00506000607115,1.0,0.0,0.0,0.0,1.0,0.0,0.0,0.0,1.0,0.646655273438,10.8841662598,1.12326416016,0.1,0.0,0.0,0.0,0.1,0.0,0.0,0.0,0.1
1446040805076920098,2550,1446040805073873996,robocape,39.0169326075,-2.76203590391,34.6362300188,0.0,10.0,0.0,0.0,0.0,10.0,0.0,0.0,0.0,10.0,0.00625842856169,0.0264984528463,0.00532632218016,1.0,0.0,0.0,0.0,1.0,0.0,0.0,0.0,1.0,0.649050292969,10.8685986328,1.14242431641,0.1,0.0,0.0,0.0,0.1,0.0,0.0,0.0,0.1
1446040805110395265,2551,1446040805107222080,robocape,38.8589793642,-2.66472380954,34.5286053603,0.0,10.0,0.0,0.0,0.0,10.0,0.0,0.0,0.0,10.0,0.00625842856169,0.0262321367373,0.00532632218016,1.0,0.0,0.0,0.0,1.0,0.0,0.0,0.0,1.0,0.657432861328,10.862611084,1.12685668945,0.1,0.0,0.0,0.0,0.1,0.0,0.0,0.0,0.1
1446040805144093848,2552,1446040805140541076,robocape,38.7022463224,-2.56731690386,34.4221687793,0.0,10.0,0.0,0.0,0.0,10.0,0.0,0.0,0.0,10.0,0.00612527050718,0.0267647689553,0.00506000607115,1.0,0.0,0.0,0.0,1.0,0.0,0.0,0.0,1.0,0.646655273438,10.8745861816,1.13523925781,0.1,0.0,0.0,0.0,0.1,0.0,0.0,0.0,0.1
