%time,field.header.seq,field.header.stamp,field.header.frame_id,field.orientation.x,field.orientation.y,field.orientation.z,field.orientation.w,field.orientation_covariance0,field.orientation_covariance1,field.orientation_covariance2,field.orientation_covariance3,field.orientation_covariance4,field.orientation_covariance5,field.orientation_covariance6,field.orientation_covariance7,field.orientation_covariance8,field.angular_velocity.x,field.angular_velocity.y,field.angular_velocity.z,field.angular_velocity_covariance0,field.angular_velocity_covariance1,field.angular_velocity_covariance2,field.angular_velocity_covariance3,field.angular_velocity_covariance4,field.angular_velocity_covariance5,field.angular_velocity_covariance6,field.angular_velocity_covariance7,field.angular_velocity_covariance8,field.linear_acceleration.x,field.linear_acceleration.y,field.linear_acceleration.z,field.linear_acceleration_covariance0,field.linear_acceleration_covariance1,field.linear_acceleration_covariance2,field.linear_acceleration_covariance3,field.linear_acceleration_covariance4,field.linear_acceleration_covariance5,field.linear_acceleration_covariance6,field.linear_acceleration_covariance7,field.linear_acceleration_covariance8
1464076439532129122,222,1464076439250453575,,2.6543302536,0.455220013857,53.531124115,0.00155899999663,1.0,0.0,0.0,0.0,1.0,0.0,0.0,0.0,1.0,-1.2195122242,1.2804877758,-0.731707334518,1.0,0.0,0.0,0.0,1.0,0.0,0.0,0.0,1.0,0.45489831543,-0.632069238281,10.539275708,1.0,0.0,0.0,0.0,1.0,0.0,0.0,0.0,1.0
1464076439532473964,223,1464076439270758156,,2.63664245605,0.452072143555,54.5768928528,0.00555100012571,1.0,0.0,0.0,0.0,1.0,0.0,0.0,0.0,1.0,-1.15853655338,1.2804877758,-1.76829278469,1.0,0.0,0.0,0.0,1.0,0.0,0.0,0.0,1.0,-0.0335188255255,-0.387860668945,10.2280294922,1.0,0.0,0.0,0.0,1.0,0.0,0.0,0.0,1.0
1464076439532653912,224,1464076439294374759,,2.68025946617,0.434003949165,55.6418495178,0.00447800010443,1.0,0.0,0.0,0.0,1.0,0.0,0.0,0.0,1.0,-1.09756100178,3.10975623131,2.19512200356,1.0,0.0,0.0,0.0,1.0,0.0,0.0,0.0,1.0,-0.555454785156,-0.445321508789,10.2902787354,1.0,0.0,0.0,0.0,1.0,0.0,0.0,0.0,1.0
1464076439536167288,225,1464076439317315114,,2.70475172997,0.441740781069,56.7114486694,0.0024600001052,1.0,0.0,0.0,0.0,1.0,0.0,0.0,0.0,1.0,-0.670731723309,0.0609756112099,2.98780488968,1.0,0.0,0.0,0.0,1.0,0.0,0.0,0.0,1.0,0.627280834961,-0.167594116211,10.405200415,1.0,0.0,0.0,0.0,1.0,0.0,0.0,0.0,1.0
1464076439536272808,226,1464076439339611513,,2.6426949501,0.430238872766,57.6579856873,0.00265899999067,1.0,0.0,0.0,0.0,1.0,0.0,0.0,0.0,1.0,-0.548780500889,-0.731707334518,-1.03658533096,1.0,0.0,0.0,0.0,1.0,0.0,0.0,0.0,1.0,0.0143652099609,-0.296881024126,10.3860468018,1.0,0.0,0.0,0.0,1.0,0.0,0.0,0.0,1.0
1464076439536340204,227,1464076439361206976,,2.68760490417,0.409149467945,58.7316474915,0.0022839999292,1.0,0.0,0.0,0.0,1.0,0.0,0.0,0.0,1.0,-0.304878056049,2.25609779358,4.51219558716,1.0,0.0,0.0,0.0,1.0,0.0,0.0,0.0,1.0,-0.00478840332031,-0.445321508789,10.3381627686,1.0,0.0,0.0,0.0,1.0,0.0,0.0,0.0,1.0
1464076439536394839,228,1464076439390115857,,2.7739200592,0.425528496504,60.2535171509,0.0153550002724,1.0,0.0,0.0,0.0,1.0,0.0,0.0,0.0,1.0,-1.58536589146,2.80487799644,6.58536624908,1.0,0.0,0.0,0.0,1.0,0.0,0.0,0.0,1.0,-0.349553442383,-0.330399829102,10.3668931885,1.0,0.0,0.0,0.0,1.0,0.0,0.0,0.0,1.0
1464076439536439214,229,1464076439411247727,,2.68115401268,0.444267243147,61.2084388733,0.00243699993007,1.0,0.0,0.0,0.0,1.0,0.0,0.0,0.0,1.0,-0.792682945728,-4.32926845551,-2.74390244484,1.0,0.0,0.0,0.0,1.0,0.0,0.0,0.0,1.0,1.26892687988,-0.239420166016,9.95509050293,1.0,0.0,0.0,0.0,1.0,0.0,0.0,0.0,1.0
1464076439536494579,230,1464076439432049338,,2.55734753609,0.402211248875,62.0809936523,0.00343500007875,1.0,0.0,0.0,0.0,1.0,0.0,0.0,0.0,1.0,-1.2804877758,-0.792682945728,-2.86585378647,1.0,0.0,0.0,0.0,1.0,0.0,0.0,0.0,1.0,0.0287304199219,-0.814028564453,10.2423947021,1.0,0.0,0.0,0.0,1.0,0.0,0.0,0.0,1.0
1464076439536540360,231,1464076439456576616,,2.59018301964,0.381119757891,63.1757469177,0.00351199996658,1.0,0.0,0.0,0.0,1.0,0.0,0.0,0.0,1.0,1.15853655338,4.51219558716,3.90243911743,1.0,0.0,0.0,0.0,1.0,0.0,0.0,0.0,1.0,-0.0287304199219,-0.622492431641,10.6206785645,1.0,0.0,0.0,0.0,1.0,0.0,0.0,0.0,1.0
1464076439536898848,232,1464076439477693799,,2.68295192719,0.446766912937,64.2631835938,0.00251600006595,1.0,0.0,0.0,0.0,1.0,0.0,0.0,0.0,1.0,0.975609779358,5.73170757294,3.96341490746,1.0,0.0,0.0,0.0,1.0,0.0,0.0,0.0,1.0,-0.330399829102,-0.191536132812,10.1322614258,1.0,0.0,0.0,0.0,1.0,0.0,0.0,0.0,1.0
1464076439538034418,233,1464076439506059973,,2.72015810013,0.48853674531,65.2349472046,0.00215699989349,1.0,0.0,0.0,0.0,1.0,0.0,0.0,0.0,1.0,0.18292683363,2.19512200356,1.76829278469,1.0,0.0,0.0,0.0,1.0,0.0,0.0,0.0,1.0,-0.316034619141,-0.440533105469,10.3429511719,1.0,0.0,0.0,0.0,1.0,0.0,0.0,0.0,1.0
1464076439538240616,234,1464076439519492958,,2.69687628746,0.513169407845,66.2018051147,0.0030769999139,1.0,0.0,0.0,0.0,1.0,0.0,0.0,0.0,1.0,0.426829278469,-0.365853667259,0.243902444839,1.0,0.0,0.0,0.0,1.0,0.0,0.0,0.0,1.0,-0.0239420166016,-0.469263525391,10.2807019287,1.0,0.0,0.0,0.0,1.0,0.0,0.0,0.0,1.0
1464076439550540218,235,1464076439540946025,,2.65243029594,0.536519348621,67.1805038452,0.00213099992834,1.0,0.0,0.0,0.0,1.0,0.0,0.0,0.0,1.0,0.487804889679,0.0609756112099,0.426829278469,1.0,0.0,0.0,0.0,1.0,0.0,0.0,0.0,1.0,0.0,-0.478840332031,10.0700121826,1.0,0.0,0.0,0.0,1.0,0.0,0.0,0.0,1.0
1464076439573291042,236,1464076439563014351,,2.62916731834,0.563661336899,68.2106552124,0.00209499988705,1.0,0.0,0.0,0.0,1.0,0.0,0.0,0.0,1.0,0.243902444839,1.52439022064,1.46341466904,1.0,0.0,0.0,0.0,1.0,0.0,0.0,0.0,1.0,0.0335188255255,-0.497993945312,10.4243540283,1.0,0.0,0.0,0.0,1.0,0.0,0.0,0.0,1.0
1464076439590271518,237,1464076439585278823,,2.64671492577,0.584173321724,69.2536621094,0.00199100002646,1.0,0.0,0.0,0.0,1.0,0.0,0.0,0.0,1.0,0.914634168148,4.02439022064,2.62195134163,1.0,0.0,0.0,0.0,1.0,0.0,0.0,0.0,1.0,-0.225054956055,-0.632069238281,10.5057568848,1.0,0.0,0.0,0.0,1.0,0.0,0.0,0.0,1.0
1464076439663595175,238,1464076439607421576,,2.70531654358,0.610993564129,70.3215942383,0.00226199999452,1.0,0.0,0.0,0.0,1.0,0.0,0.0,0.0,1.0,0.426829278469,3.41463422775,3.7804877758,1.0,0.0,0.0,0.0,1.0,0.0,0.0,0.0,1.0,-0.344765039063,-0.301669427446,10.0939541992,1.0,0.0,0.0,0.0,1.0,0.0,0.0,0.0,1.0
1464076439663861216,239,1464076439629828651,,2.72383642197,0.641640424728,71.3439865112,0.0019729998894,1.0,0.0,0.0,0.0,1.0,0.0,0.0,0.0,1.0,-0.548780500889,0.914634168148,1.34146344662,1.0,0.0,0.0,0.0,1.0,0.0,0.0,0.0,1.0,-0.0909796630859,-0.239420166016,10.2136642822,1.0,0.0,0.0,0.0,1.0,0.0,0.0,0.0,1.0
1464076439664135278,240,1464076439649343182,,2.65166831017,0.644326388836,72.2682800293,0.00177299999632,1.0,0.0,0.0,0.0,1.0,0.0,0.0,0.0,1.0,-1.70731711388,-2.68292689323,-1.8902438879,1.0,0.0,0.0,0.0,1.0,0.0,0.0,0.0,1.0,0.387860668945,-0.296881024126,10.5344873047,1.0,0.0,0.0,0.0,1.0,0.0,0.0,0.0,1.0
1464076439705994124,241,1464076439673244004,,2.52278470993,0.609124004841,73.2074279785,0.0053969998844,1.0,0.0,0.0,0.0,1.0,0.0,0.0,0.0,1.0,-0.914634168148,1.09756100178,-0.792682945728,1.0,0.0,0.0,0.0,1.0,0.0,0.0,0.0,1.0,0.143652099609,-0.622492431641,10.5105452881,1.0,0.0,0.0,0.0,1.0,0.0,0.0,0.0,1.0
1464076439706028030,242,1464076439694260458,,2.57925581932,0.583558380604,74.2997360229,0.00430099992082,1.0,0.0,0.0,0.0,1.0,0.0,0.0,0.0,1.0,0.18292683363,4.20731735229,4.45121955872,1.0,0.0,0.0,0.0,1.0,0.0,0.0,0.0,1.0,-0.287304199219,-0.483628735352,10.1274730225,1.0,0.0,0.0,0.0,1.0,0.0,0.0,0.0,1.0
1464076439723938555,243,1464076439716943053,,2.65097212791,0.627091705799,75.3821716309,0.00155899999663,1.0,0.0,0.0,0.0,1.0,0.0,0.0,0.0,1.0,0.243902444839,3.84146332741,4.63414621353,1.0,0.0,0.0,0.0,1.0,0.0,0.0,0.0,1.0,-0.292092584273,-0.416591088867,10.060435376,1.0,0.0,0.0,0.0,1.0,0.0,0.0,0.0,1.0
1464076439745928444,244,1464076439737300603,,2.671230793,0.650324583054,76.4015426636,0.00175900000613,1.0,0.0,0.0,0.0,1.0,0.0,0.0,0.0,1.0,-0.18292683363,1.2195122242,3.7804877758,1.0,0.0,0.0,0.0,1.0,0.0,0.0,0.0,1.0,-0.239420166016,-0.301669427446,10.1035310059,1.0,0.0,0.0,0.0,1.0,0.0,0.0,0.0,1.0
1464076439812402953,245,1464076439758700806,,2.64883875847,0.653006196022,77.4215774536,0.00148700003047,1.0,0.0,0.0,0.0,1.0,0.0,0.0,0.0,1.0,-0.914634168148,-0.243902444839,3.53658556938,1.0,0.0,0.0,0.0,1.0,0.0,0.0,0.0,1.0,-0.0718260498047,-0.320823022461,10.3094323486,1.0,0.0,0.0,0.0,1.0,0.0,0.0,0.0,1.0
1464076439812454568,246,1464076439783129178,,2.60566020012,0.64861625433,78.4571456909,0.00172399997246,1.0,0.0,0.0,0.0,1.0,0.0,0.0,0.0,1.0,-1.2195122242,0.426829278469,4.51219558716,1.0,0.0,0.0,0.0,1.0,0.0,0.0,0.0,1.0,-0.172382519531,-0.541089611728,10.3046439453,1.0,0.0,0.0,0.0,1.0,0.0,0.0,0.0,1.0
1464076439812865400,247,1464076439804175736,,2.58169341087,0.646566748619,79.5861587524,0.00400799978524,1.0,0.0,0.0,0.0,1.0,0.0,0.0,0.0,1.0,-0.609756112099,1.58536589146,5.79268312454,1.0,0.0,0.0,0.0,1.0,0.0,0.0,0.0,1.0,-0.134075302102,-0.411802685547,10.3094323486,1.0,0.0,0.0,0.0,1.0,0.0,0.0,0.0,1.0
1464076439877860747,248,1464076439822768551,,2.60758209229,0.643380343914,80.6496124268,0.00187000003643,1.0,0.0,0.0,0.0,1.0,0.0,0.0,0.0,1.0,-0.609756112099,2.25609779358,7.19512224197,1.0,0.0,0.0,0.0,1.0,0.0,0.0,0.0,1.0,-0.15801730957,-0.598550451572,10.3190091553,1.0,0.0,0.0,0.0,1.0,0.0,0.0,0.0,1.0
1464076439878112985,249,1464076439844242139,,2.60978984833,0.645302891731,81.7871551514,0.00154700002167,1.0,0.0,0.0,0.0,1.0,0.0,0.0,0.0,1.0,-1.52439022064,1.2195122242,5.97560977936,1.0,0.0,0.0,0.0,1.0,0.0,0.0,0.0,1.0,0.100556469727,-0.732625708008,10.2807019287,1.0,0.0,0.0,0.0,1.0,0.0,0.0,0.0,1.0
1464076439878390537,250,1464076439864563438,,2.50916171074,0.648898124695,82.7567138672,0.00157299998682,1.0,0.0,0.0,0.0,1.0,0.0,0.0,0.0,1.0,-1.8292683363,-2.07317066193,-0.12195122242,1.0,0.0,0.0,0.0,1.0,0.0,0.0,0.0,1.0,0.584185168546,-0.344765039063,10.4099888184,1.0,0.0,0.0,0.0,1.0,0.0,0.0,0.0,1.0
1464076439898970586,251,1464076439885308643,,2.44239115715,0.599099636078,83.6673126221,0.00127500004601,1.0,0.0,0.0,0.0,1.0,0.0,0.0,0.0,1.0,-1.95121955872,2.92682933807,0.853658556938,1.0,0.0,0.0,0.0,1.0,0.0,0.0,0.0,1.0,-0.871489404297,-0.823605371094,10.3764699951,1.0,0.0,0.0,0.0,1.0,0.0,0.0,0.0,1.0
1464076439913238516,252,1464076439906813950,,2.55742168427,0.580794751644,84.7517547607,0.00132000003941,1.0,0.0,0.0,0.0,1.0,0.0,0.0,0.0,1.0,-0.975609779358,6.15853643417,7.80487823486,1.0,0.0,0.0,0.0,1.0,0.0,0.0,0.0,1.0,-0.675164868164,-0.555454785156,10.419565625,1.0,0.0,0.0,0.0,1.0,0.0,0.0,0.0,1.0
1464076439936202309,253,1464076439928845922,,2.61274123192,0.610767364502,85.8814086914,0.00135899998713,1.0,0.0,0.0,0.0,1.0,0.0,0.0,0.0,1.0,-2.19512200356,4.39024400711,5.42682933807,1.0,0.0,0.0,0.0,1.0,0.0,0.0,0.0,1.0,0.0239420166016,-0.220266552734,10.2328178955,1.0,0.0,0.0,0.0,1.0,0.0,0.0,0.0,1.0
1464076439966095979,254,1464076439951257633,,2.6039686203,0.596424221992,86.8961868286,0.00197599991225,1.0,0.0,0.0,0.0,1.0,0.0,0.0,0.0,1.0,-1.46341466904,-0.304878056049,-0.853658556938,1.0,0.0,0.0,0.0,1.0,0.0,0.0,0.0,1.0,-0.225054956055,-0.469263525391,10.2950671387,1.0,0.0,0.0,0.0,1.0,0.0,0.0,0.0,1.0
1464076439978467352,255,1464076439971684818,,2.55655813217,0.568030714989,87.7981491089,0.00312900007702,1.0,0.0,0.0,0.0,1.0,0.0,0.0,0.0,1.0,-0.792682945728,2.5,-0.0609756112099,1.0,0.0,0.0,0.0,1.0,0.0,0.0,0.0,1.0,-0.373495458984,-0.45489831543,9.84016882324,1.0,0.0,0.0,0.0,1.0,0.0,0.0,0.0,1.0
1464076440002254476,256,1464076439992837261,,2.59100222588,0.535632967949,88.8221130371,0.00248900009319,1.0,0.0,0.0,0.0,1.0,0.0,0.0,0.0,1.0,-0.18292683363,4.14634132385,4.14634132385,1.0,0.0,0.0,0.0,1.0,0.0,0.0,0.0,1.0,-0.627280834961,-0.521935925381,9.99339772949,1.0,0.0,0.0,0.0,1.0,0.0,0.0,0.0,1.0
1464076440031821063,257,1464076440013397935,,2.57131004333,0.560915768147,89.8081588745,0.00112300005276,1.0,0.0,0.0,0.0,1.0,0.0,0.0,0.0,1.0,1.03658533096,0.670731723309,-1.15853655338,1.0,0.0,0.0,0.0,1.0,0.0,0.0,0.0,1.0,0.282515795898,-0.416591088867,10.3237975586,1.0,0.0,0.0,0.0,1.0,0.0,0.0,0.0,1.0
1464076440070513355,258,1464076440034507202,,2.52965307236,0.572205662727,90.696937561,0.00209100008942,1.0,0.0,0.0,0.0,1.0,0.0,0.0,0.0,1.0,0.670731723309,3.10975623131,-1.2195122242,1.0,0.0,0.0,0.0,1.0,0.0,0.0,0.0,1.0,-0.359130249023,-0.694318481445,10.1274730225,1.0,0.0,0.0,0.0,1.0,0.0,0.0,0.0,1.0
1464076440070554136,259,1464076440056016779,,2.60618638992,0.580449163914,91.6594085693,0.00205600005575,1.0,0.0,0.0,0.0,1.0,0.0,0.0,0.0,1.0,0.853658556938,3.90243911743,3.59756112099,1.0,0.0,0.0,0.0,1.0,0.0,0.0,0.0,1.0,0.0287304199219,-0.632069238281,10.4243540283,1.0,0.0,0.0,0.0,1.0,0.0,0.0,0.0,1.0
1464076440094231989,260,1464076440078712812,,2.67878651619,0.651189982891,92.765045166,0.00284500000998,1.0,0.0,0.0,0.0,1.0,0.0,0.0,0.0,1.0,1.95121955872,3.71951246262,3.59756112099,1.0,0.0,0.0,0.0,1.0,0.0,0.0,0.0,1.0,-0.383072265625,-0.392649072266,10.1609918457,1.0,0.0,0.0,0.0,1.0,0.0,0.0,0.0,1.0
1464076440164892008,261,1464076440101327856,,2.69631075859,0.701862037182,93.8461914062,0.00206200010143,1.0,0.0,0.0,0.0,1.0,0.0,0.0,0.0,1.0,0.426829278469,0.609756112099,2.74390244484,1.0,0.0,0.0,0.0,1.0,0.0,0.0,0.0,1.0,-0.292092584273,-0.421379492187,10.2232410889,1.0,0.0,0.0,0.0,1.0,0.0,0.0,0.0,1.0
1464076440164967320,262,1464076440122866756,,2.65552973747,0.71588653326,94.9093856812,0.00310000008903,1.0,0.0,0.0,0.0,1.0,0.0,0.0,0.0,1.0,0.487804889679,0.670731723309,3.71951246262,1.0,0.0,0.0,0.0,1.0,0.0,0.0,0.0,1.0,-0.0718260498047,-0.45489831543,10.4770264648,1.0,0.0,0.0,0.0,1.0,0.0,0.0,0.0,1.0
1464076440165010497,263,1464076440144573156,,2.6529417038,0.729522943497,96.003578186,0.00220600003377,1.0,0.0,0.0,0.0,1.0,0.0,0.0,0.0,1.0,0.548780500889,2.62195134163,5.91463422775,1.0,0.0,0.0,0.0,1.0,0.0,0.0,0.0,1.0,-0.181959326172,-0.603338854892,10.5440641113,1.0,0.0,0.0,0.0,1.0,0.0,0.0,0.0,1.0
1464076440171639073,264,1464076440165982214,,2.69180750847,0.757828354836,97.1287155151,0.00167599995621,1.0,0.0,0.0,0.0,1.0,0.0,0.0,0.0,1.0,-0.304878056049,2.31707310677,6.95121955872,1.0,0.0,0.0,0.0,1.0,0.0,0.0,0.0,1.0,-0.220266552734,-0.0718260498047,10.0748005859,1.0,0.0,0.0,0.0,1.0,0.0,0.0,0.0,1.0
1464076440221227170,265,1464076440186945439,,2.64180254936,0.750475883484,98.1678771973,0.00139500002842,1.0,0.0,0.0,0.0,1.0,0.0,0.0,0.0,1.0,-2.13414645195,-2.01219511032,1.70731711388,1.0,0.0,0.0,0.0,1.0,0.0,0.0,0.0,1.0,0.124498486328,-0.253785375977,10.180145459,1.0,0.0,0.0,0.0,1.0,0.0,0.0,0.0,1.0
1464076440221463002,266,1464076440209215691,,2.54046607018,0.706437826157,99.135093689,0.00156100001186,1.0,0.0,0.0,0.0,1.0,0.0,0.0,0.0,1.0,-2.31707310677,-2.5,-1.8902438879,1.0,0.0,0.0,0.0,1.0,0.0,0.0,0.0,1.0,0.110133276367,-0.545877978516,10.0939541992,1.0,0.0,0.0,0.0,1.0,0.0,0.0,0.0,1.0
1464076440245570750,267,1464076440229739491,,2.44724702835,0.660792410374,100.040618896,0.00132299994584,1.0,0.0,0.0,0.0,1.0,0.0,0.0,0.0,1.0,-1.8292683363,2.01219511032,-0.914634168148,1.0,0.0,0.0,0.0,1.0,0.0,0.0,0.0,1.0,0.239420166016,-0.545877978516,10.2184526855,1.0,0.0,0.0,0.0,1.0,0.0,0.0,0.0,1.0
1464076440257973165,268,1464076440251321881,,2.51215910912,0.625431418419,101.023864746,0.00191899994388,1.0,0.0,0.0,0.0,1.0,0.0,0.0,0.0,1.0,-0.426829278469,7.31707334518,3.71951246262,1.0,0.0,0.0,0.0,1.0,0.0,0.0,0.0,1.0,-0.00478840332031,-0.61770402832,10.6063133545,1.0,0.0,0.0,0.0,1.0,0.0,0.0,0.0,1.0
1464076440314159837,269,1464076440284179553,,2.66886973381,0.637265503407,102.49281311,0.0131569998339,1.0,0.0,0.0,0.0,1.0,0.0,0.0,0.0,1.0,-1.46341466904,4.51219558716,2.19512200356,1.0,0.0,0.0,0.0,1.0,0.0,0.0,0.0,1.0,-0.272938989258,-0.277727392578,10.3190091553,1.0,0.0,0.0,0.0,1.0,0.0,0.0,0.0,1.0
1464076440315484625,270,1464076440302457785,,2.70564365387,0.623560190201,103.449920654,0.00139300001319,1.0,0.0,0.0,0.0,1.0,0.0,0.0,0.0,1.0,-1.58536589146,2.01219511032,0.304878056049,1.0,0.0,0.0,0.0,1.0,0.0,0.0,0.0,1.0,-0.411802685547,-0.392649072266,10.1562034424,1.0,0.0,0.0,0.0,1.0,0.0,0.0,0.0,1.0
1464076440345669648,271,1464076440324010540,,2.69293022156,0.593738079071,104.414878845,0.0023499999661,1.0,0.0,0.0,0.0,1.0,0.0,0.0,0.0,1.0,-0.975609779358,0.365853667259,-0.0609756112099,1.0,0.0,0.0,0.0,1.0,0.0,0.0,0.0,1.0,0.0,-0.536301208408,10.0700121826,1.0,0.0,0.0,0.0,1.0,0.0,0.0,0.0,1.0
1464076440354594520,272,1464076440346044022,,2.6582775116,0.582440078259,105.395210266,0.00179899996147,1.0,0.0,0.0,0.0,1.0,0.0,0.0,0.0,1.0,-0.426829278469,1.03658533096,0.548780500889,1.0,0.0,0.0,0.0,1.0,0.0,0.0,0.0,1.0,0.067037651051,-0.703895288086,10.3285859619,1.0,0.0,0.0,0.0,1.0,0.0,0.0,0.0,1.0
1464076440375607902,273,1464076440366930477,,2.64368677139,0.596851527691,106.408813477,0.00161299994215,1.0,0.0,0.0,0.0,1.0,0.0,0.0,0.0,1.0,0.853658556938,2.13414645195,2.07317066193,1.0,0.0,0.0,0.0,1.0,0.0,0.0,0.0,1.0,-0.0335188255255,-0.569819995117,10.1992990723,1.0,0.0,0.0,0.0,1.0,0.0,0.0,0.0,1.0
1464076440399970701,274,1464076440388711200,,2.65154385567,0.628712117672,107.419464111,0.00246499991044,1.0,0.0,0.0,0.0,1.0,0.0,0.0,0.0,1.0,0.548780500889,2.25609779358,2.86585378647,1.0,0.0,0.0,0.0,1.0,0.0,0.0,0.0,1.0,-0.119710083008,-0.421379492187,10.1418382324,1.0,0.0,0.0,0.0,1.0,0.0,0.0,0.0,1.0
1464076440418722005,275,1464076440410597547,,2.64859819412,0.650362610817,108.481201172,0.00188400002662,1.0,0.0,0.0,0.0,1.0,0.0,0.0,0.0,1.0,0.12195122242,1.46341466904,2.74390244484,1.0,0.0,0.0,0.0,1.0,0.0,0.0,0.0,1.0,-0.0718260498047,-0.478840332031,10.2232410889,1.0,0.0,0.0,0.0,1.0,0.0,0.0,0.0,1.0
1464076440436970758,276,1464076440433969464,,2.6503534317,0.664754748344,109.524169922,0.0015640000347,1.0,0.0,0.0,0.0,1.0,0.0,0.0,0.0,1.0,-0.18292683363,0.243902444839,3.29268312454,1.0,0.0,0.0,0.0,1.0,0.0,0.0,0.0,1.0,-0.0909796630859,-0.162805712891,10.2088758789,1.0,0.0,0.0,0.0,1.0,0.0,0.0,0.0,1.0
1464076440460099446,277,1464076440453965921,,2.65623235703,0.668388009071,110.533317566,0.00212200009264,1.0,0.0,0.0,0.0,1.0,0.0,0.0,0.0,1.0,-1.2804877758,1.2804877758,3.59756112099,1.0,0.0,0.0,0.0,1.0,0.0,0.0,0.0,1.0,-0.00957680664062,-0.421379492187,10.3956236084,1.0,0.0,0.0,0.0,1.0,0.0,0.0,0.0,1.0
1464076440484358235,278,1464076440474611282,,2.63244342804,0.650722622871,111.567184448,0.00215500011109,1.0,0.0,0.0,0.0,1.0,0.0,0.0,0.0,1.0,-2.56097555161,-0.12195122242,2.01219511032,1.0,0.0,0.0,0.0,1.0,0.0,0.0,0.0,1.0,0.105344873047,-0.478840332031,10.5344873047,1.0,0.0,0.0,0.0,1.0,0.0,0.0,0.0,1.0
1464076440504276359,279,1464076440499013560,,2.58399319649,0.607921242714,112.615821838,0.00230600009672,1.0,0.0,0.0,0.0,1.0,0.0,0.0,0.0,1.0,-2.98780488968,0.853658556938,1.2195122242,1.0,0.0,0.0,0.0,1.0,0.0,0.0,0.0,1.0,0.15322890625,-0.45489831543,10.5009684814,1.0,0.0,0.0,0.0,1.0,0.0,0.0,0.0,1.0
1464076440587345355,280,1464076440518221269,,2.55091452599,0.561782240868,113.557197571,0.00151299999561,1.0,0.0,0.0,0.0,1.0,0.0,0.0,0.0,1.0,-2.98780488968,0.18292683363,-0.731707334518,1.0,0.0,0.0,0.0,1.0,0.0,0.0,0.0,1.0,0.497993945312,-0.45489831543,10.5823713379,1.0,0.0,0.0,0.0,1.0,0.0,0.0,0.0,1.0
1464076440587400771,281,1464076440540973969,,2.56972002983,0.515055954456,114.517295837,0.00192099995911,1.0,0.0,0.0,0.0,1.0,0.0,0.0,0.0,1.0,-3.04878044128,5.18292713165,2.25609779358,1.0,0.0,0.0,0.0,1.0,0.0,0.0,0.0,1.0,-0.612915625,-0.545877978516,10.5632177246,1.0,0.0,0.0,0.0,1.0,0.0,0.0,0.0,1.0
1464076440587441448,282,1464076440559879022,,2.71230149269,0.474215000868,115.567558289,0.00162899994757,1.0,0.0,0.0,0.0,1.0,0.0,0.0,0.0,1.0,-2.80487799644,6.95121955872,6.64634132385,1.0,0.0,0.0,0.0,1.0,0.0,0.0,0.0,1.0,-1.0534486574,-0.373495458984,9.93593688965,1.0,0.0,0.0,0.0,1.0,0.0,0.0,0.0,1.0
1464076440587922176,283,1464076440582176983,,2.81267595291,0.462503284216,116.71598053,0.00234699994326,1.0,0.0,0.0,0.0,1.0,0.0,0.0,0.0,1.0,-4.63414621353,2.98780488968,6.0365858078,1.0,0.0,0.0,0.0,1.0,0.0,0.0,0.0,1.0,-0.679953271484,-0.0909796630859,10.0652237793,1.0,0.0,0.0,0.0,1.0,0.0,0.0,0.0,1.0
1464076440638791623,284,1464076440603791092,,2.78780174255,0.401280552149,117.760063171,0.0015419999836,1.0,0.0,0.0,0.0,1.0,0.0,0.0,0.0,1.0,-6.09756088257,-1.52439022064,2.68292689323,1.0,0.0,0.0,0.0,1.0,0.0,0.0,0.0,1.0,-0.196324536133,-0.373495458984,10.4243540283,1.0,0.0,0.0,0.0,1.0,0.0,0.0,0.0,1.0
1464076440642356457,285,1464076440625243743,,2.72589802742,0.319254249334,118.787696838,0.0019499999471,1.0,0.0,0.0,0.0,1.0,0.0,0.0,0.0,1.0,-5.48780488968,-0.426829278469,4.08536577225,1.0,0.0,0.0,0.0,1.0,0.0,0.0,0.0,1.0,-0.205901342773,-0.411802685547,10.5440641113,1.0,0.0,0.0,0.0,1.0,0.0,0.0,0.0,1.0
1464076440776558910,286,1464076440646265197,,2.73700976372,0.24035346508,119.885902405,0.00122199999169,1.0,0.0,0.0,0.0,1.0,0.0,0.0,0.0,1.0,-5.36585378647,2.19512200356,7.25609779358,1.0,0.0,0.0,0.0,1.0,0.0,0.0,0.0,1.0,-0.114921679688,-0.402225878906,10.553640918,1.0,0.0,0.0,0.0,1.0,0.0,0.0,0.0,1.0
1464076440776832972,287,1464076440666750454,,2.81814956665,0.17011885345,121.024353027,0.00148800003808,1.0,0.0,0.0,0.0,1.0,0.0,0.0,0.0,1.0,-6.15853643417,5.79268312454,10.3658542633,1.0,0.0,0.0,0.0,1.0,0.0,0.0,0.0,1.0,-0.363918652344,-0.478840332031,10.7499654541,1.0,0.0,0.0,0.0,1.0,0.0,0.0,0.0,1.0
1464076440777100731,288,1464076440691212889,,2.96315956116,0.108162261546,122.242347717,0.00175900000613,1.0,0.0,0.0,0.0,1.0,0.0,0.0,0.0,1.0,-5.06097555161,6.09756088257,10.7317075729,1.0,0.0,0.0,0.0,1.0,0.0,0.0,0.0,1.0,-0.612915625,-0.268150604204,10.5680061279,1.0,0.0,0.0,0.0,1.0,0.0,0.0,0.0,1.0
1464076440777396095,289,1464076440710866846,,3.11837100983,0.0529299043119,123.406997681,0.0018530000234,1.0,0.0,0.0,0.0,1.0,0.0,0.0,0.0,1.0,-5.91463422775,6.21951246262,13.1097564697,1.0,0.0,0.0,0.0,1.0,0.0,0.0,0.0,1.0,-1.11090957031,-0.339976635742,10.6254669678,1.0,0.0,0.0,0.0,1.0,0.0,0.0,0.0,1.0
1464076440778243541,290,1464076440732412153,,3.28673434258,-0.00109869905282,124.759361267,0.00373900006525,1.0,0.0,0.0,0.0,1.0,0.0,0.0,0.0,1.0,-5.60975599289,7.62195110321,14.5731706619,1.0,0.0,0.0,0.0,1.0,0.0,0.0,0.0,1.0,-0.742202514648,-0.354341845703,10.5344873047,1.0,0.0,0.0,0.0,1.0,0.0,0.0,0.0,1.0
1464076440778788018,291,1464076440756597922,,3.45997786522,-0.0515962429345,126.16758728,0.00804500002414,1.0,0.0,0.0,0.0,1.0,0.0,0.0,0.0,1.0,-6.15853643417,5.18292713165,13.9634151459,1.0,0.0,0.0,0.0,1.0,0.0,0.0,0.0,1.0,-0.430956298828,-0.335188232422,10.0317049561,1.0,0.0,0.0,0.0,1.0,0.0,0.0,0.0,1.0
1464076440779179892,292,1464076440776306202,,3.52748465538,-0.0820937082171,127.395797729,0.00137399998493,1.0,0.0,0.0,0.0,1.0,0.0,0.0,0.0,1.0,-5.60975599289,7.07317113876,13.2317075729,1.0,0.0,0.0,0.0,1.0,0.0,0.0,0.0,1.0,-0.416591088867,-0.339976635742,10.1992990723,1.0,0.0,0.0,0.0,1.0,0.0,0.0,0.0,1.0
1464076440815931721,293,1464076440797867238,,3.70746016502,-0.121036976576,128.643356323,0.00153699994553,1.0,0.0,0.0,0.0,1.0,0.0,0.0,0.0,1.0,-5.24390268326,8.71951198578,16.5853652954,1.0,0.0,0.0,0.0,1.0,0.0,0.0,0.0,1.0,-0.584185168546,-0.263362164351,9.95509050293,1.0,0.0,0.0,0.0,1.0,0.0,0.0,0.0,1.0
1464076440821586393,294,1464076440818992963,,3.91859412193,-0.139072060585,129.978179932,0.00142500002403,1.0,0.0,0.0,0.0,1.0,0.0,0.0,0.0,1.0,-6.89024400711,9.51219558716,19.6341457367,1.0,0.0,0.0,0.0,1.0,0.0,0.0,0.0,1.0,-0.435744702148,-0.143652099609,10.2519715088,1.0,0.0,0.0,0.0,1.0,0.0,0.0,0.0,1.0
1464076440846930440,295,1464076440841476496,,4.17019987106,-0.169700920582,131.448898315,0.0120599996299,1.0,0.0,0.0,0.0,1.0,0.0,0.0,0.0,1.0,-5.85365867615,10.3048782349,22.9878044128,1.0,0.0,0.0,0.0,1.0,0.0,0.0,0.0,1.0,-0.833182177734,-0.387860668945,9.92157167969,1.0,0.0,0.0,0.0,1.0,0.0,0.0,0.0,1.0
1464076440866845126,296,1464076440862776751,,4.42170524597,-0.192521467805,132.995437622,0.00243599992245,1.0,0.0,0.0,0.0,1.0,0.0,0.0,0.0,1.0,-6.0365858078,7.31707334518,24.5731716156,1.0,0.0,0.0,0.0,1.0,0.0,0.0,0.0,1.0,-0.962469067383,-0.215478149414,9.84016882324,1.0,0.0,0.0,0.0,1.0,0.0,0.0,0.0,1.0
1464076440918130405,297,1464076440884368308,,4.55071306229,-0.208574488759,134.521469116,0.0016459999606,1.0,0.0,0.0,0.0,1.0,0.0,0.0,0.0,1.0,-6.28048801422,3.10975623131,24.0243911743,1.0,0.0,0.0,0.0,1.0,0.0,0.0,0.0,1.0,-0.550666381836,-0.320823022461,9.74440075684,1.0,0.0,0.0,0.0,1.0,0.0,0.0,0.0,1.0
1464076440918418842,298,1464076440905645334,,4.66820812225,-0.22322268784,136.077911377,0.00168700003996,1.0,0.0,0.0,0.0,1.0,0.0,0.0,0.0,1.0,-6.46341466904,3.65853667259,29.3292694092,1.0,0.0,0.0,0.0,1.0,0.0,0.0,0.0,1.0,-1.31202250977,-0.445321508789,10.1705686523,1.0,0.0,0.0,0.0,1.0,0.0,0.0,0.0,1.0
1464076440976993789,299,1464076440927250745,,4.77413129807,-0.217876315117,137.73576355,0.00185600004625,1.0,0.0,0.0,0.0,1.0,0.0,0.0,0.0,1.0,-5.42682933807,1.40243899822,33.5975608826,1.0,0.0,0.0,0.0,1.0,0.0,0.0,0.0,1.0,-1.09654436035,-0.349553442383,10.0843773926,1.0,0.0,0.0,0.0,1.0,0.0,0.0,0.0,1.0
1464076440978994409,300,1464076440948319022,,4.82189226151,-0.211360484362,139.429092407,0.00180800003,1.0,0.0,0.0,0.0,1.0,0.0,0.0,0.0,1.0,-6.15853643417,-0.609756112099,36.8292694092,1.0,0.0,0.0,0.0,1.0,0.0,0.0,0.0,1.0,-1.32159931641,-0.545877978516,10.1609918457,1.0,0.0,0.0,0.0,1.0,0.0,0.0,0.0,1.0
1464076440979660396,301,1464076440971006097,,4.81470918655,-0.197995603085,141.275115967,0.00203399988823,1.0,0.0,0.0,0.0,1.0,0.0,0.0,0.0,1.0,-6.15853643417,-5.73170757294,37.8048782349,1.0,0.0,0.0,0.0,1.0,0.0,0.0,0.0,1.0,-1.22104284668,-0.330399829102,10.2040874756,1.0,0.0,0.0,0.0,1.0,0.0,0.0,0.0,1.0
1464076441164611984,302,1464076440991743801,,4.66803264618,-0.18649750948,143.013504028,0.00259799999185,1.0,0.0,0.0,0.0,1.0,0.0,0.0,0.0,1.0,-8.10975551605,-11.9512195587,35.4878044128,1.0,0.0,0.0,0.0,1.0,0.0,0.0,0.0,1.0,-1.28808049316,-0.239420166016,10.4482960449,1.0,0.0,0.0,0.0,1.0,0.0,0.0,0.0,1.0
1464076441164950368,303,1464076441013246192,,4.36235380173,-0.229840487242,144.736450195,0.00188200001139,1.0,0.0,0.0,0.0,1.0,0.0,0.0,0.0,1.0,-6.82926845551,-12.4390249252,34.5121955872,1.0,0.0,0.0,0.0,1.0,0.0,0.0,0.0,1.0,-0.689530078125,-0.905008227539,10.6829278076,1.0,0.0,0.0,0.0,1.0,0.0,0.0,0.0,1.0
1464076441166568020,304,1464076441033791345,,4.2296872139,-0.276722788811,146.472137451,0.0028760000132,1.0,0.0,0.0,0.0,1.0,0.0,0.0,0.0,1.0,-4.2682929039,-9.63414573669,41.2195129395,1.0,0.0,0.0,0.0,1.0,0.0,0.0,0.0,1.0,-1.49877023926,-0.675164868164,10.5584293213,1.0,0.0,0.0,0.0,1.0,0.0,0.0,0.0,1.0
1464076441166977655,305,1464076441055144413,,4.1056637764,-0.255558043718,148.371292114,0.00161899998784,1.0,0.0,0.0,0.0,1.0,0.0,0.0,0.0,1.0,-4.39024400711,-11.1585359573,42.7439041138,1.0,0.0,0.0,0.0,1.0,0.0,0.0,0.0,1.0,-1.12527478027,-0.445321508789,10.6637741943,1.0,0.0,0.0,0.0,1.0,0.0,0.0,0.0,1.0
1464076441169315148,306,1464076441076893573,,3.86823558807,-0.221155881882,150.210494995,0.00190300005488,1.0,0.0,0.0,0.0,1.0,0.0,0.0,0.0,1.0,-2.74390244484,-13.4756097794,38.5975608826,1.0,0.0,0.0,0.0,1.0,0.0,0.0,0.0,1.0,-1.17315874041,-0.497993945312,10.5823713379,1.0,0.0,0.0,0.0,1.0,0.0,0.0,0.0,1.0
1464076441169634366,307,1464076441097774246,,3.63977766037,-0.191953465343,151.911056519,0.00198900001124,1.0,0.0,0.0,0.0,1.0,0.0,0.0,0.0,1.0,-1.95121955872,-16.2195110321,36.7073173523,1.0,0.0,0.0,0.0,1.0,0.0,0.0,0.0,1.0,-1.07260241682,-0.545877978516,10.2950671387,1.0,0.0,0.0,0.0,1.0,0.0,0.0,0.0,1.0
1464076441169917490,308,1464076441120197572,,3.33546948433,-0.148386746645,153.64906311,0.00149599998258,1.0,0.0,0.0,0.0,1.0,0.0,0.0,0.0,1.0,-2.62195134163,-18.4146347046,33.3536605835,1.0,0.0,0.0,0.0,1.0,0.0,0.0,0.0,1.0,-0.588973571866,-0.497993945312,10.5727945312,1.0,0.0,0.0,0.0,1.0,0.0,0.0,0.0,1.0
1464076441170200042,309,1464076441142428033,,3.03264927864,-0.128647133708,155.568313599,0.00360199995339,1.0,0.0,0.0,0.0,1.0,0.0,0.0,0.0,1.0,-1.40243899822,-12.4390249252,38.2317085266,1.0,0.0,0.0,0.0,1.0,0.0,0.0,0.0,1.0,-1.22104284668,-0.876277807617,10.2711251221,1.0,0.0,0.0,0.0,1.0,0.0,0.0,0.0,1.0
1464076441306037282,310,1464076441163350321,,2.94074773788,-0.0820750147104,157.392929077,0.00292099989019,1.0,0.0,0.0,0.0,1.0,0.0,0.0,0.0,1.0,0.487804889679,-9.5731716156,43.5365867615,1.0,0.0,0.0,0.0,1.0,0.0,0.0,0.0,1.0,-1.44130939941,-0.579396801758,10.2759135254,1.0,0.0,0.0,0.0,1.0,0.0,0.0,0.0,1.0
1464076441306321343,311,1464076441185566823,,2.80524921417,-0.00453894212842,159.244033813,0.00147899996955,1.0,0.0,0.0,0.0,1.0,0.0,0.0,0.0,1.0,0.243902444839,-12.3780488968,41.8292694092,1.0,0.0,0.0,0.0,1.0,0.0,0.0,0.0,1.0,-1.18273554705,-0.339976635742,10.0125513428,1.0,0.0,0.0,0.0,1.0,0.0,0.0,0.0,1.0
1464076441306593739,312,1464076441205838905,,2.61744523048,0.072245106101,161.079879761,0.00180299999192,1.0,0.0,0.0,0.0,1.0,0.0,0.0,0.0,1.0,0.365853667259,-15.4878053665,40.4268302917,1.0,0.0,0.0,0.0,1.0,0.0,0.0,0.0,1.0,-1.35990654297,-0.531512805087,10.0652237793,1.0,0.0,0.0,0.0,1.0,0.0,0.0,0.0,1.0
1464076441306863217,313,1464076441226484370,,2.37185406685,0.141452759504,162.835144043,0.00188500003424,1.0,0.0,0.0,0.0,1.0,0.0,0.0,0.0,1.0,0.914634168148,-17.9268302917,39.5731735229,1.0,0.0,0.0,0.0,1.0,0.0,0.0,0.0,1.0,-1.24019645996,-0.560243188477,9.8784760498,1.0,0.0,0.0,0.0,1.0,0.0,0.0,0.0,1.0
1464076441308241078,314,1464076441249419413,,2.08736205101,0.20321983099,164.72203064,0.00197399989702,1.0,0.0,0.0,0.0,1.0,0.0,0.0,0.0,1.0,1.70731711388,-17.5609760284,41.0975646973,1.0,0.0,0.0,0.0,1.0,0.0,0.0,0.0,1.0,-1.16358193377,-0.708683691406,9.61032604839,1.0,0.0,0.0,0.0,1.0,0.0,0.0,0.0,1.0
1464076441309623522,315,1464076441270307273,,1.82555377483,0.260318428278,166.548431396,0.00206200010143,1.0,0.0,0.0,0.0,1.0,0.0,0.0,0.0,1.0,3.35365867615,-17.1951217651,40.7926826477,1.0,0.0,0.0,0.0,1.0,0.0,0.0,0.0,1.0,-1.1875240965,-0.837970581055,9.23204160156,1.0,0.0,0.0,0.0,1.0,0.0,0.0,0.0,1.0
1464076441310004511,316,1464076441291734976,,1.51368939877,0.367334395647,168.465744019,0.00316499988548,1.0,0.0,0.0,0.0,1.0,0.0,0.0,0.0,1.0,5.30487823486,-15.1829271317,40.4878044128,1.0,0.0,0.0,0.0,1.0,0.0,0.0,0.0,1.0,-0.905008227539,-0.780509741211,9.71088193359,1.0,0.0,0.0,0.0,1.0,0.0,0.0,0.0,1.0
1464076441435075321,317,1464076441313952885,,1.35581696033,0.474213838577,170.368148804,0.00129499996547,1.0,0.0,0.0,0.0,1.0,0.0,0.0,0.0,1.0,5.67073154449,-10.3048782349,44.390247345,1.0,0.0,0.0,0.0,1.0,0.0,0.0,0.0,1.0,-1.37427175293,-0.526724328702,9.69651672363,1.0,0.0,0.0,0.0,1.0,0.0,0.0,0.0,1.0
1464076441435380112,318,1464076441334693142,,1.23333525658,0.607927620411,172.258804321,0.00163199997041,1.0,0.0,0.0,0.0,1.0,0.0,0.0,0.0,1.0,4.57317066193,-12.7439022064,41.6463432312,1.0,0.0,0.0,0.0,1.0,0.0,0.0,0.0,1.0,-1.03908344744,-0.229843359375,9.73003554687,1.0,0.0,0.0,0.0,1.0,0.0,0.0,0.0,1.0
1464076441435665997,319,1464076441357412769,,1.03011488914,0.705821216106,174.169387817,0.0019729998894,1.0,0.0,0.0,0.0,1.0,0.0,0.0,0.0,1.0,1.09756100178,-14.0243902206,38.8414649963,1.0,0.0,0.0,0.0,1.0,0.0,0.0,0.0,1.0,-1.43652099609,-0.296881024126,9.50976957866,1.0,0.0,0.0,0.0,1.0,0.0,0.0,0.0,1.0
1464076441436186412,320,1464076441379272242,,0.808597922325,0.705638349056,175.888870239,0.00181000004523,1.0,0.0,0.0,0.0,1.0,0.0,0.0,0.0,1.0,-0.609756112099,-15.548781395,35.5487823486,1.0,0.0,0.0,0.0,1.0,0.0,0.0,0.0,1.0,-1.01035310059,-0.703895288086,9.79707319336,1.0,0.0,0.0,0.0,1.0,0.0,0.0,0.0,1.0
1464076441436446515,321,1464076441398802450,,0.535497784615,0.654964625835,177.492248535,0.00291000003926,1.0,0.0,0.0,0.0,1.0,0.0,0.0,0.0,1.0,-0.18292683363,-13.5365858078,31.6463413239,1.0,0.0,0.0,0.0,1.0,0.0,0.0,0.0,1.0,-0.138863696289,-0.804451757813,10.2184526855,1.0,0.0,0.0,0.0,1.0,0.0,0.0,0.0,1.0
1464076441436685786,322,1464076441419693748,,0.340714216232,0.598499119282,179.023422241,0.00916100014001,1.0,0.0,0.0,0.0,1.0,0.0,0.0,0.0,1.0,1.03658533096,-8.23170757294,27.0121955872,1.0,0.0,0.0,0.0,1.0,0.0,0.0,0.0,1.0,-0.0814028564453,-0.837970581055,9.80665,1.0,0.0,0.0,0.0,1.0,0.0,0.0,0.0,1.0
1464076441486864401,323,1464076441442290198,,0.242291674018,0.556395888329,-179.495117188,0.00139899994247,1.0,0.0,0.0,0.0,1.0,0.0,0.0,0.0,1.0,1.70731711388,0.792682945728,19.3292694092,1.0,0.0,0.0,0.0,1.0,0.0,0.0,0.0,1.0,0.450109912109,-0.885854614258,10.1514150391,1.0,0.0,0.0,0.0,1.0,0.0,0.0,0.0,1.0
1464076441486909974,324,1464076441462245717,,0.362145334482,0.512319326401,-178.157897949,0.00259199994616,1.0,0.0,0.0,0.0,1.0,0.0,0.0,0.0,1.0,2.37804889679,13.2926826477,16.6463413239,1.0,0.0,0.0,0.0,1.0,0.0,0.0,0.0,1.0,0.349553442383,-1.06302561017,10.2519715088,1.0,0.0,0.0,0.0,1.0,0.0,0.0,0.0,1.0
1464076441892661438,325,1464076441483543524,,0.777268767357,0.524452328682,-176.880889893,0.0024300001096,1.0,0.0,0.0,0.0,1.0,0.0,0.0,0.0,1.0,3.65853667259,22.8048782349,12.3170728683,1.0,0.0,0.0,0.0,1.0,0.0,0.0,0.0,1.0,-0.416591088867,-0.584185168546,9.73961235352,1.0,0.0,0.0,0.0,1.0,0.0,0.0,0.0,1.0
1464076441893102843,326,1464076441504823936,,1.2598310709,0.556065142155,-175.737030029,0.00155399995856,1.0,0.0,0.0,0.0,1.0,0.0,0.0,0.0,1.0,1.03658533096,21.5853652954,3.96341490746,1.0,0.0,0.0,0.0,1.0,0.0,0.0,0.0,1.0,-0.234631762695,-0.339976635742,9.13148513184,1.0,0.0,0.0,0.0,1.0,0.0,0.0,0.0,1.0
1464076441893151645,327,1464076441526459191,,1.69332110882,0.51513761282,-174.781555176,0.00174500001594,1.0,0.0,0.0,0.0,1.0,0.0,0.0,0.0,1.0,-3.10975623131,18.5365848541,-4.87804889679,1.0,0.0,0.0,0.0,1.0,0.0,0.0,0.0,1.0,-0.296881024126,-0.560243188477,9.18894597168,1.0,0.0,0.0,0.0,1.0,0.0,0.0,0.0,1.0
1464076441893189718,328,1464076441548037258,,2.06632304192,0.399247348309,-174.003646851,0.0018380000256,1.0,0.0,0.0,0.0,1.0,0.0,0.0,0.0,1.0,-5.0,22.1951236725,-8.59756088257,1.0,0.0,0.0,0.0,1.0,0.0,0.0,0.0,1.0,-0.809240161133,-0.876277807617,9.45230756977,1.0,0.0,0.0,0.0,1.0,0.0,0.0,0.0,1.0
1464076441893442686,329,1464076441569453294,,2.57066321373,0.241711080074,-173.180770874,0.0014380000066,1.0,0.0,0.0,0.0,1.0,0.0,0.0,0.0,1.0,-3.41463422775,27.8048782349,-2.19512200356,1.0,0.0,0.0,0.0,1.0,0.0,0.0,0.0,1.0,0.421379492187,-0.885854614258,9.71088193359,1.0,0.0,0.0,0.0,1.0,0.0,0.0,0.0,1.0
1464076441893704508,330,1464076441590487196,,3.24338650703,0.129722595215,-172.241607666,0.0021579999011,1.0,0.0,0.0,0.0,1.0,0.0,0.0,0.0,1.0,-4.2682929039,37.3780517578,2.13414645195,1.0,0.0,0.0,0.0,1.0,0.0,0.0,0.0,1.0,-0.248996972656,-0.622492431641,9.86889924316,1.0,0.0,0.0,0.0,1.0,0.0,0.0,0.0,1.0
1464076441893967111,331,1464076441611425421,,3.99480128288,0.0203261971474,-171.215240479,0.00260100001469,1.0,0.0,0.0,0.0,1.0,0.0,0.0,0.0,1.0,-9.32926845551,38.3536567688,1.40243899822,1.0,0.0,0.0,0.0,1.0,0.0,0.0,0.0,1.0,-0.181959326172,-0.330399829102,10.4147772217,1.0,0.0,0.0,0.0,1.0,0.0,0.0,0.0,1.0
1464076441894209663,332,1464076441633072603,,4.77285051346,-0.211496546865,-170.196548462,0.00186399999075,1.0,0.0,0.0,0.0,1.0,0.0,0.0,0.0,1.0,-14.5121955872,35.3048782349,1.64634156227,1.0,0.0,0.0,0.0,1.0,0.0,0.0,0.0,1.0,-0.699106884766,-0.804451757813,10.405200415,1.0,0.0,0.0,0.0,1.0,0.0,0.0,0.0,1.0
1464076441896021481,333,1464076441655650667,,5.43771362305,-0.561358034611,-169.163726807,0.00359000009485,1.0,0.0,0.0,0.0,1.0,0.0,0.0,0.0,1.0,-15.3658533096,26.7682933807,1.95121955872,1.0,0.0,0.0,0.0,1.0,0.0,0.0,0.0,1.0,-0.569819995117,-1.44609780273,10.4099888184,1.0,0.0,0.0,0.0,1.0,0.0,0.0,0.0,1.0
1464076441896074137,334,1464076441677427223,,5.96942806244,-0.913713395596,-168.125091553,0.00193599995691,1.0,0.0,0.0,0.0,1.0,0.0,0.0,0.0,1.0,-11.1585359573,19.8780498505,3.84146332741,1.0,0.0,0.0,0.0,1.0,0.0,0.0,0.0,1.0,-1.30723410645,-2.07337849156,10.7643306641,1.0,0.0,0.0,0.0,1.0,0.0,0.0,0.0,1.0
1464076441896240491,335,1464076441700978514,,6.29310369492,-1.13424217701,-166.989822388,0.00222999998368,1.0,0.0,0.0,0.0,1.0,0.0,0.0,0.0,1.0,-8.78048801422,13.658536911,10.3658542633,1.0,0.0,0.0,0.0,1.0,0.0,0.0,0.0,1.0,-0.31124621582,-1.47482822266,11.3628810791,1.0,0.0,0.0,0.0,1.0,0.0,0.0,0.0,1.0
1464076441896511011,336,1464076441722821841,,6.57159328461,-1.30886542797,-165.620925903,0.00285999989137,1.0,0.0,0.0,0.0,1.0,0.0,0.0,0.0,1.0,-9.75609779358,16.2195110321,19.0853652954,1.0,0.0,0.0,0.0,1.0,0.0,0.0,0.0,1.0,-0.205901342773,-1.49398183594,11.3820346924,1.0,0.0,0.0,0.0,1.0,0.0,0.0,0.0,1.0
1464076441896785646,337,1464076441744705533,,6.88415527344,-1.44793009758,-164.168319702,0.00162400002591,1.0,0.0,0.0,0.0,1.0,0.0,0.0,0.0,1.0,-9.51219558716,18.2926826477,24.9390239716,1.0,0.0,0.0,0.0,1.0,0.0,0.0,0.0,1.0,-0.239420166016,-1.41736738281,10.7403886475,1.0,0.0,0.0,0.0,1.0,0.0,0.0,0.0,1.0
1464076441897056426,338,1464076441769878903,,7.2470407486,-1.55296349525,-162.623794556,0.00162200001068,1.0,0.0,0.0,0.0,1.0,0.0,0.0,0.0,1.0,-8.71951198578,17.8048782349,25.9146347046,1.0,0.0,0.0,0.0,1.0,0.0,0.0,0.0,1.0,-0.718260498047,-1.20667770978,9.84016882324,1.0,0.0,0.0,0.0,1.0,0.0,0.0,0.0,1.0
1464076441897299498,339,1464076441790499108,,7.53880357742,-1.67124330997,-160.909103394,0.00412400020286,1.0,0.0,0.0,0.0,1.0,0.0,0.0,0.0,1.0,-11.5243911743,11.2804880142,26.2804889679,1.0,0.0,0.0,0.0,1.0,0.0,0.0,0.0,1.0,0.181959326172,-1.31202250977,9.88805285645,1.0,0.0,0.0,0.0,1.0,0.0,0.0,0.0,1.0
1464076441897671112,340,1464076441811123948,,7.68755197525,-1.81336188316,-159.41444397,0.00238499999978,1.0,0.0,0.0,0.0,1.0,0.0,0.0,0.0,1.0,-13.2317075729,10.6707315445,28.2317066193,1.0,0.0,0.0,0.0,1.0,0.0,0.0,0.0,1.0,0.0287304199219,-1.4844050293,9.80665,1.0,0.0,0.0,0.0,1.0,0.0,0.0,0.0,1.0
1464076441897962882,341,1464076441831882330,,7.88633203506,-1.97524487972,-157.840896606,0.0031640001107,1.0,0.0,0.0,0.0,1.0,0.0,0.0,0.0,1.0,-11.9512195587,12.8048782349,33.7195129395,1.0,0.0,0.0,0.0,1.0,0.0,0.0,0.0,1.0,-0.435744702148,-1.65199914551,9.50976957866,1.0,0.0,0.0,0.0,1.0,0.0,0.0,0.0,1.0
1464076441898376579,342,1464076441853824667,,8.10138893127,-2.09754681587,-156.093231201,0.00140599999577,1.0,0.0,0.0,0.0,1.0,0.0,0.0,0.0,1.0,-11.5853662491,14.6951217651,37.4390220642,1.0,0.0,0.0,0.0,1.0,0.0,0.0,0.0,1.0,0.0239420166016,-1.46525141602,8.95431420898,1.0,0.0,0.0,0.0,1.0,0.0,0.0,0.0,1.0
1464076441961273285,343,1464076441876590387,,8.35356330872,-2.19531464577,-154.226882935,0.0033879999537,1.0,0.0,0.0,0.0,1.0,0.0,0.0,0.0,1.0,-11.1585359573,13.658536911,38.0487823486,1.0,0.0,0.0,0.0,1.0,0.0,0.0,0.0,1.0,-0.354341845703,-1.6041151123,9.58159562847,1.0,0.0,0.0,0.0,1.0,0.0,0.0,0.0,1.0
1464076441961653284,344,1464076441896384761,,8.55287361145,-2.26045560837,-152.515823364,0.00246499991044,1.0,0.0,0.0,0.0,1.0,0.0,0.0,0.0,1.0,-10.0,10.7317075729,39.634147644,1.0,0.0,0.0,0.0,1.0,0.0,0.0,0.0,1.0,-0.703895288086,-1.73819040527,9.81622680664,1.0,0.0,0.0,0.0,1.0,0.0,0.0,0.0,1.0
1464076441961695419,345,1464076441917394653,,8.7354593277,-2.31172776222,-150.681060791,0.0021420000121,1.0,0.0,0.0,0.0,1.0,0.0,0.0,0.0,1.0,-7.50000047684,7.92682981491,43.7804870605,1.0,0.0,0.0,0.0,1.0,0.0,0.0,0.0,1.0,-0.76614453125,-1.74776721191,9.52892319194,1.0,0.0,0.0,0.0,1.0,0.0,0.0,0.0,1.0
1464076441961731253,346,1464076441939141417,,8.84227752686,-2.29758810997,-148.77432251,0.001615999965,1.0,0.0,0.0,0.0,1.0,0.0,0.0,0.0,1.0,-7.07317113876,3.29268312454,46.1585388184,1.0,0.0,0.0,0.0,1.0,0.0,0.0,0.0,1.0,-0.656011254883,-1.45567460937,9.68693991699,1.0,0.0,0.0,0.0,1.0,0.0,0.0,0.0,1.0
1464076442015818816,347,1464076441978139125,,8.72481632233,-2.20111107826,-145.759490967,0.0136120002717,1.0,0.0,0.0,0.0,1.0,0.0,0.0,0.0,1.0,-4.51219558716,4.08536577225,46.8292694092,1.0,0.0,0.0,0.0,1.0,0.0,0.0,0.0,1.0,0.191536132812,-1.94409174805,9.94551369629,1.0,0.0,0.0,0.0,1.0,0.0,0.0,0.0,1.0
1464076442016350117,348,1464076442002583747,,8.79735279083,-2.04691171646,-143.073425293,0.0281419996172,1.0,0.0,0.0,0.0,1.0,0.0,0.0,0.0,1.0,-5.60975599289,2.86585378647,49.8780479431,1.0,0.0,0.0,0.0,1.0,0.0,0.0,0.0,1.0,-0.713472094727,-1.2976572998,9.95030209961,1.0,0.0,0.0,0.0,1.0,0.0,0.0,0.0,1.0
1464076442029972580,349,1464076442022308278,,8.69827747345,-1.98493266106,-141.019546509,0.0216310005635,1.0,0.0,0.0,0.0,1.0,0.0,0.0,0.0,1.0,-7.56097555161,-3.04878044128,49.2682914734,1.0,0.0,0.0,0.0,1.0,0.0,0.0,0.0,1.0,-0.536301208408,-1.36948334961,9.92636008301,1.0,0.0,0.0,0.0,1.0,0.0,0.0,0.0,1.0
1464076442047649824,350,1464076442044760613,,8.51601314545,-1.97175908089,-138.909912109,0.00339800002985,1.0,0.0,0.0,0.0,1.0,0.0,0.0,0.0,1.0,-8.47560977936,-8.41463470459,46.7073173523,1.0,0.0,0.0,0.0,1.0,0.0,0.0,0.0,1.0,-0.699106884766,-1.62326872559,10.1131078125,1.0,0.0,0.0,0.0,1.0,0.0,0.0,0.0,1.0
1464076442068420550,351,1464076442066171181,,8.20931816101,-1.98473620415,-136.9478302,0.00145900005009,1.0,0.0,0.0,0.0,1.0,0.0,0.0,0.0,1.0,-7.01219511032,-13.841463089,44.2073173523,1.0,0.0,0.0,0.0,1.0,0.0,0.0,0.0,1.0,-0.46447512207,-1.81001645508,10.0652237793,1.0,0.0,0.0,0.0,1.0,0.0,0.0,0.0,1.0
1464076442089050859,352,1464076442087234197,,7.8546462059,-1.99435913563,-135.09413147,0.00155499996617,1.0,0.0,0.0,0.0,1.0,0.0,0.0,0.0,1.0,-4.93902444839,-13.5365858078,44.1463432312,1.0,0.0,0.0,0.0,1.0,0.0,0.0,0.0,1.0,-0.445321508789,-2.08774370153,10.2136642822,1.0,0.0,0.0,0.0,1.0,0.0,0.0,0.0,1.0
1464076442117074586,353,1464076442108380391,,7.5284576416,-1.94984865189,-133.214660645,0.0012009999482,1.0,0.0,0.0,0.0,1.0,0.0,0.0,0.0,1.0,-2.92682933807,-11.0365858078,43.8414649963,1.0,0.0,0.0,0.0,1.0,0.0,0.0,0.0,1.0,-0.167594116211,-1.69030637207,9.74918916016,1.0,0.0,0.0,0.0,1.0,0.0,0.0,0.0,1.0
1464076442142747434,354,1464076442131201319,,7.20540857315,-1.86179864407,-131.259262085,0.00243399990723,1.0,0.0,0.0,0.0,1.0,0.0,0.0,0.0,1.0,-3.65853667259,-12.6219520569,38.4146347046,1.0,0.0,0.0,0.0,1.0,0.0,0.0,0.0,1.0,-0.320823022461,-1.41257897949,9.71088193359,1.0,0.0,0.0,0.0,1.0,0.0,0.0,0.0,1.0
1464076442167227056,355,1464076442153159906,,6.83639287949,-1.82025027275,-129.461715698,0.0019270000048,1.0,0.0,0.0,0.0,1.0,0.0,0.0,0.0,1.0,-5.67073154449,-13.658536911,33.4756126404,1.0,0.0,0.0,0.0,1.0,0.0,0.0,0.0,1.0,-0.0814028564453,-1.33117612305,10.0939541992,1.0,0.0,0.0,0.0,1.0,0.0,0.0,0.0,1.0
1464076442188635957,356,1464076442175228336,,6.50545406342,-1.87583148479,-127.780853271,0.00159300002269,1.0,0.0,0.0,0.0,1.0,0.0,0.0,0.0,1.0,-7.86585378647,-15.3658533096,30.3658542633,1.0,0.0,0.0,0.0,1.0,0.0,0.0,0.0,1.0,-0.363918652344,-1.4844050293,10.2567599121,1.0,0.0,0.0,0.0,1.0,0.0,0.0,0.0,1.0
1464076442199828583,357,1464076442196656612,,6.12951469421,-1.98013961315,-126.191627502,0.00122500001453,1.0,0.0,0.0,0.0,1.0,0.0,0.0,0.0,1.0,-8.41463470459,-16.5243911743,26.6463432312,1.0,0.0,0.0,0.0,1.0,0.0,0.0,0.0,1.0,-0.0909796630859,-1.68072956543,10.4722380615,1.0,0.0,0.0,0.0,1.0,0.0,0.0,0.0,1.0
1464076442252138859,358,1464076442217441973,,5.77207517624,-2.11255216599,-124.698265076,0.00149799999781,1.0,0.0,0.0,0.0,1.0,0.0,0.0,0.0,1.0,-9.45121955872,-11.0975618362,25.3048782349,1.0,0.0,0.0,0.0,1.0,0.0,0.0,0.0,1.0,0.067037651051,-1.54665427246,10.6350437744,1.0,0.0,0.0,0.0,1.0,0.0,0.0,0.0,1.0
1464076442252180578,359,1464076442239401498,,5.70885419846,-2.29609632492,-123.139060974,0.0114280004054,1.0,0.0,0.0,0.0,1.0,0.0,0.0,0.0,1.0,-11.8292684555,-3.29268312454,28.4146347046,1.0,0.0,0.0,0.0,1.0,0.0,0.0,0.0,1.0,-1.33596452637,-1.74297880859,10.5680061279,1.0,0.0,0.0,0.0,1.0,0.0,0.0,0.0,1.0
1464076442269551209,360,1464076442260084567,,5.62724971771,-2.48126411438,-121.614082336,0.00144000002183,1.0,0.0,0.0,0.0,1.0,0.0,0.0,0.0,1.0,-13.3536586761,-6.34146356583,23.1097564697,1.0,0.0,0.0,0.0,1.0,0.0,0.0,0.0,1.0,0.124498486328,-1.66157595215,10.2088758789,1.0,0.0,0.0,0.0,1.0,0.0,0.0,0.0,1.0
1464076442291146255,361,1464076442283068933,,5.47134256363,-2.73629450798,-120.133842468,0.00255999993533,1.0,0.0,0.0,0.0,1.0,0.0,0.0,0.0,1.0,-16.0975608826,-3.47560977936,19.3292694092,1.0,0.0,0.0,0.0,1.0,0.0,0.0,0.0,1.0,-0.215478149414,-1.55144267578,10.8074262939,1.0,0.0,0.0,0.0,1.0,0.0,0.0,0.0,1.0
1464076442306731734,362,1464076442303913408,,5.4755730629,-3.01274347305,-118.806045532,0.00137499999255,1.0,0.0,0.0,0.0,1.0,0.0,0.0,0.0,1.0,-14.2682924271,-0.0609756112099,18.9634151459,1.0,0.0,0.0,0.0,1.0,0.0,0.0,0.0,1.0,-0.148440512063,-2.06859023437,10.7834842773,1.0,0.0,0.0,0.0,1.0,0.0,0.0,0.0,1.0
1464076442345910327,363,1464076442325827933,,5.58455038071,-3.28308153152,-117.418136597,0.00187000003643,1.0,0.0,0.0,0.0,1.0,0.0,0.0,0.0,1.0,-13.4756097794,4.32926845551,19.0853652954,1.0,0.0,0.0,0.0,1.0,0.0,0.0,0.0,1.0,-0.900219824219,-1.72861359863,10.5727945312,1.0,0.0,0.0,0.0,1.0,0.0,0.0,0.0,1.0
1464076442353159370,364,1464076442347282823,,5.65476703644,-3.51844334602,-116.097930908,0.00231099990197,1.0,0.0,0.0,0.0,1.0,0.0,0.0,0.0,1.0,-10.6707315445,1.15853655338,12.0121955872,1.0,0.0,0.0,0.0,1.0,0.0,0.0,0.0,1.0,-0.727837304687,-2.06859023437,11.2000753662,1.0,0.0,0.0,0.0,1.0,0.0,0.0,0.0,1.0
1464076442374800718,365,1464076442370244741,,5.65847110748,-3.7197740078,-114.982498169,0.0016230000183,1.0,0.0,0.0,0.0,1.0,0.0,0.0,0.0,1.0,-7.07317113876,1.58536589146,6.21951246262,1.0,0.0,0.0,0.0,1.0,0.0,0.0,0.0,1.0,-0.928950244141,-2.25054956055,10.7451770508,1.0,0.0,0.0,0.0,1.0,0.0,0.0,0.0,1.0
1464076442395804776,366,1464076442392395671,,5.71712493896,-3.87089085579,-113.802246094,0.00301100010984,1.0,0.0,0.0,0.0,1.0,0.0,0.0,0.0,1.0,-4.2682929039,-0.975609779358,4.81707286835,1.0,0.0,0.0,0.0,1.0,0.0,0.0,0.0,1.0,-0.900219824219,-2.04943662109,10.7882726807,1.0,0.0,0.0,0.0,1.0,0.0,0.0,0.0,1.0
1464076442416429200,367,1464076442413731655,,5.66716527939,-3.91601347923,-112.778709412,0.00239500007592,1.0,0.0,0.0,0.0,1.0,0.0,0.0,0.0,1.0,0.426829278469,-1.95121955872,1.52439022064,1.0,0.0,0.0,0.0,1.0,0.0,0.0,0.0,1.0,-0.316034619141,-2.09253210485,11.0037508301,1.0,0.0,0.0,0.0,1.0,0.0,0.0,0.0,1.0
1464076442437755653,368,1464076442434937119,,5.69430065155,-3.91072869301,-111.797111511,0.00145800004248,1.0,0.0,0.0,0.0,1.0,0.0,0.0,0.0,1.0,3.65853667259,-0.792682945728,3.35365867615,1.0,0.0,0.0,0.0,1.0,0.0,0.0,0.0,1.0,-0.967257470703,-2.42293208008,10.9654436035,1.0,0.0,0.0,0.0,1.0,0.0,0.0,0.0,1.0
1464076442458860284,369,1464076442455319929,,5.73978614807,-3.80482792854,-110.806304932,0.00189700000919,1.0,0.0,0.0,0.0,1.0,0.0,0.0,0.0,1.0,9.14634132385,-0.731707334518,4.51219558716,1.0,0.0,0.0,0.0,1.0,0.0,0.0,0.0,1.0,-1.07260241682,-2.15478164027,10.9175595703,1.0,0.0,0.0,0.0,1.0,0.0,0.0,0.0,1.0
1464076442484000373,370,1464076442476849403,,5.83721446991,-3.57472395897,-109.683074951,0.00164699996822,1.0,0.0,0.0,0.0,1.0,0.0,0.0,0.0,1.0,13.1707324982,-0.243902444839,7.62195110321,1.0,0.0,0.0,0.0,1.0,0.0,0.0,0.0,1.0,-1.14442839355,-2.06380183105,10.4866032715,1.0,0.0,0.0,0.0,1.0,0.0,0.0,0.0,1.0
1464076442501957669,371,1464076442498888667,,5.87054491043,-3.2817735672,-108.586845398,0.00184799998533,1.0,0.0,0.0,0.0,1.0,0.0,0.0,0.0,1.0,15.6097564697,-4.69512224197,5.42682933807,1.0,0.0,0.0,0.0,1.0,0.0,0.0,0.0,1.0,-0.502782348633,-2.4516625,10.8792523438,1.0,0.0,0.0,0.0,1.0,0.0,0.0,0.0,1.0
1464076442523571882,372,1464076442520556213,,5.81089019775,-2.91418123245,-107.554504395,0.00236600008793,1.0,0.0,0.0,0.0,1.0,0.0,0.0,0.0,1.0,22.5609760284,-3.90243911743,4.39024400711,1.0,0.0,0.0,0.0,1.0,0.0,0.0,0.0,1.0,-1.15879360352,-2.40856701625,10.3573163818,1.0,0.0,0.0,0.0,1.0,0.0,0.0,0.0,1.0
1464076442545067501,373,1464076442542218863,,5.78489255905,-2.41474509239,-106.399307251,0.00249399989843,1.0,0.0,0.0,0.0,1.0,0.0,0.0,0.0,1.0,24.817073822,-2.13414645195,7.01219511032,1.0,0.0,0.0,0.0,1.0,0.0,0.0,0.0,1.0,-0.823605371094,-2.01591779785,10.2040874756,1.0,0.0,0.0,0.0,1.0,0.0,0.0,0.0,1.0
1464076442566084945,374,1464076442563051619,,5.73899269104,-1.92454099655,-105.369308472,0.00237699993886,1.0,0.0,0.0,0.0,1.0,0.0,0.0,0.0,1.0,26.5853652954,-6.40243911743,3.59756112099,1.0,0.0,0.0,0.0,1.0,0.0,0.0,0.0,1.0,-0.550666381836,-1.66636435547,9.63905646831,1.0,0.0,0.0,0.0,1.0,0.0,0.0,0.0,1.0
1464076442588750092,375,1464076442583982918,,5.62892341614,-1.41893804073,-104.370010376,0.0013269999763,1.0,0.0,0.0,0.0,1.0,0.0,0.0,0.0,1.0,24.0243911743,-5.67073154449,2.62195134163,1.0,0.0,0.0,0.0,1.0,0.0,0.0,0.0,1.0,-0.584185168546,-1.49398183594,9.62469125835,1.0,0.0,0.0,0.0,1.0,0.0,0.0,0.0,1.0
1464076442608628476,376,1464076442604928018,,5.42089605331,-0.958560109138,-103.448646545,0.00195499998517,1.0,0.0,0.0,0.0,1.0,0.0,0.0,0.0,1.0,23.2317085266,-10.3658542633,-2.92682933807,1.0,0.0,0.0,0.0,1.0,0.0,0.0,0.0,1.0,0.354341845703,-1.54665427246,9.97424411621,1.0,0.0,0.0,0.0,1.0,0.0,0.0,0.0,1.0
1464076442627684675,377,1464076442624987287,,5.25931930542,-0.549809932709,-102.576019287,0.00150799995754,1.0,0.0,0.0,0.0,1.0,0.0,0.0,0.0,1.0,21.5853652954,-4.20731735229,-1.76829278469,1.0,0.0,0.0,0.0,1.0,0.0,0.0,0.0,1.0,-0.742202514648,-1.5322890625,9.65821008159,1.0,0.0,0.0,0.0,1.0,0.0,0.0,0.0,1.0
1464076442653051795,378,1464076442646592385,,5.19198846817,-0.171475231647,-101.638366699,0.00145900005009,1.0,0.0,0.0,0.0,1.0,0.0,0.0,0.0,1.0,20.7317085266,-1.8902438879,-1.34146344662,1.0,0.0,0.0,0.0,1.0,0.0,0.0,0.0,1.0,-0.713472094727,-1.71903679199,9.89762966309,1.0,0.0,0.0,0.0,1.0,0.0,0.0,0.0,1.0
1464076442676633398,379,1464076442668814513,,5.14315462112,0.179695338011,-100.712692261,0.00122700002976,1.0,0.0,0.0,0.0,1.0,0.0,0.0,0.0,1.0,19.6341457367,1.15853655338,-0.731707334518,1.0,0.0,0.0,0.0,1.0,0.0,0.0,0.0,1.0,-0.948103857422,-1.72382519531,10.6685625977,1.0,0.0,0.0,0.0,1.0,0.0,0.0,0.0,1.0
1464076442703096817,380,1464076442689554197,,5.16768932343,0.516298532486,-99.7632293701,0.00125500001013,1.0,0.0,0.0,0.0,1.0,0.0,0.0,0.0,1.0,16.6463413239,3.04878044128,0.548780500889,1.0,0.0,0.0,0.0,1.0,0.0,0.0,0.0,1.0,-0.881066210937,-1.35990654297,10.9031943604,1.0,0.0,0.0,0.0,1.0,0.0,0.0,0.0,1.0
1464076442726425400,381,1464076442710497005,,5.21881151199,0.7852678895,-98.8115310669,0.00144499994349,1.0,0.0,0.0,0.0,1.0,0.0,0.0,0.0,1.0,11.8292684555,2.19512200356,0.304878056049,1.0,0.0,0.0,0.0,1.0,0.0,0.0,0.0,1.0,-1.06781401349,-1.28329208984,10.9893856201,1.0,0.0,0.0,0.0,1.0,0.0,0.0,0.0,1.0
1464076442812188451,382,1464076442732294603,,5.23658084869,0.950035631657,-97.8465881348,0.00152499997057,1.0,0.0,0.0,0.0,1.0,0.0,0.0,0.0,1.0,5.73170757294,-2.86585378647,-2.25609779358,1.0,0.0,0.0,0.0,1.0,0.0,0.0,0.0,1.0,-1.02471831055,-1.22104284668,10.7308118408,1.0,0.0,0.0,0.0,1.0,0.0,0.0,0.0,1.0
1464076442812223712,383,1464076442753556786,,5.10026454926,0.997701227665,-96.9986038208,0.00161499995738,1.0,0.0,0.0,0.0,1.0,0.0,0.0,0.0,1.0,0.365853667259,-5.06097555161,-5.18292713165,1.0,0.0,0.0,0.0,1.0,0.0,0.0,0.0,1.0,-0.497993945312,-0.699106884766,10.4913916748,1.0,0.0,0.0,0.0,1.0,0.0,0.0,0.0,1.0
1464076442812268972,384,1464076442774138606,,5.0540137291,0.923884212971,-96.1791305542,0.00123699998949,1.0,0.0,0.0,0.0,1.0,0.0,0.0,0.0,1.0,-4.51219558716,-2.80487799644,-3.53658556938,1.0,0.0,0.0,0.0,1.0,0.0,0.0,0.0,1.0,-1.26892687988,-0.928950244141,10.1131078125,1.0,0.0,0.0,0.0,1.0,0.0,0.0,0.0,1.0
1464076442812311524,385,1464076442794705686,,5.04971837997,0.759682893753,-95.3076171875,0.00174400000833,1.0,0.0,0.0,0.0,1.0,0.0,0.0,0.0,1.0,-7.56097555161,-0.609756112099,-0.548780500889,1.0,0.0,0.0,0.0,1.0,0.0,0.0,0.0,1.0,-1.63284553223,-1.13963999023,9.52413478862,1.0,0.0,0.0,0.0,1.0,0.0,0.0,0.0,1.0
1464076443151512281,386,1464076442816804168,,5.05313253403,0.515087783337,-94.3610916138,0.00207499996759,1.0,0.0,0.0,0.0,1.0,0.0,0.0,0.0,1.0,-11.6463422775,-4.02439022064,-1.8902438879,1.0,0.0,0.0,0.0,1.0,0.0,0.0,0.0,1.0,-1.42215578613,-1.13963999023,9.63905646831,1.0,0.0,0.0,0.0,1.0,0.0,0.0,0.0,1.0
1464076443151578062,387,1464076442838682235,,4.98511505127,0.196773037314,-93.4619216919,0.00150300003588,1.0,0.0,0.0,0.0,1.0,0.0,0.0,0.0,1.0,-12.6219520569,-9.39024448395,-5.24390268326,1.0,0.0,0.0,0.0,1.0,0.0,0.0,0.0,1.0,-0.790086547852,-1.56101948242,9.62947966167,1.0,0.0,0.0,0.0,1.0,0.0,0.0,0.0,1.0
1464076443151617802,388,1464076442859241919,,4.83887052536,-0.146896243095,-92.6528701782,0.00155799998902,1.0,0.0,0.0,0.0,1.0,0.0,0.0,0.0,1.0,-9.93902492523,-7.86585378647,-5.67073154449,1.0,0.0,0.0,0.0,1.0,0.0,0.0,0.0,1.0,-1.07260241682,-1.82917006836,9.58638403179,1.0,0.0,0.0,0.0,1.0,0.0,0.0,0.0,1.0
1464076443151656968,389,1464076442880737851,,4.7371134758,-0.446116566658,-91.7921218872,0.00152299995534,1.0,0.0,0.0,0.0,1.0,0.0,0.0,0.0,1.0,-7.37804937363,-5.79268312454,-3.23170733452,1.0,0.0,0.0,0.0,1.0,0.0,0.0,0.0,1.0,-0.866701000977,-1.73819040527,9.56723041851,1.0,0.0,0.0,0.0,1.0,0.0,0.0,0.0,1.0
1464076443151694364,390,1464076442902350553,,4.68597650528,-0.687527775764,-90.8750076294,0.00238800002262,1.0,0.0,0.0,0.0,1.0,0.0,0.0,0.0,1.0,-4.20731735229,-0.731707334518,-0.731707334518,1.0,0.0,0.0,0.0,1.0,0.0,0.0,0.0,1.0,-0.699106884766,-2.16435844691,9.73961235352,1.0,0.0,0.0,0.0,1.0,0.0,0.0,0.0,1.0
1464076443151731760,391,1464076442923712944,,4.75154781342,-0.835442483425,-89.9385147095,0.00138100003824,1.0,0.0,0.0,0.0,1.0,0.0,0.0,0.0,1.0,0.853658556938,2.25609779358,0.731707334518,1.0,0.0,0.0,0.0,1.0,0.0,0.0,0.0,1.0,-0.962469067383,-1.94409174805,9.62947966167,1.0,0.0,0.0,0.0,1.0,0.0,0.0,0.0,1.0
1464076443151785718,392,1464076442944866169,,4.85805845261,-0.871155083179,-88.9649887085,0.00255599990487,1.0,0.0,0.0,0.0,1.0,0.0,0.0,0.0,1.0,2.68292689323,2.01219511032,0.853658556938,1.0,0.0,0.0,0.0,1.0,0.0,0.0,0.0,1.0,-1.07739082014,-1.64242233887,9.55765361187,1.0,0.0,0.0,0.0,1.0,0.0,0.0,0.0,1.0
1464076443152043582,393,1464076442967034078,,4.93672323227,-0.876061975956,-87.9994277954,0.00172199995723,1.0,0.0,0.0,0.0,1.0,0.0,0.0,0.0,1.0,3.41463422775,0.609756112099,0.18292683363,1.0,0.0,0.0,0.0,1.0,0.0,0.0,0.0,1.0,-0.92416184082,-1.67594116211,9.71088193359,1.0,0.0,0.0,0.0,1.0,0.0,0.0,0.0,1.0
1464076443152583632,394,1464076442987245430,,4.97690963745,-0.848160266876,-87.0773849487,0.00185000000056,1.0,0.0,0.0,0.0,1.0,0.0,0.0,0.0,1.0,3.35365867615,-0.792682945728,-0.487804889679,1.0,0.0,0.0,0.0,1.0,0.0,0.0,0.0,1.0,-1.47961662598,-1.47482822266,9.66299848491,1.0,0.0,0.0,0.0,1.0,0.0,0.0,0.0,1.0
1464076443152644518,395,1464076443008491154,,4.97831678391,-0.821909487247,-86.1874694824,0.00184899999294,1.0,0.0,0.0,0.0,1.0,0.0,0.0,0.0,1.0,0.18292683363,-2.86585378647,-1.40243899822,1.0,0.0,0.0,0.0,1.0,0.0,0.0,0.0,1.0,-1.07739082014,-0.847547387695,10.0700121826,1.0,0.0,0.0,0.0,1.0,0.0,0.0,0.0,1.0
1464076443152690559,396,1464076443029120891,,4.92924213409,-0.87081182003,-85.3253860474,0.00259699998423,1.0,0.0,0.0,0.0,1.0,0.0,0.0,0.0,1.0,-3.96341490746,-6.0365858078,-4.81707286835,1.0,0.0,0.0,0.0,1.0,0.0,0.0,0.0,1.0,-1.07260241682,-1.19231249982,9.8545340332,1.0,0.0,0.0,0.0,1.0,0.0,0.0,0.0,1.0
1464076443153003840,397,1464076443050381979,,4.73935556412,-1.00832605362,-84.5732421875,0.00191400002223,1.0,0.0,0.0,0.0,1.0,0.0,0.0,0.0,1.0,-7.74390268326,-6.40243911743,-11.0975618362,1.0,0.0,0.0,0.0,1.0,0.0,0.0,0.0,1.0,-0.900219824219,-1.25456166992,10.060435376,1.0,0.0,0.0,0.0,1.0,0.0,0.0,0.0,1.0
1464076443153269568,398,1464076443071974578,,4.64389801025,-1.25356256962,-83.8510665894,0.00203200010583,1.0,0.0,0.0,0.0,1.0,0.0,0.0,0.0,1.0,-10.3048782349,-8.84146404266,-11.7682924271,1.0,0.0,0.0,0.0,1.0,0.0,0.0,0.0,1.0,-1.19710090314,-1.61848032227,10.6111017578,1.0,0.0,0.0,0.0,1.0,0.0,0.0,0.0,1.0
1464076443153486859,399,1464076443093198583,,4.5057849884,-1.53560578823,-83.1632080078,0.00255599990487,1.0,0.0,0.0,0.0,1.0,0.0,0.0,0.0,1.0,-11.4634151459,-12.9268293381,-13.7804880142,1.0,0.0,0.0,0.0,1.0,0.0,0.0,0.0,1.0,-0.967257470703,-1.57538469238,10.5488525146,1.0,0.0,0.0,0.0,1.0,0.0,0.0,0.0,1.0
1464076443156020550,400,1464076443114282329,,4.26531982422,-1.83230364323,-82.5448150635,0.00158799998462,1.0,0.0,0.0,0.0,1.0,0.0,0.0,0.0,1.0,-11.341463089,-13.5975618362,-17.2560977936,1.0,0.0,0.0,0.0,1.0,0.0,0.0,0.0,1.0,-0.890643017578,-1.36948334961,10.2759135254,1.0,0.0,0.0,0.0,1.0,0.0,0.0,0.0,1.0
1464076444498089295,401,1464076443135048054,,4.0020699501,-2.14957737923,-81.9871673584,0.0016680000117,1.0,0.0,0.0,0.0,1.0,0.0,0.0,0.0,1.0,-13.2317075729,-12.8048782349,-19.817073822,1.0,0.0,0.0,0.0,1.0,0.0,0.0,0.0,1.0,-0.478840332031,-1.52271225586,10.1992990723,1.0,0.0,0.0,0.0,1.0,0.0,0.0,0.0,1.0
1464076444498167889,402,1464076443156536955,,3.75883221626,-2.49460220337,-81.4527282715,0.00154700002167,1.0,0.0,0.0,0.0,1.0,0.0,0.0,0.0,1.0,-12.5609760284,-8.59756088257,-20.1219520569,1.0,0.0,0.0,0.0,1.0,0.0,0.0,0.0,1.0,0.105344873047,-1.96324536133,10.7739074707,1.0,0.0,0.0,0.0,1.0,0.0,0.0,0.0,1.0
1464076444498499763,403,1464076443180553922,,3.57957410812,-2.85064101219,-80.9396743774,0.00255399988964,1.0,0.0,0.0,0.0,1.0,0.0,0.0,0.0,1.0,-10.4878053665,-1.64634156227,-23.7804889679,1.0,0.0,0.0,0.0,1.0,0.0,0.0,0.0,1.0,0.0,-2.13083962367,10.3333743652,1.0,0.0,0.0,0.0,1.0,0.0,0.0,0.0,1.0
1464076444506965313,404,1464076443200702410,,3.536485672,-3.18391633034,-80.5317687988,0.00186499999836,1.0,0.0,0.0,0.0,1.0,0.0,0.0,0.0,1.0,-5.97560977936,-0.304878056049,-25.4268302917,1.0,0.0,0.0,0.0,1.0,0.0,0.0,0.0,1.0,-0.359130249023,-2.79642753906,11.3628810791,1.0,0.0,0.0,0.0,1.0,0.0,0.0,0.0,1.0
1464076444507058907,405,1464076443221231573,,3.60802698135,-3.40395689011,-80.0851745605,0.00256399996579,1.0,0.0,0.0,0.0,1.0,0.0,0.0,0.0,1.0,1.2195122242,5.91463422775,-20.1829280853,1.0,0.0,0.0,0.0,1.0,0.0,0.0,0.0,1.0,-0.828393774414,-2.89698400879,12.1864864502,1.0,0.0,0.0,0.0,1.0,0.0,0.0,0.0,1.0
1464076444507133334,406,1464076443242057611,,3.80416679382,-3.42513632774,-79.5210342407,0.00320499995723,1.0,0.0,0.0,0.0,1.0,0.0,0.0,0.0,1.0,2.19512200356,13.2926826477,-13.7804880142,1.0,0.0,0.0,0.0,1.0,0.0,0.0,0.0,1.0,0.45968671875,-1.52750065918,12.1769096436,1.0,0.0,0.0,0.0,1.0,0.0,0.0,0.0,1.0
1464076444507185313,407,1464076443263377919,,4.08253002167,-3.39369177818,-78.9153060913,0.00150599994231,1.0,0.0,0.0,0.0,1.0,0.0,0.0,0.0,1.0,-5.60975599289,19.3292694092,-16.8902435303,1.0,0.0,0.0,0.0,1.0,0.0,0.0,0.0,1.0,0.239420166016,-0.119710083008,11.3054202393,1.0,0.0,0.0,0.0,1.0,0.0,0.0,0.0,1.0
1464076444507239427,408,1464076443284099530,,4.42719459534,-3.51470398903,-78.3821563721,0.00168700003996,1.0,0.0,0.0,0.0,1.0,0.0,0.0,0.0,1.0,-16.0975608826,22.3780498505,-20.7317085266,1.0,0.0,0.0,0.0,1.0,0.0,0.0,0.0,1.0,0.402225878906,-0.15801730957,9.80186159668,1.0,0.0,0.0,0.0,1.0,0.0,0.0,0.0,1.0
1464076444507301198,409,1464076443306029731,,4.79275655746,-3.84423351288,-77.9661560059,0.00217600003816,1.0,0.0,0.0,0.0,1.0,0.0,0.0,0.0,1.0,-25.3048782349,25.8536586761,-26.7682933807,1.0,0.0,0.0,0.0,1.0,0.0,0.0,0.0,1.0,0.938527050781,-0.0430956298828,8.50899328472,1.0,0.0,0.0,0.0,1.0,0.0,0.0,0.0,1.0
1464076444507348802,410,1464076443327969256,,5.21473693848,-4.36473751068,-77.6822509766,0.00159799994435,1.0,0.0,0.0,0.0,1.0,0.0,0.0,0.0,1.0,-32.9268302917,30.0000019073,-31.7073192596,1.0,0.0,0.0,0.0,1.0,0.0,0.0,0.0,1.0,0.665588061523,-0.359130249023,8.2264769043,1.0,0.0,0.0,0.0,1.0,0.0,0.0,0.0,1.0
1464076444507387291,411,1464076443348153525,,5.70771074295,-5.08907175064,-77.5263290405,0.00165700004436,1.0,0.0,0.0,0.0,1.0,0.0,0.0,0.0,1.0,-35.1829299927,32.5609779358,-36.4024391174,1.0,0.0,0.0,0.0,1.0,0.0,0.0,0.0,1.0,0.387860668945,-1.61369191895,8.85854614258,1.0,0.0,0.0,0.0,1.0,0.0,0.0,0.0,1.0
1464076444507422604,412,1464076443372997781,,6.38342809677,-6.06066226959,-77.4358825684,0.00505799986422,1.0,0.0,0.0,0.0,1.0,0.0,0.0,0.0,1.0,-25.9146347046,30.0000019073,-36.9512214661,1.0,0.0,0.0,0.0,1.0,0.0,0.0,0.0,1.0,-0.76135612793,-3.27047946777,9.30386706685,1.0,0.0,0.0,0.0,1.0,0.0,0.0,0.0,1.0
1464076444507571926,413,1464076443394710275,,6.77852535248,-6.67195701599,-77.3991775513,0.00179699994624,1.0,0.0,0.0,0.0,1.0,0.0,0.0,0.0,1.0,-13.9634151459,18.1707305908,-43.0487823486,1.0,0.0,0.0,0.0,1.0,0.0,0.0,0.0,1.0,1.23061965332,-3.48595761719,10.6350437744,1.0,0.0,0.0,0.0,1.0,0.0,0.0,0.0,1.0
1464076444507617759,414,1464076443415638396,,7.04850912094,-6.96298837662,-77.4140319824,0.00193799997214,1.0,0.0,0.0,0.0,1.0,0.0,0.0,0.0,1.0,-0.975609779358,29.0853672028,-37.134147644,1.0,0.0,0.0,0.0,1.0,0.0,0.0,0.0,1.0,0.167594116211,-3.21301862793,10.7260234375,1.0,0.0,0.0,0.0,1.0,0.0,0.0,0.0,1.0
1464076444507656405,415,1464076443436928078,,7.61456203461,-7.00853395462,-77.2392501831,0.00181699998211,1.0,0.0,0.0,0.0,1.0,0.0,0.0,0.0,1.0,4.81707286835,37.5609779358,-27.0121955872,1.0,0.0,0.0,0.0,1.0,0.0,0.0,0.0,1.0,0.450109912109,-2.23139594727,10.6494089844,1.0,0.0,0.0,0.0,1.0,0.0,0.0,0.0,1.0
1464076444507692863,416,1464076443458349375,,8.3233499527,-6.89016819,-76.9175186157,0.00190899998415,1.0,0.0,0.0,0.0,1.0,0.0,0.0,0.0,1.0,3.35365867615,41.5853652954,-23.2926845551,1.0,0.0,0.0,0.0,1.0,0.0,0.0,0.0,1.0,0.215478149414,-1.33596452637,10.2759135254,1.0,0.0,0.0,0.0,1.0,0.0,0.0,0.0,1.0
1464076444507733384,417,1464076443479975671,,9.06284713745,-6.7410902977,-76.5555343628,0.0024459999986,1.0,0.0,0.0,0.0,1.0,0.0,0.0,0.0,1.0,-0.243902444839,41.8902435303,-22.3170719147,1.0,0.0,0.0,0.0,1.0,0.0,0.0,0.0,1.0,0.0861912597656,-0.785298144531,9.62469125835,1.0,0.0,0.0,0.0,1.0,0.0,0.0,0.0,1.0
1464076444507771665,418,1464076443500732074,,9.83978748322,-6.69311332703,-76.1545028687,0.00251000002027,1.0,0.0,0.0,0.0,1.0,0.0,0.0,0.0,1.0,-5.91463422775,35.9756088257,-22.5,1.0,0.0,0.0,0.0,1.0,0.0,0.0,0.0,1.0,-0.320823022461,-0.895431420898,9.15063874512,1.0,0.0,0.0,0.0,1.0,0.0,0.0,0.0,1.0
1464076444507809374,419,1464076443523395138,,10.4493331909,-6.76825284958,-75.7287139893,0.00224899989553,1.0,0.0,0.0,0.0,1.0,0.0,0.0,0.0,1.0,-11.341463089,28.6585388184,-22.0731716156,1.0,0.0,0.0,0.0,1.0,0.0,0.0,0.0,1.0,-0.282515795898,-0.9193734375,8.98304462891,1.0,0.0,0.0,0.0,1.0,0.0,0.0,0.0,1.0
1464076444507849009,420,1464076443545114351,,10.8187179565,-6.93908309937,-75.3081054688,0.00170000002254,1.0,0.0,0.0,0.0,1.0,0.0,0.0,0.0,1.0,-13.1707324982,23.1707324982,-21.9512195587,1.0,0.0,0.0,0.0,1.0,0.0,0.0,0.0,1.0,0.258573779297,-1.59453830566,9.20809958496,1.0,0.0,0.0,0.0,1.0,0.0,0.0,0.0,1.0
1464076444507886925,421,1464076443565381015,,11.1142940521,-7.16448926926,-74.8852920532,0.00154600001406,1.0,0.0,0.0,0.0,1.0,0.0,0.0,0.0,1.0,-12.1951217651,19.7560977936,-20.5487823486,1.0,0.0,0.0,0.0,1.0,0.0,0.0,0.0,1.0,-0.186747729492,-2.01591779785,9.67736311035,1.0,0.0,0.0,0.0,1.0,0.0,0.0,0.0,1.0
1464076444507923175,422,1464076443586625333,,11.3804121017,-7.35537528992,-74.3890609741,0.00196200003847,1.0,0.0,0.0,0.0,1.0,0.0,0.0,0.0,1.0,-9.20731735229,17.0731716156,-17.0121955872,1.0,0.0,0.0,0.0,1.0,0.0,0.0,0.0,1.0,-0.201112939453,-2.14520483363,10.1083194092,1.0,0.0,0.0,0.0,1.0,0.0,0.0,0.0,1.0
1464076444507959425,423,1464076443608922357,,11.577331543,-7.46057796478,-73.7971878052,0.00170599995181,1.0,0.0,0.0,0.0,1.0,0.0,0.0,0.0,1.0,-5.67073154449,15.6707315445,-12.2560977936,1.0,0.0,0.0,0.0,1.0,0.0,0.0,0.0,1.0,0.215478149414,-2.24576115723,10.1562034424,1.0,0.0,0.0,0.0,1.0,0.0,0.0,0.0,1.0
1464076444507999477,424,1464076443630166310,,11.757317543,-7.47766304016,-73.154548645,0.00163199997041,1.0,0.0,0.0,0.0,1.0,0.0,0.0,0.0,1.0,-3.29268312454,15.7317075729,-10.548781395,1.0,0.0,0.0,0.0,1.0,0.0,0.0,0.0,1.0,0.114921679688,-1.89620771484,10.0748005859,1.0,0.0,0.0,0.0,1.0,0.0,0.0,0.0,1.0
1464076444515454301,425,1464076443650954067,,11.9834470749,-7.42324733734,-72.4256286621,0.00176799995825,1.0,0.0,0.0,0.0,1.0,0.0,0.0,0.0,1.0,-2.80487799644,15.7926826477,-6.09756088257,1.0,0.0,0.0,0.0,1.0,0.0,0.0,0.0,1.0,-0.354341845703,-1.8148048584,10.2950671387,1.0,0.0,0.0,0.0,1.0,0.0,0.0,0.0,1.0
1464076444515541697,426,1464076443676204885,,12.2498540878,-7.29095125198,-71.3937072754,0.00559200020507,1.0,0.0,0.0,0.0,1.0,0.0,0.0,0.0,1.0,-2.98780488968,13.3536586761,-1.2195122242,1.0,0.0,0.0,0.0,1.0,0.0,0.0,0.0,1.0,-0.349553442383,-1.57538469238,10.1083194092,1.0,0.0,0.0,0.0,1.0,0.0,0.0,0.0,1.0
1464076444515583103,427,1464076443696623215,,12.4323539734,-7.16822052002,-70.4881515503,0.00184499996249,1.0,0.0,0.0,0.0,1.0,0.0,0.0,0.0,1.0,-4.69512224197,11.7682924271,0.914634168148,1.0,0.0,0.0,0.0,1.0,0.0,0.0,0.0,1.0,-0.354341845703,-1.49877023926,9.81622680664,1.0,0.0,0.0,0.0,1.0,0.0,0.0,0.0,1.0
1464076444515640915,428,1464076443718283001,,12.4772882462,-7.09962558746,-69.5751342773,0.00141300004907,1.0,0.0,0.0,0.0,1.0,0.0,0.0,0.0,1.0,-4.63414621353,4.08536577225,-3.96341490746,1.0,0.0,0.0,0.0,1.0,0.0,0.0,0.0,1.0,0.780509741211,-1.55144267578,10.1322614258,1.0,0.0,0.0,0.0,1.0,0.0,0.0,0.0,1.0
1464076444515700186,429,1464076443739875704,,12.4785146713,-7.07345151901,-68.7200012207,0.00194400001783,1.0,0.0,0.0,0.0,1.0,0.0,0.0,0.0,1.0,-6.58536624908,8.84146404266,-1.95121955872,1.0,0.0,0.0,0.0,1.0,0.0,0.0,0.0,1.0,0.474051928711,-2.02070620117,10.2950671387,1.0,0.0,0.0,0.0,1.0,0.0,0.0,0.0,1.0
1464076444515753102,430,1464076443761089240,,12.6471776962,-7.020195961,-67.7575149536,0.00239800009876,1.0,0.0,0.0,0.0,1.0,0.0,0.0,0.0,1.0,-5.36585378647,11.7682924271,3.17073178291,1.0,0.0,0.0,0.0,1.0,0.0,0.0,0.0,1.0,-0.474051928711,-1.90099611816,10.2136642822,1.0,0.0,0.0,0.0,1.0,0.0,0.0,0.0,1.0
1464076444515807269,431,1464076443781745279,,12.8050203323,-6.915163517,-66.7714385986,0.00273699988611,1.0,0.0,0.0,0.0,1.0,0.0,0.0,0.0,1.0,-3.23170733452,10.4878053665,3.84146332741,1.0,0.0,0.0,0.0,1.0,0.0,0.0,0.0,1.0,-0.775721337891,-1.92972653809,9.87368764648,1.0,0.0,0.0,0.0,1.0,0.0,0.0,0.0,1.0
1464076444515845758,432,1464076443803145586,,12.8728122711,-6.80478429794,-65.7805557251,0.00179000000935,1.0,0.0,0.0,0.0,1.0,0.0,0.0,0.0,1.0,-1.2804877758,2.07317066193,-1.8292683363,1.0,0.0,0.0,0.0,1.0,0.0,0.0,0.0,1.0,-0.373495458984,-1.90099611816,10.0652237793,1.0,0.0,0.0,0.0,1.0,0.0,0.0,0.0,1.0
1464076444515885966,433,1464076443823855010,,12.7456827164,-6.68247461319,-64.9982910156,0.00246399990283,1.0,0.0,0.0,0.0,1.0,0.0,0.0,0.0,1.0,3.47560977936,0.548780500889,-7.37804937363,1.0,0.0,0.0,0.0,1.0,0.0,0.0,0.0,1.0,-0.727837304687,-2.48518132324,10.3621047852,1.0,0.0,0.0,0.0,1.0,0.0,0.0,0.0,1.0
1464076444515932946,434,1464076443845632087,,12.6410837173,-6.49715328217,-64.2264556885,0.00148099998478,1.0,0.0,0.0,0.0,1.0,0.0,0.0,0.0,1.0,6.95121955872,0.18292683363,-8.17073154449,1.0,0.0,0.0,0.0,1.0,0.0,0.0,0.0,1.0,-0.45489831543,-2.23618435059,10.0269165527,1.0,0.0,0.0,0.0,1.0,0.0,0.0,0.0,1.0
1464076444515977320,435,1464076443867029321,,12.5347757339,-6.24592685699,-63.4731369019,0.00195399997756,1.0,0.0,0.0,0.0,1.0,0.0,0.0,0.0,1.0,7.98780536652,2.80487799644,-10.4268293381,1.0,0.0,0.0,0.0,1.0,0.0,0.0,0.0,1.0,-0.15322890625,-1.96803376465,10.4147772217,1.0,0.0,0.0,0.0,1.0,0.0,0.0,0.0,1.0
1464076444516013727,436,1464076443890089988,,12.4626569748,-5.96710586548,-62.7588806152,0.00236500008032,1.0,0.0,0.0,0.0,1.0,0.0,0.0,0.0,1.0,7.13414621353,1.2804877758,-14.3902444839,1.0,0.0,0.0,0.0,1.0,0.0,0.0,0.0,1.0,-0.244208569336,-1.81959326172,10.2759135254,1.0,0.0,0.0,0.0,1.0,0.0,0.0,0.0,1.0
1464076444516050549,437,1464076443910880037,,12.3334217072,-5.75592660904,-62.1953353882,0.00223900005221,1.0,0.0,0.0,0.0,1.0,0.0,0.0,0.0,1.0,6.58536624908,-4.02439022064,-21.0365848541,1.0,0.0,0.0,0.0,1.0,0.0,0.0,0.0,1.0,-0.76614453125,-1.87226569824,10.1322614258,1.0,0.0,0.0,0.0,1.0,0.0,0.0,0.0,1.0
1464076444516085393,438,1464076443932466437,,12.1049690247,-5.60130500793,-61.6501998901,0.0030310000293,1.0,0.0,0.0,0.0,1.0,0.0,0.0,0.0,1.0,5.12195110321,-6.58536624908,-20.0,1.0,0.0,0.0,0.0,1.0,0.0,0.0,0.0,1.0,-1.30244570312,-2.35589428746,10.3860468018,1.0,0.0,0.0,0.0,1.0,0.0,0.0,0.0,1.0
1464076444516129768,439,1464076443954641273,,11.9458427429,-5.45076560974,-61.0228042603,0.00153600005433,1.0,0.0,0.0,0.0,1.0,0.0,0.0,0.0,1.0,6.15853643417,-9.75609779358,-12.9268293381,1.0,0.0,0.0,0.0,1.0,0.0,0.0,0.0,1.0,-2.17393510742,-2.40377861293,10.0891657959,1.0,0.0,0.0,0.0,1.0,0.0,0.0,0.0,1.0
1464076444516226226,440,1464076443975659603,,11.659040451,-5.2557477951,-60.2978210449,0.00162200001068,1.0,0.0,0.0,0.0,1.0,0.0,0.0,0.0,1.0,5.24390268326,-14.7560987473,-7.80487823486,1.0,0.0,0.0,0.0,1.0,0.0,0.0,0.0,1.0,-1.53707746582,-1.59932670898,10.1083194092,1.0,0.0,0.0,0.0,1.0,0.0,0.0,0.0,1.0
1464076444521564128,441,1464076443997182201,,11.1010379791,-5.1094918251,-59.5452270508,0.00181899999734,1.0,0.0,0.0,0.0,1.0,0.0,0.0,0.0,1.0,7.01219511032,-27.2560977936,-14.6951217651,1.0,0.0,0.0,0.0,1.0,0.0,0.0,0.0,1.0,0.0430956298828,-2.10210891149,10.2807019287,1.0,0.0,0.0,0.0,1.0,0.0,0.0,0.0,1.0
1464076444521647409,442,1464076444018081885,,10.5515270233,-4.97312402725,-58.8768844604,0.0017419999931,1.0,0.0,0.0,0.0,1.0,0.0,0.0,0.0,1.0,5.18292713165,-20.4268302917,-11.7073173523,1.0,0.0,0.0,0.0,1.0,0.0,0.0,0.0,1.0,-0.852335791016,-2.08295529821,10.553640918,1.0,0.0,0.0,0.0,1.0,0.0,0.0,0.0,1.0
1464076444521708607,443,1464076444039907712,,10.1103391647,-4.81902503967,-58.1313362122,0.00164799997583,1.0,0.0,0.0,0.0,1.0,0.0,0.0,0.0,1.0,6.34146356583,-21.0975627899,-7.25609779358,1.0,0.0,0.0,0.0,1.0,0.0,0.0,0.0,1.0,-0.588973571866,-2.25533796387,10.3285859619,1.0,0.0,0.0,0.0,1.0,0.0,0.0,0.0,1.0
1464076444521767461,444,1464076444060832187,,9.62938404083,-4.6243724823,-57.2895240784,0.0022609999869,1.0,0.0,0.0,0.0,1.0,0.0,0.0,0.0,1.0,7.50000047684,-18.9634151459,-6.52439069748,1.0,0.0,0.0,0.0,1.0,0.0,0.0,0.0,1.0,-0.359130249023,-1.94409174805,10.5440641113,1.0,0.0,0.0,0.0,1.0,0.0,0.0,0.0,1.0
1464076444521818555,445,1464076444082365619,,9.1607427597,-4.42731428146,-56.4160423279,0.00224400009029,1.0,0.0,0.0,0.0,1.0,0.0,0.0,0.0,1.0,7.98780536652,-11.6463422775,-5.67073154449,1.0,0.0,0.0,0.0,1.0,0.0,0.0,0.0,1.0,-0.114921679688,-1.96803376465,10.4866032715,1.0,0.0,0.0,0.0,1.0,0.0,0.0,0.0,1.0
1464076444521857253,446,1464076444103641447,,8.92095279694,-4.21928405762,-55.5616455078,0.00144799996633,1.0,0.0,0.0,0.0,1.0,0.0,0.0,0.0,1.0,8.71951198578,-7.19512224197,-4.08536577225,1.0,0.0,0.0,0.0,1.0,0.0,0.0,0.0,1.0,-0.737414111328,-2.12605122035,10.6158901611,1.0,0.0,0.0,0.0,1.0,0.0,0.0,0.0,1.0
1464076444521896419,447,1464076444125647013,,8.73546600342,-3.97076153755,-54.6769561768,0.00164699996822,1.0,0.0,0.0,0.0,1.0,0.0,0.0,0.0,1.0,10.4878053665,-4.75609779358,-3.35365867615,1.0,0.0,0.0,0.0,1.0,0.0,0.0,0.0,1.0,-0.172382519531,-1.74776721191,10.4099888184,1.0,0.0,0.0,0.0,1.0,0.0,0.0,0.0,1.0
1464076444521943398,448,1464076444146670550,,8.62447547913,-3.71312332153,-53.8056144714,0.00181899999734,1.0,0.0,0.0,0.0,1.0,0.0,0.0,0.0,1.0,10.3048782349,-3.29268312454,-4.08536577225,1.0,0.0,0.0,0.0,1.0,0.0,0.0,0.0,1.0,-0.15322890625,-1.57059628906,10.1992990723,1.0,0.0,0.0,0.0,1.0,0.0,0.0,0.0,1.0
1464076444521982200,449,1464076444173456208,,8.5924539566,-3.44012570381,-52.9243965149,0.001615999965,1.0,0.0,0.0,0.0,1.0,0.0,0.0,0.0,1.0,8.23170757294,0.548780500889,-2.19512200356,1.0,0.0,0.0,0.0,1.0,0.0,0.0,0.0,1.0,-1.31681091309,-1.82917006836,10.1562034424,1.0,0.0,0.0,0.0,1.0,0.0,0.0,0.0,1.0
1464076444522024596,450,1464076444189531842,,8.46872806549,-3.25180649757,-52.1015663147,0.00190899998415,1.0,0.0,0.0,0.0,1.0,0.0,0.0,0.0,1.0,8.41463470459,-6.64634132385,-9.93902492523,1.0,0.0,0.0,0.0,1.0,0.0,0.0,0.0,1.0,0.636857641602,-1.83395847168,10.6206785645,1.0,0.0,0.0,0.0,1.0,0.0,0.0,0.0,1.0
1464076444522061627,451,1464076444210427879,,8.27115726471,-3.0707719326,-51.381111145,0.00177800003439,1.0,0.0,0.0,0.0,1.0,0.0,0.0,0.0,1.0,7.25609779358,1.8292683363,-11.0365858078,1.0,0.0,0.0,0.0,1.0,0.0,0.0,0.0,1.0,-0.263362164351,-1.58974990234,9.77791958008,1.0,0.0,0.0,0.0,1.0,0.0,0.0,0.0,1.0
1464076444522098033,452,1464076444232556987,,8.31035327911,-2.94716668129,-50.6456108093,0.00140399998054,1.0,0.0,0.0,0.0,1.0,0.0,0.0,0.0,1.0,4.39024400711,5.73170757294,-8.10975551605,1.0,0.0,0.0,0.0,1.0,0.0,0.0,0.0,1.0,-0.694318481445,-1.77170922852,10.2711251221,1.0,0.0,0.0,0.0,1.0,0.0,0.0,0.0,1.0
1464076444530129001,453,1464076444253344900,,8.43668270111,-2.82882857323,-49.8574409485,0.0015640000347,1.0,0.0,0.0,0.0,1.0,0.0,0.0,0.0,1.0,5.48780488968,6.40243911743,-6.46341466904,1.0,0.0,0.0,0.0,1.0,0.0,0.0,0.0,1.0,-0.809240161133,-1.72382519531,10.0364933594,1.0,0.0,0.0,0.0,1.0,0.0,0.0,0.0,1.0
1464076444530219209,454,1464076444274100938,,8.5510969162,-2.70245695114,-49.0668182373,0.00347599992529,1.0,0.0,0.0,0.0,1.0,0.0,0.0,0.0,1.0,4.20731735229,5.24390268326,-5.79268312454,1.0,0.0,0.0,0.0,1.0,0.0,0.0,0.0,1.0,-1.11090957031,-1.31681091309,9.67257470703,1.0,0.0,0.0,0.0,1.0,0.0,0.0,0.0,1.0
1464076444530261709,455,1464076444296260097,,8.61545467377,-2.60480570793,-48.2062110901,0.00200699991547,1.0,0.0,0.0,0.0,1.0,0.0,0.0,0.0,1.0,0.0609756112099,2.13414645195,-4.93902444839,1.0,0.0,0.0,0.0,1.0,0.0,0.0,0.0,1.0,-0.852335791016,-1.28808049316,9.76834277344,1.0,0.0,0.0,0.0,1.0,0.0,0.0,0.0,1.0
1464076444530299574,456,1464076444319099411,,8.52122497559,-2.58171677589,-47.4148635864,0.0063599999994,1.0,0.0,0.0,0.0,1.0,0.0,0.0,0.0,1.0,-1.40243899822,-1.52439022064,-9.93902492523,1.0,0.0,0.0,0.0,1.0,0.0,0.0,0.0,1.0,-0.268150604204,-1.32159931641,9.82580361328,1.0,0.0,0.0,0.0,1.0,0.0,0.0,0.0,1.0
1464076444530335511,457,1464076444338684775,,8.40779018402,-2.61439323425,-46.6957855225,0.00143299996853,1.0,0.0,0.0,0.0,1.0,0.0,0.0,0.0,1.0,-4.75609779358,1.95121955872,-8.90243911743,1.0,0.0,0.0,0.0,1.0,0.0,0.0,0.0,1.0,-0.603338854892,-1.18273554705,9.91199487305,1.0,0.0,0.0,0.0,1.0,0.0,0.0,0.0,1.0
1464076444530370459,458,1464076444360901226,,8.36452770233,-2.71766495705,-45.9159088135,0.00188500003424,1.0,0.0,0.0,0.0,1.0,0.0,0.0,0.0,1.0,-6.58536624908,0.792682945728,-9.69512176514,1.0,0.0,0.0,0.0,1.0,0.0,0.0,0.0,1.0,-0.296881024126,-1.8866309082,10.4243540283,1.0,0.0,0.0,0.0,1.0,0.0,0.0,0.0,1.0
1464076444530412125,459,1464076444381493358,,8.30848884583,-2.83899188042,-45.1967811584,0.00155299995095,1.0,0.0,0.0,0.0,1.0,0.0,0.0,0.0,1.0,-5.91463422775,-0.12195122242,-9.51219558716,1.0,0.0,0.0,0.0,1.0,0.0,0.0,0.0,1.0,-0.517147558594,-1.70467158203,9.62947966167,1.0,0.0,0.0,0.0,1.0,0.0,0.0,0.0,1.0
1464076444530460875,460,1464076444402199553,,8.28074169159,-2.96069049835,-44.4406280518,0.00117599999066,1.0,0.0,0.0,0.0,1.0,0.0,0.0,0.0,1.0,-7.01219511032,1.34146344662,-6.58536624908,1.0,0.0,0.0,0.0,1.0,0.0,0.0,0.0,1.0,-0.900219824219,-1.56580788574,9.94072529297,1.0,0.0,0.0,0.0,1.0,0.0,0.0,0.0,1.0
1464076444530504469,461,1464076444423528975,,8.3062171936,-3.07720947266,-43.5873222351,0.00116600003093,1.0,0.0,0.0,0.0,1.0,0.0,0.0,0.0,1.0,-6.34146356583,4.75609779358,-0.487804889679,1.0,0.0,0.0,0.0,1.0,0.0,0.0,0.0,1.0,-1.07739082014,-1.54186586914,10.2807019287,1.0,0.0,0.0,0.0,1.0,0.0,0.0,0.0,1.0
1464076444530540354,462,1464076444443950743,,8.39646720886,-3.15388393402,-42.6319046021,0.00115300004836,1.0,0.0,0.0,0.0,1.0,0.0,0.0,0.0,1.0,-3.29268312454,2.80487799644,3.84146332741,1.0,0.0,0.0,0.0,1.0,0.0,0.0,0.0,1.0,-0.756567724609,-1.78607443848,10.0221281494,1.0,0.0,0.0,0.0,1.0,0.0,0.0,0.0,1.0
1464076444530584365,463,1464076444464696937,,8.43291950226,-3.16544628143,-41.6085128784,0.0011930000037,1.0,0.0,0.0,0.0,1.0,0.0,0.0,0.0,1.0,-2.74390244484,0.731707334518,4.69512224197,1.0,0.0,0.0,0.0,1.0,0.0,0.0,0.0,1.0,-0.354341845703,-1.68551796875,10.0843773926,1.0,0.0,0.0,0.0,1.0,0.0,0.0,0.0,1.0
1464076444530620875,464,1464076444489566089,,8.39293479919,-3.14416074753,-40.5326385498,0.00196800008416,1.0,0.0,0.0,0.0,1.0,0.0,0.0,0.0,1.0,-1.2804877758,-0.609756112099,4.14634132385,1.0,0.0,0.0,0.0,1.0,0.0,0.0,0.0,1.0,-0.675164868164,-1.74297880859,10.3956236084,1.0,0.0,0.0,0.0,1.0,0.0,0.0,0.0,1.0
1464076444534809145,465,1464076444510734157,,8.3202085495,-3.08967161179,-39.4445953369,0.00209400011227,1.0,0.0,0.0,0.0,1.0,0.0,0.0,0.0,1.0,0.548780500889,0.670731723309,6.09756088257,1.0,0.0,0.0,0.0,1.0,0.0,0.0,0.0,1.0,-0.632069238281,-1.58974990234,9.80665,1.0,0.0,0.0,0.0,1.0,0.0,0.0,0.0,1.0
1464076444974070727,466,1464076444532062069,,8.310962677,-2.99990081787,-38.2677574158,0.0038769999519,1.0,0.0,0.0,0.0,1.0,0.0,0.0,0.0,1.0,0.548780500889,2.68292689323,8.23170757294,1.0,0.0,0.0,0.0,1.0,0.0,0.0,0.0,1.0,-0.823605371094,-1.33596452637,9.84495722656,1.0,0.0,0.0,0.0,1.0,0.0,0.0,0.0,1.0
1464076444974103019,467,1464076444552822117,,8.33840370178,-2.90778207779,-37.1520195007,0.00227300007828,1.0,0.0,0.0,0.0,1.0,0.0,0.0,0.0,1.0,1.70731711388,0.487804889679,9.69512176514,1.0,0.0,0.0,0.0,1.0,0.0,0.0,0.0,1.0,-0.387860668945,-1.87226569824,9.63905646831,1.0,0.0,0.0,0.0,1.0,0.0,0.0,0.0,1.0
1464076444974156456,468,1464076444573688989,,8.20783996582,-2.80815196037,-36.1260070801,0.00135799997952,1.0,0.0,0.0,0.0,1.0,0.0,0.0,0.0,1.0,2.31707310677,-2.13414645195,4.45121955872,1.0,0.0,0.0,0.0,1.0,0.0,0.0,0.0,1.0,0.248996972656,-1.55144267578,10.4147772217,1.0,0.0,0.0,0.0,1.0,0.0,0.0,0.0,1.0
1464076444974212498,469,1464076444594251590,,8.07616901398,-2.68771743774,-35.1552505493,0.00116700003855,1.0,0.0,0.0,0.0,1.0,0.0,0.0,0.0,1.0,3.47560977936,-4.45121955872,-0.304878056049,1.0,0.0,0.0,0.0,1.0,0.0,0.0,0.0,1.0,-0.148440512063,-1.7908628418,10.2184526855,1.0,0.0,0.0,0.0,1.0,0.0,0.0,0.0,1.0
1464076444974246404,470,1464076444616750540,,7.93712043762,-2.56918406487,-34.2088127136,0.00200799992308,1.0,0.0,0.0,0.0,1.0,0.0,0.0,0.0,1.0,4.87804889679,0.304878056049,-0.548780500889,1.0,0.0,0.0,0.0,1.0,0.0,0.0,0.0,1.0,-0.244208569336,-1.55144267578,10.2567599121,1.0,0.0,0.0,0.0,1.0,0.0,0.0,0.0,1.0
1464076444974278071,471,1464076444637061944,,7.99340629578,-2.4278922081,-33.2259559631,0.00159899995197,1.0,0.0,0.0,0.0,1.0,0.0,0.0,0.0,1.0,5.36585378647,4.69512224197,4.14634132385,1.0,0.0,0.0,0.0,1.0,0.0,0.0,0.0,1.0,-0.995987890625,-1.31202250977,10.165780249,1.0,0.0,0.0,0.0,1.0,0.0,0.0,0.0,1.0
1464076444974323852,472,1464076444660615422,,8.04966163635,-2.25897288322,-32.145401001,0.00228499993682,1.0,0.0,0.0,0.0,1.0,0.0,0.0,0.0,1.0,4.69512224197,2.13414645195,4.14634132385,1.0,0.0,0.0,0.0,1.0,0.0,0.0,0.0,1.0,-0.76614453125,-1.55144267578,10.6972930176,1.0,0.0,0.0,0.0,1.0,0.0,0.0,0.0,1.0
1464076444974416247,473,1464076444681820678,,8.00034809113,-2.12400817871,-31.1462478638,0.00312200002372,1.0,0.0,0.0,0.0,1.0,0.0,0.0,0.0,1.0,3.84146332741,-3.35365867615,-2.74390244484,1.0,0.0,0.0,0.0,1.0,0.0,0.0,0.0,1.0,-0.172382519531,-1.5562310791,10.9989624268,1.0,0.0,0.0,0.0,1.0,0.0,0.0,0.0,1.0
1464076444974456299,474,1464076444703013277,,7.83885192871,-2.03072047234,-30.2985553741,0.00149199995212,1.0,0.0,0.0,0.0,1.0,0.0,0.0,0.0,1.0,4.39024400711,-2.25609779358,-5.36585378647,1.0,0.0,0.0,0.0,1.0,0.0,0.0,0.0,1.0,-0.00478840332031,-1.60890351563,10.5823713379,1.0,0.0,0.0,0.0,1.0,0.0,0.0,0.0,1.0
1464076444974491091,475,1464076444723443743,,7.70492744446,-1.97073841095,-29.5130519867,0.00204499997199,1.0,0.0,0.0,0.0,1.0,0.0,0.0,0.0,1.0,2.19512200356,0.365853667259,-6.28048801422,1.0,0.0,0.0,0.0,1.0,0.0,0.0,0.0,1.0,-0.0383072265625,-1.5562310791,10.1370498291,1.0,0.0,0.0,0.0,1.0,0.0,0.0,0.0,1.0
1464076444974525466,476,1464076444746049568,,7.67842674255,-1.94800889492,-28.6515350342,0.00197699991986,1.0,0.0,0.0,0.0,1.0,0.0,0.0,0.0,1.0,0.548780500889,4.32926845551,-3.96341490746,1.0,0.0,0.0,0.0,1.0,0.0,0.0,0.0,1.0,-0.656011254883,-1.74297880859,10.4530844482,1.0,0.0,0.0,0.0,1.0,0.0,0.0,0.0,1.0
1464076444974555153,477,1464076444768182009,,7.76795101166,-1.91463446617,-27.7456989288,0.00189199997112,1.0,0.0,0.0,0.0,1.0,0.0,0.0,0.0,1.0,0.548780500889,4.51219558716,-2.62195134163,1.0,0.0,0.0,0.0,1.0,0.0,0.0,0.0,1.0,-0.737414111328,-1.55144267578,10.1514150391,1.0,0.0,0.0,0.0,1.0,0.0,0.0,0.0,1.0
1464076444974585518,478,1464076444787999143,,7.77322149277,-1.90492379665,-26.8947181702,0.00227899989113,1.0,0.0,0.0,0.0,1.0,0.0,0.0,0.0,1.0,-0.0609756112099,1.2195122242,-3.04878044128,1.0,0.0,0.0,0.0,1.0,0.0,0.0,0.0,1.0,-0.416591088867,-1.53707746582,10.2759135254,1.0,0.0,0.0,0.0,1.0,0.0,0.0,0.0,1.0
1464076444974699632,479,1464076444811160591,,7.72784090042,-1.91025209427,-26.0010890961,0.00192399998195,1.0,0.0,0.0,0.0,1.0,0.0,0.0,0.0,1.0,-0.731707334518,0.731707334518,-3.59756112099,1.0,0.0,0.0,0.0,1.0,0.0,0.0,0.0,1.0,-0.502782348633,-1.62805712891,10.2376062988,1.0,0.0,0.0,0.0,1.0,0.0,0.0,0.0,1.0
1464076444988926365,480,1464076444832227149,,7.68048763275,-1.93286168575,-25.0498485565,0.0034020000603,1.0,0.0,0.0,0.0,1.0,0.0,0.0,0.0,1.0,-1.2804877758,2.80487799644,-1.64634156227,1.0,0.0,0.0,0.0,1.0,0.0,0.0,0.0,1.0,-0.229843359375,-1.68072956543,10.0317049561,1.0,0.0,0.0,0.0,1.0,0.0,0.0,0.0,1.0
1464076444989455999,481,1464076444853562144,,7.68901920319,-1.96007287502,-24.1639881134,0.00149399996735,1.0,0.0,0.0,0.0,1.0,0.0,0.0,0.0,1.0,-1.15853655338,4.02439022064,-0.975609779358,1.0,0.0,0.0,0.0,1.0,0.0,0.0,0.0,1.0,-0.31124621582,-1.97282216797,10.0556469727,1.0,0.0,0.0,0.0,1.0,0.0,0.0,0.0,1.0
1464076444989511155,482,1464076444874805577,,7.7160692215,-1.97419154644,-23.216835022,0.00204699998721,1.0,0.0,0.0,0.0,1.0,0.0,0.0,0.0,1.0,0.12195122242,2.37804889679,-0.548780500889,1.0,0.0,0.0,0.0,1.0,0.0,0.0,0.0,1.0,-0.397437475586,-1.71903679199,10.0269165527,1.0,0.0,0.0,0.0,1.0,0.0,0.0,0.0,1.0
1464076444989549019,483,1464076444896062083,,7.68161869049,-1.96873497963,-22.2940711975,0.00191300001461,1.0,0.0,0.0,0.0,1.0,0.0,0.0,0.0,1.0,0.426829278469,-1.40243899822,-1.64634156227,1.0,0.0,0.0,0.0,1.0,0.0,0.0,0.0,1.0,-0.181959326172,-1.68551796875,10.1083194092,1.0,0.0,0.0,0.0,1.0,0.0,0.0,0.0,1.0
1464076444994178226,484,1464076444918300096,,7.59292316437,-1.95274376869,-21.3849983215,0.00196000002325,1.0,0.0,0.0,0.0,1.0,0.0,0.0,0.0,1.0,0.426829278469,-1.09756100178,-2.01219511032,1.0,0.0,0.0,0.0,1.0,0.0,0.0,0.0,1.0,-0.354341845703,-1.62805712891,10.2471831055,1.0,0.0,0.0,0.0,1.0,0.0,0.0,0.0,1.0
1464076444994245153,485,1464076444938969415,,7.52042722702,-1.94660842419,-20.4976005554,0.00197200011462,1.0,0.0,0.0,0.0,1.0,0.0,0.0,0.0,1.0,0.243902444839,1.2195122242,-0.975609779358,1.0,0.0,0.0,0.0,1.0,0.0,0.0,0.0,1.0,-0.3064578125,-1.64721074219,10.2040874756,1.0,0.0,0.0,0.0,1.0,0.0,0.0,0.0,1.0
1464076444994285934,486,1464076444959086601,,7.46045351028,-1.94251728058,-19.6064243317,0.0014530000044,1.0,0.0,0.0,0.0,1.0,0.0,0.0,0.0,1.0,-0.426829278469,-1.2804877758,-2.13414645195,1.0,0.0,0.0,0.0,1.0,0.0,0.0,0.0,1.0,0.205901342773,-1.61848032227,10.285490332,1.0,0.0,0.0,0.0,1.0,0.0,0.0,0.0,1.0
1464076445373262261,487,1464076444982355705,,7.40256643295,-1.96335637569,-18.6357841492,0.00312600005418,1.0,0.0,0.0,0.0,1.0,0.0,0.0,0.0,1.0,-0.243902444839,0.975609779358,-1.70731711388,1.0,0.0,0.0,0.0,1.0,0.0,0.0,0.0,1.0,-0.684741674805,-1.80522805176,10.1992990723,1.0,0.0,0.0,0.0,1.0,0.0,0.0,0.0,1.0
1464076445373570281,488,1464076445004028981,,7.38873434067,-1.959420681,-17.671546936,0.00161799998023,1.0,0.0,0.0,0.0,1.0,0.0,0.0,0.0,1.0,0.609756112099,0.548780500889,0.792682945728,1.0,0.0,0.0,0.0,1.0,0.0,0.0,0.0,1.0,-0.641646044922,-1.63284553223,10.1562034424,1.0,0.0,0.0,0.0,1.0,0.0,0.0,0.0,1.0
1464076445373842833,489,1464076445026676420,,7.33105564117,-1.94267582893,-16.6640510559,0.00191400002223,1.0,0.0,0.0,0.0,1.0,0.0,0.0,0.0,1.0,0.243902444839,-0.487804889679,1.34146344662,1.0,0.0,0.0,0.0,1.0,0.0,0.0,0.0,1.0,-0.555454785156,-1.47482822266,9.80186159668,1.0,0.0,0.0,0.0,1.0,0.0,0.0,0.0,1.0
1464076445374151321,490,1464076445047911832,,7.26044988632,-1.93088209629,-15.6962308884,0.00182500004303,1.0,0.0,0.0,0.0,1.0,0.0,0.0,0.0,1.0,-0.426829278469,-1.46341466904,1.09756100178,1.0,0.0,0.0,0.0,1.0,0.0,0.0,0.0,1.0,-0.397437475586,-1.62805712891,10.1083194092,1.0,0.0,0.0,0.0,1.0,0.0,0.0,0.0,1.0
1464076445374446737,491,1464076445070932447,,7.14705038071,-1.93699920177,-14.6940822601,0.00184499996249,1.0,0.0,0.0,0.0,1.0,0.0,0.0,0.0,1.0,-0.609756112099,-2.56097555161,1.40243899822,1.0,0.0,0.0,0.0,1.0,0.0,0.0,0.0,1.0,-0.354341845703,-1.69988317871,10.2136642822,1.0,0.0,0.0,0.0,1.0,0.0,0.0,0.0,1.0
1464076445374727414,492,1464076445092473118,,7.0574593544,-1.95220196247,-13.6474399567,0.00311499997042,1.0,0.0,0.0,0.0,1.0,0.0,0.0,0.0,1.0,-1.2804877758,-1.52439022064,3.29268312454,1.0,0.0,0.0,0.0,1.0,0.0,0.0,0.0,1.0,-0.497993945312,-2.10689731481,10.7403886475,1.0,0.0,0.0,0.0,1.0,0.0,0.0,0.0,1.0
1464076445375050590,493,1464076445112699262,,6.98642301559,-1.96427166462,-12.6443481445,0.00278400001116,1.0,0.0,0.0,0.0,1.0,0.0,0.0,0.0,1.0,-1.03658533096,-1.58536589146,4.69512224197,1.0,0.0,0.0,0.0,1.0,0.0,0.0,0.0,1.0,-0.512359155273,-1.92493813477,10.1753570557,1.0,0.0,0.0,0.0,1.0,0.0,0.0,0.0,1.0
1464076445375395172,494,1464076445134422225,,6.83909320831,-1.99295210838,-11.6182117462,0.00150999997277,1.0,0.0,0.0,0.0,1.0,0.0,0.0,0.0,1.0,-1.8902438879,-9.08536529541,0.0609756112099,1.0,0.0,0.0,0.0,1.0,0.0,0.0,0.0,1.0,0.316034619141,-1.75255561523,11.0133276367,1.0,0.0,0.0,0.0,1.0,0.0,0.0,0.0,1.0
1464076445375697776,495,1464076445156471332,,6.6331114769,-2.03537368774,-10.6778535843,0.0019490000559,1.0,0.0,0.0,0.0,1.0,0.0,0.0,0.0,1.0,-2.5,-4.32926845551,1.03658533096,1.0,0.0,0.0,0.0,1.0,0.0,0.0,0.0,1.0,-0.756567724609,-1.69509477539,10.0891657959,1.0,0.0,0.0,0.0,1.0,0.0,0.0,0.0,1.0
1464076445375978504,496,1464076445176121384,,6.54370260239,-2.08859205246,-9.7150850296,0.00169399997685,1.0,0.0,0.0,0.0,1.0,0.0,0.0,0.0,1.0,-2.43902444839,-2.5,5.60975599289,1.0,0.0,0.0,0.0,1.0,0.0,0.0,0.0,1.0,-0.823605371094,-1.63284553223,10.1514150391,1.0,0.0,0.0,0.0,1.0,0.0,0.0,0.0,1.0
1464076445376265534,497,1464076445198616271,,6.48521709442,-2.1213145256,-8.58341312408,0.00180199998431,1.0,0.0,0.0,0.0,1.0,0.0,0.0,0.0,1.0,-0.426829278469,-4.32926845551,6.46341466904,1.0,0.0,0.0,0.0,1.0,0.0,0.0,0.0,1.0,-0.426167895508,-1.69988317871,10.0843773926,1.0,0.0,0.0,0.0,1.0,0.0,0.0,0.0,1.0
1464076445376554961,498,1464076445220361786,,6.33484601974,-2.14283514023,-7.53678560257,0.00217900006101,1.0,0.0,0.0,0.0,1.0,0.0,0.0,0.0,1.0,-1.76829278469,-8.78048801422,3.10975623131,1.0,0.0,0.0,0.0,1.0,0.0,0.0,0.0,1.0,-0.134075302102,-1.34075292969,10.2950671387,1.0,0.0,0.0,0.0,1.0,0.0,0.0,0.0,1.0
1464076445376895377,499,1464076445242374904,,6.11456727982,-2.18464970589,-6.48010396957,0.00241900002584,1.0,0.0,0.0,0.0,1.0,0.0,0.0,0.0,1.0,-1.46341466904,-8.10975551605,2.5,1.0,0.0,0.0,0.0,1.0,0.0,0.0,0.0,1.0,-0.349553442383,-1.93930334473,10.6302553711,1.0,0.0,0.0,0.0,1.0,0.0,0.0,0.0,1.0
1464076445377203917,500,1464076445262385371,,5.95110321045,-2.21678948402,-5.49967861176,0.00238700001501,1.0,0.0,0.0,0.0,1.0,0.0,0.0,0.0,1.0,0.0,-5.91463422775,3.84146332741,1.0,0.0,0.0,0.0,1.0,0.0,0.0,0.0,1.0,-0.569819995117,-1.95366855469,10.7978494873,1.0,0.0,0.0,0.0,1.0,0.0,0.0,0.0,1.0
1464076445377599854,501,1464076445283324586,,5.8056435585,-2.22256755829,-4.49121856689,0.00147200003266,1.0,0.0,0.0,0.0,1.0,0.0,0.0,0.0,1.0,0.304878056049,-6.0365858078,5.12195110321,1.0,0.0,0.0,0.0,1.0,0.0,0.0,0.0,1.0,-0.411802685547,-1.6041151123,10.6541973877,1.0,0.0,0.0,0.0,1.0,0.0,0.0,0.0,1.0
1464076445377925270,502,1464076445304493227,,5.67626667023,-2.23416113853,-3.42562031746,0.00151700002607,1.0,0.0,0.0,0.0,1.0,0.0,0.0,0.0,1.0,-1.70731711388,-7.37804937363,6.28048801422,1.0,0.0,0.0,0.0,1.0,0.0,0.0,0.0,1.0,-0.76135612793,-1.53707746582,10.6925046143,1.0,0.0,0.0,0.0,1.0,0.0,0.0,0.0,1.0
1464076445378293394,503,1464076445325996971,,5.5004196167,-2.26194524765,-2.32827281952,0.00200699991547,1.0,0.0,0.0,0.0,1.0,0.0,0.0,0.0,1.0,-2.19512200356,-10.3658542633,6.64634132385,1.0,0.0,0.0,0.0,1.0,0.0,0.0,0.0,1.0,-0.612915625,-1.5562310791,10.7020814209,1.0,0.0,0.0,0.0,1.0,0.0,0.0,0.0,1.0
1464076445413053873,504,1464076445346545822,,5.29452371597,-2.29729771614,-1.26897013187,0.00189800001681,1.0,0.0,0.0,0.0,1.0,0.0,0.0,0.0,1.0,-4.02439022064,-12.6829271317,6.89024400711,1.0,0.0,0.0,0.0,1.0,0.0,0.0,0.0,1.0,-0.699106884766,-1.29286889648,10.4722380615,1.0,0.0,0.0,0.0,1.0,0.0,0.0,0.0,1.0
1464076445413467831,505,1464076445367040663,,5.03874588013,-2.37402510643,-0.194104909897,0.00189700000919,1.0,0.0,0.0,0.0,1.0,0.0,0.0,0.0,1.0,-6.64634132385,-16.2195110321,7.01219511032,1.0,0.0,0.0,0.0,1.0,0.0,0.0,0.0,1.0,-0.718260498047,-1.29286889648,10.2088758789,1.0,0.0,0.0,0.0,1.0,0.0,0.0,0.0,1.0
1464076445461809316,506,1464076445388661178,,4.68383646011,-2.49726080894,0.899026989937,0.00227899989113,1.0,0.0,0.0,0.0,1.0,0.0,0.0,0.0,1.0,-7.07317113876,-19.3292694092,4.75609779358,1.0,0.0,0.0,0.0,1.0,0.0,0.0,0.0,1.0,-0.430956298828,-1.41257897949,10.3621047852,1.0,0.0,0.0,0.0,1.0,0.0,0.0,0.0,1.0
1464076445462135721,507,1464076445411273566,,4.27474546432,-2.64266991615,2.02628993988,0.00202500005253,1.0,0.0,0.0,0.0,1.0,0.0,0.0,0.0,1.0,-5.97560977936,-17.3780498505,6.64634132385,1.0,0.0,0.0,0.0,1.0,0.0,0.0,0.0,1.0,-0.263362164351,-1.63763393555,9.8545340332,1.0,0.0,0.0,0.0,1.0,0.0,0.0,0.0,1.0
1464076445469313358,508,1464076445432173770,,4.01677083969,-2.76738357544,3.24926304817,0.00382300000638,1.0,0.0,0.0,0.0,1.0,0.0,0.0,0.0,1.0,-4.08536577225,-13.2317075729,13.841463089,1.0,0.0,0.0,0.0,1.0,0.0,0.0,0.0,1.0,-0.622492431641,-1.69509477539,9.89762966309,1.0,0.0,0.0,0.0,1.0,0.0,0.0,0.0,1.0
1464076445469641847,509,1464076445454667720,,3.83593726158,-2.8182516098,4.60052871704,0.00158999999985,1.0,0.0,0.0,0.0,1.0,0.0,0.0,0.0,1.0,-0.426829278469,-12.7439022064,17.0121955872,1.0,0.0,0.0,0.0,1.0,0.0,0.0,0.0,1.0,-0.339976635742,-1.5562310791,9.35653950337,1.0,0.0,0.0,0.0,1.0,0.0,0.0,0.0,1.0
1464076445508160233,510,1464076445476113600,,3.63836193085,-2.83945155144,5.99700069427,0.00195900001563,1.0,0.0,0.0,0.0,1.0,0.0,0.0,0.0,1.0,0.609756112099,-13.4146347046,22.0121955872,1.0,0.0,0.0,0.0,1.0,0.0,0.0,0.0,1.0,-0.373495458984,-1.94409174805,10.2232410889,1.0,0.0,0.0,0.0,1.0,0.0,0.0,0.0,1.0
1464076445508624034,511,1464076445497237241,,3.47749710083,-2.81290149689,7.47910642624,0.001912000007,1.0,0.0,0.0,0.0,1.0,0.0,0.0,0.0,1.0,4.08536577225,-15.1829271317,27.9268302917,1.0,0.0,0.0,0.0,1.0,0.0,0.0,0.0,1.0,-0.933738647461,-1.93930334473,10.3908352051,1.0,0.0,0.0,0.0,1.0,0.0,0.0,0.0,1.0
1464076445549287362,512,1464076445519360515,,3.22203445435,-2.73783874512,9.11542224884,0.00132999999914,1.0,0.0,0.0,0.0,1.0,0.0,0.0,0.0,1.0,5.79268312454,-22.3780498505,30.975610733,1.0,0.0,0.0,0.0,1.0,0.0,0.0,0.0,1.0,-0.541089611728,-1.94409174805,10.5632177246,1.0,0.0,0.0,0.0,1.0,0.0,0.0,0.0,1.0
1464076445549329081,513,1464076445540970978,,2.81121373177,-2.61739182472,10.8626308441,0.00198699999601,1.0,0.0,0.0,0.0,1.0,0.0,0.0,0.0,1.0,5.54878091812,-27.1951236725,35.4268302917,1.0,0.0,0.0,0.0,1.0,0.0,0.0,0.0,1.0,-0.861912597656,-1.75255561523,10.7116582275,1.0,0.0,0.0,0.0,1.0,0.0,0.0,0.0,1.0
1464076445604628985,514,1464076445562282744,,2.29330945015,-2.50373649597,12.6066541672,0.00380999990739,1.0,0.0,0.0,0.0,1.0,0.0,0.0,0.0,1.0,6.7682929039,-28.1707324982,39.5731735229,1.0,0.0,0.0,0.0,1.0,0.0,0.0,0.0,1.0,-0.569819995117,-1.68072956543,10.6637741943,1.0,0.0,0.0,0.0,1.0,0.0,0.0,0.0,1.0
1464076445604694245,515,1464076445584190810,,1.79617464542,-2.38623046875,14.5117397308,0.00206200010143,1.0,0.0,0.0,0.0,1.0,0.0,0.0,0.0,1.0,7.80487823486,-27.1341457367,42.682926178,1.0,0.0,0.0,0.0,1.0,0.0,0.0,0.0,1.0,-0.234631762695,-1.54186586914,10.2519715088,1.0,0.0,0.0,0.0,1.0,0.0,0.0,0.0,1.0
1464076445681494456,516,1464076445604572474,,1.40577709675,-2.26880884171,16.5017433167,0.00164100003894,1.0,0.0,0.0,0.0,1.0,0.0,0.0,0.0,1.0,8.29268264771,-20.975610733,48.6585388184,1.0,0.0,0.0,0.0,1.0,0.0,0.0,0.0,1.0,-0.842758984375,-1.65199914551,9.7348239502,1.0,0.0,0.0,0.0,1.0,0.0,0.0,0.0,1.0
1464076445681786799,517,1464076445626891269,,1.1172413826,-2.1327393055,18.6399517059,0.001704000053,1.0,0.0,0.0,0.0,1.0,0.0,0.0,0.0,1.0,12.5609760284,-19.0853652954,53.5365867615,1.0,0.0,0.0,0.0,1.0,0.0,0.0,0.0,1.0,-0.497993945312,-2.03028300781,10.2471831055,1.0,0.0,0.0,0.0,1.0,0.0,0.0,0.0,1.0
1464076445682062215,518,1464076445649520323,,0.894904494286,-1.90317058563,20.7557888031,0.00173999997787,1.0,0.0,0.0,0.0,1.0,0.0,0.0,0.0,1.0,15.6707315445,-11.5853662491,54.390247345,1.0,0.0,0.0,0.0,1.0,0.0,0.0,0.0,1.0,-0.383072265625,-1.33117612305,10.0221281494,1.0,0.0,0.0,0.0,1.0,0.0,0.0,0.0,1.0
1464076445710133598,519,1464076445670697610,,0.723263025284,-1.60949933529,22.8601360321,0.00312900007702,1.0,0.0,0.0,0.0,1.0,0.0,0.0,0.0,1.0,13.9024391174,-13.3536586761,50.6097564697,1.0,0.0,0.0,0.0,1.0,0.0,0.0,0.0,1.0,0.0191536132812,-0.837970581055,10.1418382324,1.0,0.0,0.0,0.0,1.0,0.0,0.0,0.0,1.0
1464076445710406253,520,1464076445692042969,,0.514089167118,-1.36446321011,24.861831665,0.00269300001673,1.0,0.0,0.0,0.0,1.0,0.0,0.0,0.0,1.0,9.87804889679,-14.2682924271,45.6097564697,1.0,0.0,0.0,0.0,1.0,0.0,0.0,0.0,1.0,0.124498486328,-0.679953271484,10.4147772217,1.0,0.0,0.0,0.0,1.0,0.0,0.0,0.0,1.0
1464076445761041274,521,1464076445718675814,,0.267700105906,-1.2174642086,26.8352966309,0.00543900020421,1.0,0.0,0.0,0.0,1.0,0.0,0.0,0.0,1.0,4.02439022064,-12.9268293381,42.682926178,1.0,0.0,0.0,0.0,1.0,0.0,0.0,0.0,1.0,-0.067037651051,-0.670376464844,10.1322614258,1.0,0.0,0.0,0.0,1.0,0.0,0.0,0.0,1.0
1464076445761375439,522,1464076445736337798,,0.131140261889,-1.22843110561,28.6703395844,0.00218899990432,1.0,0.0,0.0,0.0,1.0,0.0,0.0,0.0,1.0,0.975609779358,-9.93902492523,44.5731735229,1.0,0.0,0.0,0.0,1.0,0.0,0.0,0.0,1.0,-1.24019645996,-1.44609780273,10.2088758789,1.0,0.0,0.0,0.0,1.0,0.0,0.0,0.0,1.0
1464076445788343180,523,1464076445756762066,,0.0225118771195,-1.29109489918,30.5854988098,0.00206499989145,1.0,0.0,0.0,0.0,1.0,0.0,0.0,0.0,1.0,2.74390244484,-11.9512195587,45.5487823486,1.0,0.0,0.0,0.0,1.0,0.0,0.0,0.0,1.0,-0.972045874023,-1.32159931641,10.1753570557,1.0,0.0,0.0,0.0,1.0,0.0,0.0,0.0,1.0
1464076445788777762,524,1464076445778666226,,-0.1358589679,-1.32884013653,32.6107292175,0.0024459999986,1.0,0.0,0.0,0.0,1.0,0.0,0.0,0.0,1.0,2.80487799644,-14.5121955872,45.2439041138,1.0,0.0,0.0,0.0,1.0,0.0,0.0,0.0,1.0,-0.162805712891,-1.28329208984,10.3429511719,1.0,0.0,0.0,0.0,1.0,0.0,0.0,0.0,1.0
1464076445829199685,525,1464076445800203773,,-0.332386493683,-1.35961198807,34.6028022766,0.00247800000943,1.0,0.0,0.0,0.0,1.0,0.0,0.0,0.0,1.0,1.8292683363,-12.8658542633,45.2439041138,1.0,0.0,0.0,0.0,1.0,0.0,0.0,0.0,1.0,-0.483628735352,-1.12527478027,9.96945571289,1.0,0.0,0.0,0.0,1.0,0.0,0.0,0.0,1.0
1464076445829501403,526,1464076445822291057,,-0.473284780979,-1.38331031799,36.4946670532,0.00175799999852,1.0,0.0,0.0,0.0,1.0,0.0,0.0,0.0,1.0,2.01219511032,-12.5609760284,45.7926826477,1.0,0.0,0.0,0.0,1.0,0.0,0.0,0.0,1.0,-0.507570751953,-1.06302561017,9.92157167969,1.0,0.0,0.0,0.0,1.0,0.0,0.0,0.0,1.0
1464076445868290413,527,1464076445842100119,,-0.594711303711,-1.42132377625,38.413860321,0.00153600005433,1.0,0.0,0.0,0.0,1.0,0.0,0.0,0.0,1.0,4.20731735229,-12.1341466904,45.9756088257,1.0,0.0,0.0,0.0,1.0,0.0,0.0,0.0,1.0,-0.416591088867,-1.35032973633,9.65821008159,1.0,0.0,0.0,0.0,1.0,0.0,0.0,0.0,1.0
1464076445868347705,528,1464076445862586887,,-0.713647902012,-1.43476819992,40.3082084656,0.00129399995785,1.0,0.0,0.0,0.0,1.0,0.0,0.0,0.0,1.0,5.97560977936,-11.4024391174,47.0731697083,1.0,0.0,0.0,0.0,1.0,0.0,0.0,0.0,1.0,-0.675164868164,-1.35990654297,9.36132790669,1.0,0.0,0.0,0.0,1.0,0.0,0.0,0.0,1.0
1464076445908494941,529,1464076445884010736,,-0.774752140045,-1.41042149067,42.3161430359,0.00234099989757,1.0,0.0,0.0,0.0,1.0,0.0,0.0,0.0,1.0,7.19512224197,-6.95121955872,51.7073173523,1.0,0.0,0.0,0.0,1.0,0.0,0.0,0.0,1.0,-0.746990917969,-1.33117612305,9.62947966167,1.0,0.0,0.0,0.0,1.0,0.0,0.0,0.0,1.0
1464076445908540566,530,1464076445904497243,,-0.762946844101,-1.37096571922,44.3994102478,0.00129599997308,1.0,0.0,0.0,0.0,1.0,0.0,0.0,0.0,1.0,8.23170757294,-4.14634132385,54.9390258789,1.0,0.0,0.0,0.0,1.0,0.0,0.0,0.0,1.0,0.397437475586,-1.44130939941,9.5432884019,1.0,0.0,0.0,0.0,1.0,0.0,0.0,0.0,1.0
1464076445950164360,531,1464076445925329948,,-0.718967139721,-1.2791261673,46.4804954529,0.00196300004609,1.0,0.0,0.0,0.0,1.0,0.0,0.0,0.0,1.0,9.20731735229,-4.63414621353,55.6707344055,1.0,0.0,0.0,0.0,1.0,0.0,0.0,0.0,1.0,-0.373495458984,-0.995987890625,10.0029745361,1.0,0.0,0.0,0.0,1.0,0.0,0.0,0.0,1.0
1464076445950577588,532,1464076445946997233,,-0.714180767536,-1.16642308235,48.6254463196,0.00165200000629,1.0,0.0,0.0,0.0,1.0,0.0,0.0,0.0,1.0,8.23170757294,-9.63414573669,53.6585388184,1.0,0.0,0.0,0.0,1.0,0.0,0.0,0.0,1.0,-0.569819995117,-0.823605371094,9.72524714355,1.0,0.0,0.0,0.0,1.0,0.0,0.0,0.0,1.0
1464076445970689097,533,1464076445968022333,,-0.795449197292,-1.11465132236,50.7448501587,0.00135499995667,1.0,0.0,0.0,0.0,1.0,0.0,0.0,0.0,1.0,4.63414621353,-10.4268293381,55.9146347046,1.0,0.0,0.0,0.0,1.0,0.0,0.0,0.0,1.0,-0.656011254883,-0.890643017578,9.78749638672,1.0,0.0,0.0,0.0,1.0,0.0,0.0,0.0,1.0
1464076445991313052,534,1464076445988333789,,-0.865669429302,-1.14300310612,52.8850784302,0.00177099998109,1.0,0.0,0.0,0.0,1.0,0.0,0.0,0.0,1.0,1.34146344662,-10.4878053665,59.5731735229,1.0,0.0,0.0,0.0,1.0,0.0,0.0,0.0,1.0,-0.225054956055,-1.08217922346,10.1753570557,1.0,0.0,0.0,0.0,1.0,0.0,0.0,0.0,1.0
1464076446012418100,535,1464076446009781232,,-0.971550881863,-1.2263559103,55.1313781738,0.00196100003086,1.0,0.0,0.0,0.0,1.0,0.0,0.0,0.0,1.0,0.548780500889,-6.0365858078,58.9634132385,1.0,0.0,0.0,0.0,1.0,0.0,0.0,0.0,1.0,0.239420166016,-1.25456166992,10.0652237793,1.0,0.0,0.0,0.0,1.0,0.0,0.0,0.0,1.0
1464076446037277877,536,1464076446030338624,,-0.928826570511,-1.33359003067,57.3009529114,0.0017719999887,1.0,0.0,0.0,0.0,1.0,0.0,0.0,0.0,1.0,0.731707334518,-0.792682945728,60.9146347046,1.0,0.0,0.0,0.0,1.0,0.0,0.0,0.0,1.0,-0.00957680664062,-1.05823706072,10.524910498,1.0,0.0,0.0,0.0,1.0,0.0,0.0,0.0,1.0
1464076446053030751,537,1464076446051204610,,-0.749771058559,-1.42863821983,59.4971618652,0.001304000034,1.0,0.0,0.0,0.0,1.0,0.0,0.0,0.0,1.0,-1.09756100178,4.02439022064,61.4634132385,1.0,0.0,0.0,0.0,1.0,0.0,0.0,0.0,1.0,-0.612915625,-0.928950244141,9.95030209961,1.0,0.0,0.0,0.0,1.0,0.0,0.0,0.0,1.0
1464076446075537149,538,1464076446072627938,,-0.424335986376,-1.54826903343,61.8390846252,0.00200100010261,1.0,0.0,0.0,0.0,1.0,0.0,0.0,0.0,1.0,-3.65853667259,6.34146356583,64.5731735229,1.0,0.0,0.0,0.0,1.0,0.0,0.0,0.0,1.0,-1.13963999023,-1.16358193377,10.0748005859,1.0,0.0,0.0,0.0,1.0,0.0,0.0,0.0,1.0
1464076446095120794,539,1464076446093245070,,-0.185653984547,-1.69962477684,64.0622787476,0.00206699990667,1.0,0.0,0.0,0.0,1.0,0.0,0.0,0.0,1.0,-3.7804877758,0.670731723309,62.4390258789,1.0,0.0,0.0,0.0,1.0,0.0,0.0,0.0,1.0,-0.46447512207,-1.28329208984,10.0939541992,1.0,0.0,0.0,0.0,1.0,0.0,0.0,0.0,1.0
1464076446117121413,540,1464076446114291368,,-0.0532824732363,-1.85811650753,66.2974090576,0.00324200000614,1.0,0.0,0.0,0.0,1.0,0.0,0.0,0.0,1.0,-5.30487823486,-3.10975623131,58.4756126404,1.0,0.0,0.0,0.0,1.0,0.0,0.0,0.0,1.0,-0.651222851562,-0.876277807617,10.165780249,1.0,0.0,0.0,0.0,1.0,0.0,0.0,0.0,1.0
1464076446163705611,541,1464076446137226515,,-0.00486971158534,-2.05248165131,68.5318756104,0.0015340000391,1.0,0.0,0.0,0.0,1.0,0.0,0.0,0.0,1.0,-6.40243911743,-5.0,55.8536605835,1.0,0.0,0.0,0.0,1.0,0.0,0.0,0.0,1.0,-0.435744702148,-1.2737152832,10.165780249,1.0,0.0,0.0,0.0,1.0,0.0,0.0,0.0,1.0
1464076446164247328,542,1464076446156970264,,0.0190064962953,-2.25749659538,70.5832443237,0.00132899999153,1.0,0.0,0.0,0.0,1.0,0.0,0.0,0.0,1.0,-4.81707286835,-4.02439022064,54.3292694092,1.0,0.0,0.0,0.0,1.0,0.0,0.0,0.0,1.0,-0.114921679688,-1.74297880859,10.3046439453,1.0,0.0,0.0,0.0,1.0,0.0,0.0,0.0,1.0
1464076446181249730,543,1464076446178548956,,0.0896851196885,-2.4237112999,72.696975708,0.00143199996091,1.0,0.0,0.0,0.0,1.0,0.0,0.0,0.0,1.0,-1.34146344662,-1.34146344662,51.5853691101,1.0,0.0,0.0,0.0,1.0,0.0,0.0,0.0,1.0,-0.148440512063,-1.79565124512,10.8313683105,1.0,0.0,0.0,0.0,1.0,0.0,0.0,0.0,1.0
1464076446202604465,544,1464076446199439994,,0.22587941587,-2.52504658699,74.7124099731,0.00215699989349,1.0,0.0,0.0,0.0,1.0,0.0,0.0,0.0,1.0,0.365853667259,-0.609756112099,49.0853652954,1.0,0.0,0.0,0.0,1.0,0.0,0.0,0.0,1.0,-0.359130249023,-1.77170922852,11.04684646,1.0,0.0,0.0,0.0,1.0,0.0,0.0,0.0,1.0
1464076446224720864,545,1464076446221866965,,0.393950819969,-2.59882736206,76.7493896484,0.00137499999255,1.0,0.0,0.0,0.0,1.0,0.0,0.0,0.0,1.0,1.03658533096,2.92682933807,49.8780479431,1.0,0.0,0.0,0.0,1.0,0.0,0.0,0.0,1.0,0.076614453125,-1.67594116211,11.1330377197,1.0,0.0,0.0,0.0,1.0,0.0,0.0,0.0,1.0
1464076446247337209,546,1464076446244766383,,0.670329928398,-2.65046143532,78.8943099976,0.00230800011195,1.0,0.0,0.0,0.0,1.0,0.0,0.0,0.0,1.0,-1.03658533096,6.7682929039,51.7073173523,1.0,0.0,0.0,0.0,1.0,0.0,0.0,0.0,1.0,-1.03908344744,-1.54665427246,10.6206785645,1.0,0.0,0.0,0.0,1.0,0.0,0.0,0.0,1.0
1464076446269388296,547,1464076446266273617,,0.878229081631,-2.74464058876,81.0120697021,0.00266300002113,1.0,0.0,0.0,0.0,1.0,0.0,0.0,0.0,1.0,-3.84146332741,5.42682933807,46.0365867615,1.0,0.0,0.0,0.0,1.0,0.0,0.0,0.0,1.0,0.354341845703,-1.54665427246,11.4251303223,1.0,0.0,0.0,0.0,1.0,0.0,0.0,0.0,1.0
1464076446318720403,548,1464076446287922465,,1.12336087227,-2.89409947395,82.9351959229,0.00188999995589,1.0,0.0,0.0,0.0,1.0,0.0,0.0,0.0,1.0,-5.42682933807,6.70731735229,42.9878044128,1.0,0.0,0.0,0.0,1.0,0.0,0.0,0.0,1.0,-0.0861912597656,-1.72382519531,11.3676694824,1.0,0.0,0.0,0.0,1.0,0.0,0.0,0.0,1.0
1464076446318770924,549,1464076446310415998,,1.39694416523,-3.06872820854,84.769744873,0.00138699996751,1.0,0.0,0.0,0.0,1.0,0.0,0.0,0.0,1.0,-6.15853643417,11.6463422775,43.6585388184,1.0,0.0,0.0,0.0,1.0,0.0,0.0,0.0,1.0,-0.0383072265625,-1.87226569824,11.8656634277,1.0,0.0,0.0,0.0,1.0,0.0,0.0,0.0,1.0
1464076446335133015,550,1464076446330155268,,1.74917471409,-3.24187016487,86.5714874268,0.00270799989812,1.0,0.0,0.0,0.0,1.0,0.0,0.0,0.0,1.0,-5.36585378647,11.1585359573,42.5609779358,1.0,0.0,0.0,0.0,1.0,0.0,0.0,0.0,1.0,-0.344765039063,-1.92014973145,11.6693388916,1.0,0.0,0.0,0.0,1.0,0.0,0.0,0.0,1.0
1464076446363395752,551,1464076446352915884,,2.09861707687,-3.39865660667,88.4220657349,0.00124799995683,1.0,0.0,0.0,0.0,1.0,0.0,0.0,0.0,1.0,-7.01219511032,11.0365858078,40.0609741211,1.0,0.0,0.0,0.0,1.0,0.0,0.0,0.0,1.0,-0.239420166016,-1.55144267578,11.0947304932,1.0,0.0,0.0,0.0,1.0,0.0,0.0,0.0,1.0
1464076446390502763,552,1464076446373568069,,2.42803263664,-3.52154040337,90.2028808594,0.00206599989906,1.0,0.0,0.0,0.0,1.0,0.0,0.0,0.0,1.0,-9.26829242706,12.4390249252,36.4634170532,1.0,0.0,0.0,0.0,1.0,0.0,0.0,0.0,1.0,0.0287304199219,-0.991199487305,10.3668931885,1.0,0.0,0.0,0.0,1.0,0.0,0.0,0.0,1.0
1464076446410483490,553,1464076446396404205,,2.76964259148,-3.70069527626,91.9457015991,0.00280199991539,1.0,0.0,0.0,0.0,1.0,0.0,0.0,0.0,1.0,-11.9512195587,11.0975618362,29.4512195587,1.0,0.0,0.0,0.0,1.0,0.0,0.0,0.0,1.0,0.177170922852,-1.1540052002,9.74440075684,1.0,0.0,0.0,0.0,1.0,0.0,0.0,0.0,1.0
1464076446418254824,554,1464076446415310353,,3.02688670158,-3.96394681931,93.3572921753,0.00209200009704,1.0,0.0,0.0,0.0,1.0,0.0,0.0,0.0,1.0,-10.6097564697,12.8048782349,22.4390239716,1.0,0.0,0.0,0.0,1.0,0.0,0.0,0.0,1.0,0.335188232422,-2.25533796387,9.72045874023,1.0,0.0,0.0,0.0,1.0,0.0,0.0,0.0,1.0
1464076446439349924,555,1464076446437897948,,3.39544415474,-4.21875429153,94.7797927856,0.0026769998949,1.0,0.0,0.0,0.0,1.0,0.0,0.0,0.0,1.0,-2.5,17.6219520569,21.7073173523,1.0,0.0,0.0,0.0,1.0,0.0,0.0,0.0,1.0,-0.0191536132812,-3.1364041748,10.7403886475,1.0,0.0,0.0,0.0,1.0,0.0,0.0,0.0,1.0
1464076446463494807,556,1464076446459100860,,3.91938614845,-4.27752304077,96.2208557129,0.00134800001979,1.0,0.0,0.0,0.0,1.0,0.0,0.0,0.0,1.0,8.59756088257,24.7560977936,25.4268302917,1.0,0.0,0.0,0.0,1.0,0.0,0.0,0.0,1.0,-0.253785375977,-3.1124621582,10.898405957,1.0,0.0,0.0,0.0,1.0,0.0,0.0,0.0,1.0
1464076446494948160,557,1464076446479613878,,4.50985097885,-4.11167764664,97.627243042,0.00150599994231,1.0,0.0,0.0,0.0,1.0,0.0,0.0,0.0,1.0,16.8292694092,24.3902435303,26.3414649963,1.0,0.0,0.0,0.0,1.0,0.0,0.0,0.0,1.0,-0.488417138672,-2.98796367187,10.4578728516,1.0,0.0,0.0,0.0,1.0,0.0,0.0,0.0,1.0
1464076446546577865,558,1464076446501601007,,5.06773948669,-3.72022843361,99.0998001099,0.00136100000236,1.0,0.0,0.0,0.0,1.0,0.0,0.0,0.0,1.0,24.3902435303,18.5975627899,23.2926845551,1.0,0.0,0.0,0.0,1.0,0.0,0.0,0.0,1.0,-0.349553442383,-2.50912333984,10.5296989014,1.0,0.0,0.0,0.0,1.0,0.0,0.0,0.0,1.0
1464076446547116978,559,1464076446522891106,,5.47490930557,-3.17607212067,100.513771057,0.00174400000833,1.0,0.0,0.0,0.0,1.0,0.0,0.0,0.0,1.0,26.8292694092,12.2560977936,20.975610733,1.0,0.0,0.0,0.0,1.0,0.0,0.0,0.0,1.0,-0.775721337891,-2.03507141113,9.79228479004,1.0,0.0,0.0,0.0,1.0,0.0,0.0,0.0,1.0
1464076446549231452,560,1464076446544276569,,5.66508674622,-2.585064888,101.860412598,0.00147300004028,1.0,0.0,0.0,0.0,1.0,0.0,0.0,0.0,1.0,24.5121955872,5.18292713165,15.3048791885,1.0,0.0,0.0,0.0,1.0,0.0,0.0,0.0,1.0,-0.354341845703,-1.52750065918,8.67658681641,1.0,0.0,0.0,0.0,1.0,0.0,0.0,0.0,1.0
1464076446571714881,561,1464076446565885938,,5.61792230606,-2.05429053307,103.029823303,0.00129599997308,1.0,0.0,0.0,0.0,1.0,0.0,0.0,0.0,1.0,20.2439022064,0.487804889679,5.42682933807,1.0,0.0,0.0,0.0,1.0,0.0,0.0,0.0,1.0,0.359130249023,-1.2976572998,9.11711992188,1.0,0.0,0.0,0.0,1.0,0.0,0.0,0.0,1.0
1464076446606688798,562,1464076446587189944,,5.55729579926,-1.63726460934,104.046287537,0.00122600002214,1.0,0.0,0.0,0.0,1.0,0.0,0.0,0.0,1.0,18.7195110321,1.09756100178,2.43902444839,1.0,0.0,0.0,0.0,1.0,0.0,0.0,0.0,1.0,0.253785375977,-1.2737152832,9.2416184082,1.0,0.0,0.0,0.0,1.0,0.0,0.0,0.0,1.0
1464076446629861236,563,1464076446608351241,,5.57527351379,-1.3036929369,105.018173218,0.00132999999914,1.0,0.0,0.0,0.0,1.0,0.0,0.0,0.0,1.0,17.3780498505,3.04878044128,0.609756112099,1.0,0.0,0.0,0.0,1.0,0.0,0.0,0.0,1.0,-0.411802685547,-1.36469494629,8.48505126812,1.0,0.0,0.0,0.0,1.0,0.0,0.0,0.0,1.0
1464076446632342010,564,1464076446629879517,,5.57874536514,-1.02605009079,105.966758728,0.0016080000205,1.0,0.0,0.0,0.0,1.0,0.0,0.0,0.0,1.0,15.548781395,2.13414645195,-3.10975623131,1.0,0.0,0.0,0.0,1.0,0.0,0.0,0.0,1.0,0.205901342773,-1.45567460937,8.2264769043,1.0,0.0,0.0,0.0,1.0,0.0,0.0,0.0,1.0
1464076446691257061,565,1464076446651278574,,5.49764299393,-0.792867183685,106.767684937,0.00124000001233,1.0,0.0,0.0,0.0,1.0,0.0,0.0,0.0,1.0,16.2195110321,3.04878044128,-8.71951198578,1.0,0.0,0.0,0.0,1.0,0.0,0.0,0.0,1.0,-0.0526724365234,-2.06380183105,8.56645412456,1.0,0.0,0.0,0.0,1.0,0.0,0.0,0.0,1.0
1464076446691880757,566,1464076446672053414,,5.53029632568,-0.573480546474,107.495391846,0.0011419999646,1.0,0.0,0.0,0.0,1.0,0.0,0.0,0.0,1.0,18.4146347046,7.74390268326,-7.62195110321,1.0,0.0,0.0,0.0,1.0,0.0,0.0,0.0,1.0,-0.584185168546,-2.44687409668,9.39484672993,1.0,0.0,0.0,0.0,1.0,0.0,0.0,0.0,1.0
1464076446726024832,567,1464076446693114035,,5.70616960526,-0.290692508221,108.294670105,0.00118699995801,1.0,0.0,0.0,0.0,1.0,0.0,0.0,0.0,1.0,22.9878044128,9.45121955872,-5.79268312454,1.0,0.0,0.0,0.0,1.0,0.0,0.0,0.0,1.0,-0.483628735352,-2.15957004359,9.24640681152,1.0,0.0,0.0,0.0,1.0,0.0,0.0,0.0,1.0
1464076446726453685,568,1464076446713951896,,5.86214208603,0.0429018512368,109.065666199,0.00134499999695,1.0,0.0,0.0,0.0,1.0,0.0,0.0,0.0,1.0,22.1341457367,8.23170757294,-7.56097555161,1.0,0.0,0.0,0.0,1.0,0.0,0.0,0.0,1.0,-0.842758984375,-1.94409174805,9.84495722656,1.0,0.0,0.0,0.0,1.0,0.0,0.0,0.0,1.0
1464076446742889683,569,1464076446736446314,,5.93133020401,0.427485376596,109.82850647,0.0034539999906,1.0,0.0,0.0,0.0,1.0,0.0,0.0,0.0,1.0,20.975610733,-0.609756112099,-13.2317075729,1.0,0.0,0.0,0.0,1.0,0.0,0.0,0.0,1.0,-0.818816967773,-1.70467158203,9.63426806499,1.0,0.0,0.0,0.0,1.0,0.0,0.0,0.0,1.0
1464076446761179008,570,1464076446756964593,,5.79478788376,0.714271485806,110.381790161,0.00123399996664,1.0,0.0,0.0,0.0,1.0,0.0,0.0,0.0,1.0,17.5000019073,-10.2439022064,-20.9146347046,1.0,0.0,0.0,0.0,1.0,0.0,0.0,0.0,1.0,-0.842758984375,-1.40779057617,9.99818613281,1.0,0.0,0.0,0.0,1.0,0.0,0.0,0.0,1.0
1464076446786390399,571,1464076446777884068,,5.47286891937,0.86665147543,110.778900146,0.00123599998187,1.0,0.0,0.0,0.0,1.0,0.0,0.0,0.0,1.0,12.0731716156,-15.8536596298,-27.9268302917,1.0,0.0,0.0,0.0,1.0,0.0,0.0,0.0,1.0,-0.31124621582,-2.00155258789,10.3237975586,1.0,0.0,0.0,0.0,1.0,0.0,0.0,0.0,1.0
1464076446849317366,572,1464076446803148323,,4.98953723907,0.952085256577,111.121711731,0.00721100019291,1.0,0.0,0.0,0.0,1.0,0.0,0.0,0.0,1.0,11.5853662491,-16.8902435303,-31.8292694092,1.0,0.0,0.0,0.0,1.0,0.0,0.0,0.0,1.0,-0.316034619141,-2.1930887207,11.2814782227,1.0,0.0,0.0,0.0,1.0,0.0,0.0,0.0,1.0
1464076446849588615,573,1464076446824307954,,4.58329343796,0.984337747097,111.348182678,0.00140599999577,1.0,0.0,0.0,0.0,1.0,0.0,0.0,0.0,1.0,7.86585378647,-15.4878053665,-33.2926826477,1.0,0.0,0.0,0.0,1.0,0.0,0.0,0.0,1.0,-0.0143652099609,-1.40779057617,11.1234609131,1.0,0.0,0.0,0.0,1.0,0.0,0.0,0.0,1.0
1464076446849891323,574,1464076446845961854,,4.18762111664,0.919536948204,111.547821045,0.00181399995927,1.0,0.0,0.0,0.0,1.0,0.0,0.0,0.0,1.0,-0.853658556938,-11.2804880142,-35.6707344055,1.0,0.0,0.0,0.0,1.0,0.0,0.0,0.0,1.0,0.258573779297,-1.49398183594,10.673351001,1.0,0.0,0.0,0.0,1.0,0.0,0.0,0.0,1.0
1464076446889317259,575,1464076446866493882,,3.9236369133,0.646393299103,111.706794739,0.00187699997332,1.0,0.0,0.0,0.0,1.0,0.0,0.0,0.0,1.0,-3.53658556938,-4.63414621353,-36.7073173523,1.0,0.0,0.0,0.0,1.0,0.0,0.0,0.0,1.0,0.31124621582,-3.0166940918,11.765106958,1.0,0.0,0.0,0.0,1.0,0.0,0.0,0.0,1.0
1464076446911698553,576,1464076446889943663,,3.79615831375,0.291441917419,111.84236145,0.00168300000951,1.0,0.0,0.0,0.0,1.0,0.0,0.0,0.0,1.0,3.84146332741,-1.95121955872,-37.5609779358,1.0,0.0,0.0,0.0,1.0,0.0,0.0,0.0,1.0,-0.0191536132812,-4.2999864739,12.871228125,1.0,0.0,0.0,0.0,1.0,0.0,0.0,0.0,1.0
1464076446930304545,577,1464076446911356418,,3.71502804756,0.191333293915,111.979873657,0.00217900006101,1.0,0.0,0.0,0.0,1.0,0.0,0.0,0.0,1.0,11.0365858078,2.43902444839,-36.3414611816,1.0,0.0,0.0,0.0,1.0,0.0,0.0,0.0,1.0,0.699106884766,-2.35110588414,11.8273562012,1.0,0.0,0.0,0.0,1.0,0.0,0.0,0.0,1.0
1464076446944517371,578,1464076446932091727,,3.73345685005,0.250510632992,112.182937622,0.00347899994813,1.0,0.0,0.0,0.0,1.0,0.0,0.0,0.0,1.0,2.07317066193,12.3780488968,-35.7926826477,1.0,0.0,0.0,0.0,1.0,0.0,0.0,0.0,1.0,0.656011254883,-0.732625708008,10.5967365479,1.0,0.0,0.0,0.0,1.0,0.0,0.0,0.0,1.0
1464076446969522564,579,1464076446953131983,,3.90414357185,0.14944820106,112.328445435,0.00323999999091,1.0,0.0,0.0,0.0,1.0,0.0,0.0,0.0,1.0,-9.08536529541,18.2317085266,-39.3292694092,1.0,0.0,0.0,0.0,1.0,0.0,0.0,0.0,1.0,0.746990917969,-0.177170922852,9.50019277202,1.0,0.0,0.0,0.0,1.0,0.0,0.0,0.0,1.0
1464076446988816888,580,1464076446974816144,,4.1878657341,-0.204278379679,112.39074707,0.00141999998596,1.0,0.0,0.0,0.0,1.0,0.0,0.0,0.0,1.0,-18.3536586761,22.8658542633,-43.2926864624,1.0,0.0,0.0,0.0,1.0,0.0,0.0,0.0,1.0,0.526724328702,-0.885854614258,8.89206496582,1.0,0.0,0.0,0.0,1.0,0.0,0.0,0.0,1.0
1464076447013758487,581,1464076446995614422,,4.59207201004,-0.767114579678,112.399772644,0.00162200001068,1.0,0.0,0.0,0.0,1.0,0.0,0.0,0.0,1.0,-20.7926826477,29.7560997009,-42.6219520569,1.0,0.0,0.0,0.0,1.0,0.0,0.0,0.0,1.0,-0.282515795898,-1.66636435547,9.25119521484,1.0,0.0,0.0,0.0,1.0,0.0,0.0,0.0,1.0
1464076447042804868,582,1464076447017070145,,5.11855745316,-1.40527749062,112.433799744,0.00150500005111,1.0,0.0,0.0,0.0,1.0,0.0,0.0,0.0,1.0,-14.9390249252,32.9878044128,-41.2195129395,1.0,0.0,0.0,0.0,1.0,0.0,0.0,0.0,1.0,0.751779321289,-2.94486804199,9.92636008301,1.0,0.0,0.0,0.0,1.0,0.0,0.0,0.0,1.0
1464076447043180440,583,1464076447037607590,,5.69256162643,-1.88274979591,112.48072052,0.00144899997395,1.0,0.0,0.0,0.0,1.0,0.0,0.0,0.0,1.0,-4.51219558716,38.2926864624,-38.8414649963,1.0,0.0,0.0,0.0,1.0,0.0,0.0,0.0,1.0,0.627280834961,-3.17471140137,10.5440641113,1.0,0.0,0.0,0.0,1.0,0.0,0.0,0.0,1.0
1464076447099742215,584,1464076447060682580,,6.46469736099,-2.13156080246,112.608474731,0.00182500004303,1.0,0.0,0.0,0.0,1.0,0.0,0.0,0.0,1.0,1.70731711388,42.3780517578,-34.2073173523,1.0,0.0,0.0,0.0,1.0,0.0,0.0,0.0,1.0,0.0478840332031,-2.46602770996,10.180145459,1.0,0.0,0.0,0.0,1.0,0.0,0.0,0.0,1.0
1464076447100190756,585,1464076447081187577,,7.2405257225,-2.15630102158,112.83959198,0.00290399999358,1.0,0.0,0.0,0.0,1.0,0.0,0.0,0.0,1.0,3.35365867615,41.4634170532,-30.6707305908,1.0,0.0,0.0,0.0,1.0,0.0,0.0,0.0,1.0,0.277727392578,-1.2497732666,9.62947966167,1.0,0.0,0.0,0.0,1.0,0.0,0.0,0.0,1.0
1464076447106263864,586,1464076447102731634,,7.97391462326,-2.10081148148,113.139907837,0.00311199994758,1.0,0.0,0.0,0.0,1.0,0.0,0.0,0.0,1.0,-0.792682945728,42.0731697083,-27.6219520569,1.0,0.0,0.0,0.0,1.0,0.0,0.0,0.0,1.0,-0.0478840332031,-0.244208569336,8.38449362935,1.0,0.0,0.0,0.0,1.0,0.0,0.0,0.0,1.0
1464076447126309488,587,1464076447123758609,,8.69268798828,-2.0961933136,113.488334656,0.00127899996005,1.0,0.0,0.0,0.0,1.0,0.0,0.0,0.0,1.0,-6.34146356583,35.7926826477,-27.0121955872,1.0,0.0,0.0,0.0,1.0,0.0,0.0,0.0,1.0,-0.497993945312,-0.119710083008,7.91523068848,1.0,0.0,0.0,0.0,1.0,0.0,0.0,0.0,1.0
1464076447157563779,588,1464076447146605788,,9.22308921814,-2.19084811211,113.853881836,0.00199900008738,1.0,0.0,0.0,0.0,1.0,0.0,0.0,0.0,1.0,-10.0609760284,26.2804889679,-29.4512195587,1.0,0.0,0.0,0.0,1.0,0.0,0.0,0.0,1.0,0.545877978516,-0.670376464844,7.76200178223,1.0,0.0,0.0,0.0,1.0,0.0,0.0,0.0,1.0
1464076447179053878,589,1464076447166854535,,9.56973552704,-2.35946178436,114.149543762,0.00138200004585,1.0,0.0,0.0,0.0,1.0,0.0,0.0,0.0,1.0,-9.69512176514,24.7560977936,-28.1097564697,1.0,0.0,0.0,0.0,1.0,0.0,0.0,0.0,1.0,-0.0718260498047,-0.411802685547,8.03015236816,1.0,0.0,0.0,0.0,1.0,0.0,0.0,0.0,1.0
1464076447196546904,590,1464076447187185627,,9.93428325653,-2.49139928818,114.50541687,0.00158399995416,1.0,0.0,0.0,0.0,1.0,0.0,0.0,0.0,1.0,-7.98780536652,20.1829280853,-25.7926845551,1.0,0.0,0.0,0.0,1.0,0.0,0.0,0.0,1.0,-0.378283862305,-0.742202514648,8.23605371094,1.0,0.0,0.0,0.0,1.0,0.0,0.0,0.0,1.0
1464076447216040653,591,1464076447208237810,,10.1972827911,-2.56285667419,114.935508728,0.00163700000849,1.0,0.0,0.0,0.0,1.0,0.0,0.0,0.0,1.0,-8.65853691101,14.7560987473,-21.2195129395,1.0,0.0,0.0,0.0,1.0,0.0,0.0,0.0,1.0,-0.732625708008,0.0622492431641,8.5999729478,1.0,0.0,0.0,0.0,1.0,0.0,0.0,0.0,1.0
1464076447234245605,592,1464076447230434990,,10.3596143723,-2.62984514236,115.490707397,0.00179500004742,1.0,0.0,0.0,0.0,1.0,0.0,0.0,0.0,1.0,-12.8658542633,4.93902444839,-18.4146347046,1.0,0.0,0.0,0.0,1.0,0.0,0.0,0.0,1.0,-0.440533105469,-0.220266552734,9.193734375,1.0,0.0,0.0,0.0,1.0,0.0,0.0,0.0,1.0
1464076447259108038,593,1464076447250940768,,10.2365484238,-2.76275086403,116.030052185,0.00204399996437,1.0,0.0,0.0,0.0,1.0,0.0,0.0,0.0,1.0,-12.9268293381,-5.79268312454,-21.2804889679,1.0,0.0,0.0,0.0,1.0,0.0,0.0,0.0,1.0,-0.143652099609,-0.890643017578,9.81143840332,1.0,0.0,0.0,0.0,1.0,0.0,0.0,0.0,1.0
1464076447286516194,594,1464076447271216860,,9.86735534668,-2.89540672302,116.510902405,0.00277699995786,1.0,0.0,0.0,0.0,1.0,0.0,0.0,0.0,1.0,-6.34146356583,-12.9268293381,-22.9268302917,1.0,0.0,0.0,0.0,1.0,0.0,0.0,0.0,1.0,0.0526724365234,-1.05823706072,10.1609918457,1.0,0.0,0.0,0.0,1.0,0.0,0.0,0.0,1.0
1464076447296578302,595,1464076447293269248,,9.51724910736,-2.90553212166,117.085708618,0.0012969999807,1.0,0.0,0.0,0.0,1.0,0.0,0.0,0.0,1.0,-2.43902444839,-9.45121955872,-14.2073173523,1.0,0.0,0.0,0.0,1.0,0.0,0.0,0.0,1.0,-0.244208569336,-0.167594116211,9.65821008159,1.0,0.0,0.0,0.0,1.0,0.0,0.0,0.0,1.0
1464076447318427671,596,1464076447315137002,,9.23288726807,-2.75598859787,117.868995667,0.00200899993069,1.0,0.0,0.0,0.0,1.0,0.0,0.0,0.0,1.0,-1.70731711388,-6.89024400711,-9.87804889679,1.0,0.0,0.0,0.0,1.0,0.0,0.0,0.0,1.0,0.00478840332031,-0.229843359375,10.1992990723,1.0,0.0,0.0,0.0,1.0,0.0,0.0,0.0,1.0
1464076447340562299,597,1464076447337096631,,8.92333030701,-2.61199116707,118.652755737,0.00183700001799,1.0,0.0,0.0,0.0,1.0,0.0,0.0,0.0,1.0,-3.10975623131,-6.15853643417,-11.2804880142,1.0,0.0,0.0,0.0,1.0,0.0,0.0,0.0,1.0,0.134075302102,-0.119710083008,10.5153336914,1.0,0.0,0.0,0.0,1.0,0.0,0.0,0.0,1.0
1464076447363527185,598,1464076447358516469,,8.65505409241,-2.51322412491,119.414627075,0.00126000004821,1.0,0.0,0.0,0.0,1.0,0.0,0.0,0.0,1.0,-3.90243911743,-8.29268264771,-10.2439022064,1.0,0.0,0.0,0.0,1.0,0.0,0.0,0.0,1.0,-0.15322890625,-0.282515795898,11.511321582,1.0,0.0,0.0,0.0,1.0,0.0,0.0,0.0,1.0
1464076447383865203,599,1464076447379385684,,8.34007740021,-2.44250845909,120.156082153,0.00181899999734,1.0,0.0,0.0,0.0,1.0,0.0,0.0,0.0,1.0,-3.17073178291,-9.39024448395,-10.1829271317,1.0,0.0,0.0,0.0,1.0,0.0,0.0,0.0,1.0,0.215478149414,-0.593762048251,11.4586491455,1.0,0.0,0.0,0.0,1.0,0.0,0.0,0.0,1.0
1464076447420750052,600,1464076447400802033,,8.02309799194,-2.38611412048,120.913230896,0.001912000007,1.0,0.0,0.0,0.0,1.0,0.0,0.0,0.0,1.0,-1.03658533096,-8.47560977936,-8.78048801422,1.0,0.0,0.0,0.0,1.0,0.0,0.0,0.0,1.0,-0.0957680664062,-1.07260241682,11.9566430908,1.0,0.0,0.0,0.0,1.0,0.0,0.0,0.0,1.0
1464076447490764188,601,1464076447421308436,,7.78980731964,-2.2726817131,121.719413757,0.00114399997983,1.0,0.0,0.0,0.0,1.0,0.0,0.0,0.0,1.0,3.59756112099,-7.13414621353,-5.06097555161,1.0,0.0,0.0,0.0,1.0,0.0,0.0,0.0,1.0,-0.493205541992,-1.47961662598,12.1338140137,1.0,0.0,0.0,0.0,1.0,0.0,0.0,0.0,1.0
1464076447491249707,602,1464076447444037542,,7.56286478043,-2.05758881569,122.636161804,0.00218400009908,1.0,0.0,0.0,0.0,1.0,0.0,0.0,0.0,1.0,7.56097555161,-10.7317075729,-4.39024400711,1.0,0.0,0.0,0.0,1.0,0.0,0.0,0.0,1.0,-0.622492431641,-1.04866025408,12.3109849365,1.0,0.0,0.0,0.0,1.0,0.0,0.0,0.0,1.0
1464076447491528561,603,1464076447465525974,,7.21023416519,-1.74674117565,123.496269226,0.00161399994977,1.0,0.0,0.0,0.0,1.0,0.0,0.0,0.0,1.0,10.0609760284,-11.0365858078,-6.46341466904,1.0,0.0,0.0,0.0,1.0,0.0,0.0,0.0,1.0,0.497993945312,-0.799663354492,12.4450602295,1.0,0.0,0.0,0.0,1.0,0.0,0.0,0.0,1.0
1464076447492036320,604,1464076447487331853,,6.88397455215,-1.44218814373,124.320846558,0.00152900000103,1.0,0.0,0.0,0.0,1.0,0.0,0.0,0.0,1.0,8.90243911743,-9.75609779358,-8.65853691101,1.0,0.0,0.0,0.0,1.0,0.0,0.0,0.0,1.0,-0.526724328702,-0.541089611728,11.9566430908,1.0,0.0,0.0,0.0,1.0,0.0,0.0,0.0,1.0
1464076447570302828,605,1464076447509152940,,6.59027719498,-1.14970386028,125.125579834,0.00153999996837,1.0,0.0,0.0,0.0,1.0,0.0,0.0,0.0,1.0,7.92682981491,-10.4268293381,-7.56097555161,1.0,0.0,0.0,0.0,1.0,0.0,0.0,0.0,1.0,-0.287304199219,-0.531512805087,11.6549736816,1.0,0.0,0.0,0.0,1.0,0.0,0.0,0.0,1.0
1464076447570392203,606,1464076447530822778,,6.24180650711,-0.893143594265,125.909500122,0.00185700005386,1.0,0.0,0.0,0.0,1.0,0.0,0.0,0.0,1.0,6.0365858078,-11.8292684555,-12.7439022064,1.0,0.0,0.0,0.0,1.0,0.0,0.0,0.0,1.0,0.339976635742,-0.603338854892,11.2479593994,1.0,0.0,0.0,0.0,1.0,0.0,0.0,0.0,1.0
1464076447570433297,607,1464076447552022617,,5.8646197319,-0.727178871632,126.530952454,0.00186499999836,1.0,0.0,0.0,0.0,1.0,0.0,0.0,0.0,1.0,7.80487823486,-11.2195119858,-17.5000019073,1.0,0.0,0.0,0.0,1.0,0.0,0.0,0.0,1.0,0.373495458984,-1.01992990723,11.0276928467,1.0,0.0,0.0,0.0,1.0,0.0,0.0,0.0,1.0
1464076447652407869,608,1464076447572824801,,5.55275344849,-0.565445780754,127.055770874,0.00127699994482,1.0,0.0,0.0,0.0,1.0,0.0,0.0,0.0,1.0,11.2195119858,-8.10975551605,-20.4268302917,1.0,0.0,0.0,0.0,1.0,0.0,0.0,0.0,1.0,0.225054956055,-1.31681091309,11.3006318359,1.0,0.0,0.0,0.0,1.0,0.0,0.0,0.0,1.0
1464076447652463442,609,1464076447593474850,,5.28581905365,-0.34412330389,127.512298584,0.0011930000037,1.0,0.0,0.0,0.0,1.0,0.0,0.0,0.0,1.0,14.8780498505,-4.2682929039,-24.1463432312,1.0,0.0,0.0,0.0,1.0,0.0,0.0,0.0,1.0,0.890643017578,-1.40779057617,11.7746837646,1.0,0.0,0.0,0.0,1.0,0.0,0.0,0.0,1.0
1464076447652546827,610,1464076447614532137,,5.14548158646,-0.0611732937396,127.915245056,0.00129000004381,1.0,0.0,0.0,0.0,1.0,0.0,0.0,0.0,1.0,17.1951217651,4.87804889679,-25.7926845551,1.0,0.0,0.0,0.0,1.0,0.0,0.0,0.0,1.0,0.359130249023,-1.28329208984,11.6693388916,1.0,0.0,0.0,0.0,1.0,0.0,0.0,0.0,1.0
1464076447659644776,611,1464076447636207131,,5.20473194122,0.24309502542,128.350341797,0.00148900004569,1.0,0.0,0.0,0.0,1.0,0.0,0.0,0.0,1.0,16.341463089,8.17073154449,-23.3536586761,1.0,0.0,0.0,0.0,1.0,0.0,0.0,0.0,1.0,-0.0287304199219,-1.23061965332,11.1234609131,1.0,0.0,0.0,0.0,1.0,0.0,0.0,0.0,1.0
1464076447666763039,612,1464076447657130564,,5.28869247437,0.562565565109,128.810058594,0.00112000002991,1.0,0.0,0.0,0.0,1.0,0.0,0.0,0.0,1.0,14.7560987473,10.1829271317,-22.8048782349,1.0,0.0,0.0,0.0,1.0,0.0,0.0,0.0,1.0,-0.076614453125,-0.541089611728,9.82101520996,1.0,0.0,0.0,0.0,1.0,0.0,0.0,0.0,1.0
1464076447690199694,613,1464076447678600871,,5.39009237289,0.85742610693,129.264816284,0.00109599996358,1.0,0.0,0.0,0.0,1.0,0.0,0.0,0.0,1.0,11.341463089,4.08536577225,-25.6707324982,1.0,0.0,0.0,0.0,1.0,0.0,0.0,0.0,1.0,-0.253785375977,-0.325611425781,8.88248815918,1.0,0.0,0.0,0.0,1.0,0.0,0.0,0.0,1.0
1464076447706097464,614,1464076447700051751,,5.32658720016,1.07199633121,129.620330811,0.0013190000318,1.0,0.0,0.0,0.0,1.0,0.0,0.0,0.0,1.0,6.95121955872,-3.53658556938,-30.7317066193,1.0,0.0,0.0,0.0,1.0,0.0,0.0,0.0,1.0,-0.0239420166016,-0.124498486328,8.77714328613,1.0,0.0,0.0,0.0,1.0,0.0,0.0,0.0,1.0
1464076447728382144,615,1464076447721300705,,5.14027070999,1.16125810146,129.884109497,0.00107899995055,1.0,0.0,0.0,0.0,1.0,0.0,0.0,0.0,1.0,2.13414645195,-4.14634132385,-33.1097564697,1.0,0.0,0.0,0.0,1.0,0.0,0.0,0.0,1.0,0.148440512063,-0.316034619141,9.11711992188,1.0,0.0,0.0,0.0,1.0,0.0,0.0,0.0,1.0
