%time,field.header.seq,field.header.stamp,field.header.frame_id,field.orientation.x,field.orientation.y,field.orientation.z,field.orientation.w,field.orientation_covariance0,field.orientation_covariance1,field.orientation_covariance2,field.orientation_covariance3,field.orientation_covariance4,field.orientation_covariance5,field.orientation_covariance6,field.orientation_covariance7,field.orientation_covariance8,field.angular_velocity.x,field.angular_velocity.y,field.angular_velocity.z,field.angular_velocity_covariance0,field.angular_velocity_covariance1,field.angular_velocity_covariance2,field.angular_velocity_covariance3,field.angular_velocity_covariance4,field.angular_velocity_covariance5,field.angular_velocity_covariance6,field.angular_velocity_covariance7,field.angular_velocity_covariance8,field.linear_acceleration.x,field.linear_acceleration.y,field.linear_acceleration.z,field.linear_acceleration_covariance0,field.linear_acceleration_covariance1,field.linear_acceleration_covariance2,field.linear_acceleration_covariance3,field.linear_acceleration_covariance4,field.linear_acceleration_covariance5,field.linear_acceleration_covariance6,field.linear_acceleration_covariance7,field.linear_acceleration_covariance8
1463845270305991030,229,1463845270301942815,,6.17742824554,-3.3553841114,-173.757080078,0.0204109996557,1.0,0.0,0.0,0.0,1.0,0.0,0.0,0.0,1.0,6.7682929039,9.45121955872,-0.304878056049,1.0,0.0,0.0,0.0,1.0,0.0,0.0,0.0,1.0,-0.00957680664062,0.378283862305,8.07324799805,1.0,0.0,0.0,0.0,1.0,0.0,0.0,0.0,1.0
1463845270339127664,230,1463845270324272630,,6.18769454956,-3.18250322342,-173.741516113,0.0204119998962,1.0,0.0,0.0,0.0,1.0,0.0,0.0,0.0,1.0,4.08536577225,5.42682933807,-0.0609756112099,1.0,0.0,0.0,0.0,1.0,0.0,0.0,0.0,1.0,0.148440512063,0.316034619141,8.17380446777,1.0,0.0,0.0,0.0,1.0,0.0,0.0,0.0,1.0
1463845270345739242,231,1463845270342534908,,6.12209653854,-3.03584933281,-173.715560913,0.0203830003738,1.0,0.0,0.0,0.0,1.0,0.0,0.0,0.0,1.0,5.0,2.13414645195,0.487804889679,1.0,0.0,0.0,0.0,1.0,0.0,0.0,0.0,1.0,0.220266552734,0.0143652099609,8.528146898,1.0,0.0,0.0,0.0,1.0,0.0,0.0,0.0,1.0
1463845270364771133,232,1463845270362831554,,5.98522138596,-2.84089589119,-173.664550781,0.0204009991139,1.0,0.0,0.0,0.0,1.0,0.0,0.0,0.0,1.0,5.79268312454,-1.70731711388,1.34146344662,1.0,0.0,0.0,0.0,1.0,0.0,0.0,0.0,1.0,0.191536132812,0.263362164351,8.8154505127,1.0,0.0,0.0,0.0,1.0,0.0,0.0,0.0,1.0
1463845270387499687,233,1463845270384608625,,5.83382987976,-2.645154953,-173.591766357,0.0204370003194,1.0,0.0,0.0,0.0,1.0,0.0,0.0,0.0,1.0,4.63414621353,-3.59756112099,2.19512200356,1.0,0.0,0.0,0.0,1.0,0.0,0.0,0.0,1.0,0.0383072265625,0.507570751953,9.64384487163,1.0,0.0,0.0,0.0,1.0,0.0,0.0,0.0,1.0
1463845270408524905,234,1463845270406603086,,5.6017780304,-2.51456093788,-173.523406982,0.0206499993801,1.0,0.0,0.0,0.0,1.0,0.0,0.0,0.0,1.0,3.17073178291,-7.86585378647,1.95121955872,1.0,0.0,0.0,0.0,1.0,0.0,0.0,0.0,1.0,-0.0191536132812,0.258573779297,10.5057568848,1.0,0.0,0.0,0.0,1.0,0.0,0.0,0.0,1.0
1463845270428818946,235,1463845270425310507,,5.32447147369,-2.45272088051,-173.464294434,0.0203850008547,1.0,0.0,0.0,0.0,1.0,0.0,0.0,0.0,1.0,2.98780488968,-11.5853662491,1.70731711388,1.0,0.0,0.0,0.0,1.0,0.0,0.0,0.0,1.0,-0.244208569336,-0.301669427446,11.0516348633,1.0,0.0,0.0,0.0,1.0,0.0,0.0,0.0,1.0
1463845270449337148,236,1463845270445049357,,5.00558519363,-2.37334179878,-173.431427002,0.0201949998736,1.0,0.0,0.0,0.0,1.0,0.0,0.0,0.0,1.0,4.39024400711,-16.158536911,0.304878056049,1.0,0.0,0.0,0.0,1.0,0.0,0.0,0.0,1.0,-0.713472094727,-0.387860668945,11.8082025879,1.0,0.0,0.0,0.0,1.0,0.0,0.0,0.0,1.0
1463845270471300412,237,1463845270465589954,,4.60232925415,-2.27232956886,-173.441009521,0.0203949995339,1.0,0.0,0.0,0.0,1.0,0.0,0.0,0.0,1.0,5.54878091812,-19.5731716156,-1.8902438879,1.0,0.0,0.0,0.0,1.0,0.0,0.0,0.0,1.0,-0.565031591797,-0.373495458984,12.2152168701,1.0,0.0,0.0,0.0,1.0,0.0,0.0,0.0,1.0
1463845270494885711,238,1463845270489430559,,4.2174539566,-2.12282943726,-173.490356445,0.0205210000277,1.0,0.0,0.0,0.0,1.0,0.0,0.0,0.0,1.0,4.32926845551,-16.9512195587,-3.96341490746,1.0,0.0,0.0,0.0,1.0,0.0,0.0,0.0,1.0,-0.143652099609,0.440533105469,11.9853735107,1.0,0.0,0.0,0.0,1.0,0.0,0.0,0.0,1.0
1463845270508422920,239,1463845270506312565,,3.96471261978,-2.11691832542,-173.630050659,0.0203680004925,1.0,0.0,0.0,0.0,1.0,0.0,0.0,0.0,1.0,-1.2195122242,-11.4634151459,-8.04878044128,1.0,0.0,0.0,0.0,1.0,0.0,0.0,0.0,1.0,-0.287304199219,0.234631762695,12.3492921631,1.0,0.0,0.0,0.0,1.0,0.0,0.0,0.0,1.0
1463845270531512192,240,1463845270526245471,,3.80374336243,-2.22921538353,-173.877197266,0.020312000066,1.0,0.0,0.0,0.0,1.0,0.0,0.0,0.0,1.0,-3.71951246262,-6.70731735229,-12.9268293381,1.0,0.0,0.0,0.0,1.0,0.0,0.0,0.0,1.0,-0.229843359375,-0.440533105469,13.0148802246,1.0,0.0,0.0,0.0,1.0,0.0,0.0,0.0,1.0
1463845270553603421,241,1463845270546700654,,3.75519156456,-2.32518434525,-174.235610962,0.020422000438,1.0,0.0,0.0,0.0,1.0,0.0,0.0,0.0,1.0,-2.92682933807,-1.8292683363,-18.1097564697,1.0,0.0,0.0,0.0,1.0,0.0,0.0,0.0,1.0,-0.383072265625,-0.363918652344,12.4259066162,1.0,0.0,0.0,0.0,1.0,0.0,0.0,0.0,1.0
1463845270570490166,242,1463845270567266094,,3.76103115082,-2.38524007797,-174.704147339,0.0203859992325,1.0,0.0,0.0,0.0,1.0,0.0,0.0,0.0,1.0,-3.23170733452,2.68292689323,-23.475610733,1.0,0.0,0.0,0.0,1.0,0.0,0.0,0.0,1.0,-0.0191536132812,0.129286889648,11.166556543,1.0,0.0,0.0,0.0,1.0,0.0,0.0,0.0,1.0
1463845270616041854,243,1463845270587389151,,3.87877631187,-2.4522163868,-175.29359436,0.0204189997166,1.0,0.0,0.0,0.0,1.0,0.0,0.0,0.0,1.0,-3.7804877758,9.02439117432,-29.0853672028,1.0,0.0,0.0,0.0,1.0,0.0,0.0,0.0,1.0,0.0861912597656,0.215478149414,9.91678327637,1.0,0.0,0.0,0.0,1.0,0.0,0.0,0.0,1.0
1463845270616097738,244,1463845270607999225,,4.05563688278,-2.60140991211,-176.007537842,0.0203990004957,1.0,0.0,0.0,0.0,1.0,0.0,0.0,0.0,1.0,-3.59756112099,10.9146347046,-34.817073822,1.0,0.0,0.0,0.0,1.0,0.0,0.0,0.0,1.0,-0.162805712891,-0.435744702148,9.61032604839,1.0,0.0,0.0,0.0,1.0,0.0,0.0,0.0,1.0
1463845270654328547,245,1463845270628277382,,4.25254154205,-2.75222253799,-176.803482056,0.0204140003771,1.0,0.0,0.0,0.0,1.0,0.0,0.0,0.0,1.0,-2.92682933807,10.7926826477,-38.7195129395,1.0,0.0,0.0,0.0,1.0,0.0,0.0,0.0,1.0,-0.416591088867,-0.507570751953,9.39005832661,1.0,0.0,0.0,0.0,1.0,0.0,0.0,0.0,1.0
1463845270654384899,246,1463845270648736679,,4.37278032303,-2.89814829826,-177.609893799,0.0204240009189,1.0,0.0,0.0,0.0,1.0,0.0,0.0,0.0,1.0,-3.71951246262,6.89024400711,-39.4512214661,1.0,0.0,0.0,0.0,1.0,0.0,0.0,0.0,1.0,-0.493205541992,-0.335188232422,9.37090471333,1.0,0.0,0.0,0.0,1.0,0.0,0.0,0.0,1.0
1463845270680809126,247,1463845270669151655,,4.35549497604,-3.07636642456,-178.363525391,0.020422000438,1.0,0.0,0.0,0.0,1.0,0.0,0.0,0.0,1.0,-5.60975599289,3.29268312454,-37.0731697083,1.0,0.0,0.0,0.0,1.0,0.0,0.0,0.0,1.0,0.00957680664062,-0.325611425781,9.10275471191,1.0,0.0,0.0,0.0,1.0,0.0,0.0,0.0,1.0
1463845270692723934,248,1463845270689591942,,4.33736610413,-3.32976770401,-179.013687134,0.0203779991716,1.0,0.0,0.0,0.0,1.0,0.0,0.0,0.0,1.0,-6.34146356583,4.69512224197,-31.7682914734,1.0,0.0,0.0,0.0,1.0,0.0,0.0,0.0,1.0,0.258573779297,-0.852335791016,8.62870336773,1.0,0.0,0.0,0.0,1.0,0.0,0.0,0.0,1.0
1463845270712320392,249,1463845270709974210,,4.37764310837,-3.55146789551,-179.532974243,0.0204269997776,1.0,0.0,0.0,0.0,1.0,0.0,0.0,0.0,1.0,-5.30487823486,7.86585378647,-25.1219520569,1.0,0.0,0.0,0.0,1.0,0.0,0.0,0.0,1.0,0.339976635742,-0.857124194336,8.38449362935,1.0,0.0,0.0,0.0,1.0,0.0,0.0,0.0,1.0
1463845270737380544,250,1463845270730396998,,4.47391223907,-3.63119244576,-179.93989563,0.0204050000757,1.0,0.0,0.0,0.0,1.0,0.0,0.0,0.0,1.0,0.12195122242,9.45121955872,-19.6341457367,1.0,0.0,0.0,0.0,1.0,0.0,0.0,0.0,1.0,0.196324536133,-0.703895288086,8.19295808105,1.0,0.0,0.0,0.0,1.0,0.0,0.0,0.0,1.0
1463845270762129091,251,1463845270750775464,,4.59093332291,-3.58748650551,179.792999268,0.0204019993544,1.0,0.0,0.0,0.0,1.0,0.0,0.0,0.0,1.0,1.03658533096,8.71951198578,-13.2317075729,1.0,0.0,0.0,0.0,1.0,0.0,0.0,0.0,1.0,-0.0143652099609,-0.0430956298828,8.528146898,1.0,0.0,0.0,0.0,1.0,0.0,0.0,0.0,1.0
1463845270783089311,252,1463845270771374081,,4.67786836624,-3.49282956123,179.635192871,0.0204160008579,1.0,0.0,0.0,0.0,1.0,0.0,0.0,0.0,1.0,0.731707334518,6.89024400711,-8.23170757294,1.0,0.0,0.0,0.0,1.0,0.0,0.0,0.0,1.0,-0.0335188255255,0.330399829102,8.65743378765,1.0,0.0,0.0,0.0,1.0,0.0,0.0,0.0,1.0
1463845270794846935,253,1463845270791812389,,4.76396846771,-3.43790006638,179.557403564,0.0204119998962,1.0,0.0,0.0,0.0,1.0,0.0,0.0,0.0,1.0,0.12195122242,6.21951246262,-4.2682929039,1.0,0.0,0.0,0.0,1.0,0.0,0.0,0.0,1.0,-0.105344873047,0.0909796630859,8.58560773784,1.0,0.0,0.0,0.0,1.0,0.0,0.0,0.0,1.0
1463845270821962913,254,1463845270814754582,,4.87697315216,-3.37636613846,179.526672363,0.0203990004957,1.0,0.0,0.0,0.0,1.0,0.0,0.0,0.0,1.0,1.2195122242,6.64634132385,-1.8902438879,1.0,0.0,0.0,0.0,1.0,0.0,0.0,0.0,1.0,-0.239420166016,-0.0478840332031,8.8154505127,1.0,0.0,0.0,0.0,1.0,0.0,0.0,0.0,1.0
1463845270844546783,255,1463845270832425315,,4.97720003128,-3.31471347809,179.527435303,0.0204160008579,1.0,0.0,0.0,0.0,1.0,0.0,0.0,0.0,1.0,1.76829278469,6.82926845551,-0.304878056049,1.0,0.0,0.0,0.0,1.0,0.0,0.0,0.0,1.0,-0.119710083008,-0.148440512063,9.09796630859,1.0,0.0,0.0,0.0,1.0,0.0,0.0,0.0,1.0
1463845270879678204,256,1463845270852742481,,5.0884180069,-3.26488542557,179.556900024,0.0203930009156,1.0,0.0,0.0,0.0,1.0,0.0,0.0,0.0,1.0,0.609756112099,6.82926845551,1.03658533096,1.0,0.0,0.0,0.0,1.0,0.0,0.0,0.0,1.0,-0.220266552734,-0.067037651051,9.56244201519,1.0,0.0,0.0,0.0,1.0,0.0,0.0,0.0,1.0
1463845270879981788,257,1463845270873176258,,5.14395809174,-3.24403619766,179.603485107,0.020408000797,1.0,0.0,0.0,0.0,1.0,0.0,0.0,0.0,1.0,-1.95121955872,1.64634156227,1.46341466904,1.0,0.0,0.0,0.0,1.0,0.0,0.0,0.0,1.0,-0.684741674805,0.129286889648,10.1131078125,1.0,0.0,0.0,0.0,1.0,0.0,0.0,0.0,1.0
1463845270910082991,258,1463845270893676804,,5.03704118729,-3.26912426949,179.666427612,0.0204169992357,1.0,0.0,0.0,0.0,1.0,0.0,0.0,0.0,1.0,-4.39024400711,-6.64634132385,1.76829278469,1.0,0.0,0.0,0.0,1.0,0.0,0.0,0.0,1.0,-0.790086547852,0.162805712891,10.6829278076,1.0,0.0,0.0,0.0,1.0,0.0,0.0,0.0,1.0
1463845270920514665,259,1463845270914048865,,4.80375766754,-3.3439180851,179.777435303,0.0204130001366,1.0,0.0,0.0,0.0,1.0,0.0,0.0,0.0,1.0,-5.24390268326,-12.9268293381,3.90243911743,1.0,0.0,0.0,0.0,1.0,0.0,0.0,0.0,1.0,-0.794874951172,-0.186747729492,11.1474029297,1.0,0.0,0.0,0.0,1.0,0.0,0.0,0.0,1.0
1463845270936849031,260,1463845270934328792,,4.53546380997,-3.41098284721,179.978652954,0.0203980002552,1.0,0.0,0.0,0.0,1.0,0.0,0.0,0.0,1.0,-4.57317066193,-14.8780498505,8.23170757294,1.0,0.0,0.0,0.0,1.0,0.0,0.0,0.0,1.0,-0.794874951172,-0.349553442383,11.9518546875,1.0,0.0,0.0,0.0,1.0,0.0,0.0,0.0,1.0
1463845270957775190,261,1463845270954835848,,4.2913517952,-3.43013763428,-179.710632324,0.0204130001366,1.0,0.0,0.0,0.0,1.0,0.0,0.0,0.0,1.0,-3.59756112099,-14.8170728683,13.4756097794,1.0,0.0,0.0,0.0,1.0,0.0,0.0,0.0,1.0,-0.933738647461,-0.15322890625,12.2678893066,1.0,0.0,0.0,0.0,1.0,0.0,0.0,0.0,1.0
1463845271050260447,262,1463845270975155046,,4.08799743652,-3.40764975548,-179.28553772,0.0204000007361,1.0,0.0,0.0,0.0,1.0,0.0,0.0,0.0,1.0,-4.45121955872,-11.341463089,19.0853652954,1.0,0.0,0.0,0.0,1.0,0.0,0.0,0.0,1.0,-0.497993945312,0.407014282227,12.6126543457,1.0,0.0,0.0,0.0,1.0,0.0,0.0,0.0,1.0
1463845271051227398,263,1463845270995659237,,4.04738426208,-3.40235066414,-178.767959595,0.0204070005566,1.0,0.0,0.0,0.0,1.0,0.0,0.0,0.0,1.0,-9.63414573669,-3.47560977936,23.7804889679,1.0,0.0,0.0,0.0,1.0,0.0,0.0,0.0,1.0,-0.411802685547,1.32159931641,12.5216746826,1.0,0.0,0.0,0.0,1.0,0.0,0.0,0.0,1.0
1463845271051580773,264,1463845271016091867,,4.14693975449,-3.58968663216,-178.228179932,0.0204240009189,1.0,0.0,0.0,0.0,1.0,0.0,0.0,0.0,1.0,-14.4512205124,2.56097555161,25.5487804413,1.0,0.0,0.0,0.0,1.0,0.0,0.0,0.0,1.0,-0.579396801758,0.272938989258,12.856862915,1.0,0.0,0.0,0.0,1.0,0.0,0.0,0.0,1.0
1463845271051879149,265,1463845271036456113,,4.30644845963,-3.81621575356,-177.74055481,0.0203990004957,1.0,0.0,0.0,0.0,1.0,0.0,0.0,0.0,1.0,-10.8536586761,2.92682933807,23.475610733,1.0,0.0,0.0,0.0,1.0,0.0,0.0,0.0,1.0,-1.19710090314,-0.995987890625,12.7563064453,1.0,0.0,0.0,0.0,1.0,0.0,0.0,0.0,1.0
1463845271278002301,266,1463845271056819161,,4.43961811066,-3.86021971703,-177.268875122,0.0204169992357,1.0,0.0,0.0,0.0,1.0,0.0,0.0,0.0,1.0,-3.96341490746,2.43902444839,22.5,1.0,0.0,0.0,0.0,1.0,0.0,0.0,0.0,1.0,-0.948103857422,-0.521935925381,11.5352635986,1.0,0.0,0.0,0.0,1.0,0.0,0.0,0.0,1.0
1463845271278276199,267,1463845271077223561,,4.58880519867,-3.75920081139,-176.824127197,0.0203840006143,1.0,0.0,0.0,0.0,1.0,0.0,0.0,0.0,1.0,-1.46341466904,3.41463422775,20.9146347046,1.0,0.0,0.0,0.0,1.0,0.0,0.0,0.0,1.0,-0.852335791016,0.378283862305,10.2615483154,1.0,0.0,0.0,0.0,1.0,0.0,0.0,0.0,1.0
1463845271278571555,268,1463845271097715460,,4.76626729965,-3.6447057724,-176.378219604,0.0204399991781,1.0,0.0,0.0,0.0,1.0,0.0,0.0,0.0,1.0,-0.792682945728,5.73170757294,21.0365848541,1.0,0.0,0.0,0.0,1.0,0.0,0.0,0.0,1.0,-0.679953271484,0.363918652344,9.79228479004,1.0,0.0,0.0,0.0,1.0,0.0,0.0,0.0,1.0
1463845271279907245,269,1463845271118038352,,4.96096515656,-3.55974984169,-175.932403564,0.0203859992325,1.0,0.0,0.0,0.0,1.0,0.0,0.0,0.0,1.0,-0.304878056049,7.68292665482,21.341463089,1.0,0.0,0.0,0.0,1.0,0.0,0.0,0.0,1.0,-0.512359155273,0.0335188255255,9.4954043687,1.0,0.0,0.0,0.0,1.0,0.0,0.0,0.0,1.0
1463845271280251922,270,1463845271138437076,,5.15119457245,-3.43201971054,-175.449768066,0.0204009991139,1.0,0.0,0.0,0.0,1.0,0.0,0.0,0.0,1.0,-0.18292683363,7.74390268326,22.9268302917,1.0,0.0,0.0,0.0,1.0,0.0,0.0,0.0,1.0,-0.488417138672,0.344765039063,9.55765361187,1.0,0.0,0.0,0.0,1.0,0.0,0.0,0.0,1.0
1463845271280536549,271,1463845271158945120,,5.30254983902,-3.31204867363,-174.915435791,0.0204329993576,1.0,0.0,0.0,0.0,1.0,0.0,0.0,0.0,1.0,-3.17073178291,6.40243911743,25.0609760284,1.0,0.0,0.0,0.0,1.0,0.0,0.0,0.0,1.0,-0.392649072266,0.732625708008,9.22725319824,1.0,0.0,0.0,0.0,1.0,0.0,0.0,0.0,1.0
1463845271280927892,272,1463845271179263846,,5.42308568954,-3.25734734535,-174.340942383,0.0203980002552,1.0,0.0,0.0,0.0,1.0,0.0,0.0,0.0,1.0,-4.69512224197,5.36585378647,27.1341457367,1.0,0.0,0.0,0.0,1.0,0.0,0.0,0.0,1.0,-0.320823022461,0.421379492187,8.94473740234,1.0,0.0,0.0,0.0,1.0,0.0,0.0,0.0,1.0
1463845271281272934,273,1463845271199702204,,5.53121328354,-3.18529272079,-173.749191284,0.020408000797,1.0,0.0,0.0,0.0,1.0,0.0,0.0,0.0,1.0,-2.5,7.07317113876,28.1707324982,1.0,0.0,0.0,0.0,1.0,0.0,0.0,0.0,1.0,0.0287304199219,0.186747729492,8.59518454448,1.0,0.0,0.0,0.0,1.0,0.0,0.0,0.0,1.0
1463845271281576831,274,1463845271220188790,,5.71331930161,-3.06273198128,-173.192840576,0.0204520002007,1.0,0.0,0.0,0.0,1.0,0.0,0.0,0.0,1.0,2.25609779358,8.41463470459,26.6463432312,1.0,0.0,0.0,0.0,1.0,0.0,0.0,0.0,1.0,-0.349553442383,-0.134075302102,8.47547329243,1.0,0.0,0.0,0.0,1.0,0.0,0.0,0.0,1.0
1463845271281904061,275,1463845271240732666,,5.89151859283,-2.80264902115,-172.677185059,0.0205600000918,1.0,0.0,0.0,0.0,1.0,0.0,0.0,0.0,1.0,7.68292665482,7.92682981491,24.3292694092,1.0,0.0,0.0,0.0,1.0,0.0,0.0,0.0,1.0,-0.450109912109,0.0909796630859,8.58081933452,1.0,0.0,0.0,0.0,1.0,0.0,0.0,0.0,1.0
1463845271282249363,276,1463845271261001185,,5.98875236511,-2.48884010315,-172.213745117,0.0202210005373,1.0,0.0,0.0,0.0,1.0,0.0,0.0,0.0,1.0,9.20731735229,5.06097555161,21.8292694092,1.0,0.0,0.0,0.0,1.0,0.0,0.0,0.0,1.0,-0.373495458984,0.373495458984,8.89206496582,1.0,0.0,0.0,0.0,1.0,0.0,0.0,0.0,1.0
1463845271284220868,277,1463845271281606257,,6.03087949753,-2.15881848335,-171.757415771,0.0204000007361,1.0,0.0,0.0,0.0,1.0,0.0,0.0,0.0,1.0,8.59756088257,3.65853667259,21.0365848541,1.0,0.0,0.0,0.0,1.0,0.0,0.0,0.0,1.0,-0.201112939453,0.632069238281,8.93994899902,1.0,0.0,0.0,0.0,1.0,0.0,0.0,0.0,1.0
1463845271363732595,278,1463845271305785131,,6.02192115784,-1.87892222404,-171.306442261,0.0204039998353,1.0,0.0,0.0,0.0,1.0,0.0,0.0,0.0,1.0,7.50000047684,1.40243899822,20.7926826477,1.0,0.0,0.0,0.0,1.0,0.0,0.0,0.0,1.0,-0.196324536133,0.488417138672,9.28950185688,1.0,0.0,0.0,0.0,1.0,0.0,0.0,0.0,1.0
1463845271363776240,279,1463845271326206250,,5.93580245972,-1.57881176472,-170.836547852,0.0218359995633,1.0,0.0,0.0,0.0,1.0,0.0,0.0,0.0,1.0,7.74390268326,-1.64634156227,20.1219520569,1.0,0.0,0.0,0.0,1.0,0.0,0.0,0.0,1.0,-0.143652099609,0.526724328702,9.55765361187,1.0,0.0,0.0,0.0,1.0,0.0,0.0,0.0,1.0
1463845271363812906,280,1463845271342564467,,5.78146362305,-1.31123900414,-170.441818237,0.0189730003476,1.0,0.0,0.0,0.0,1.0,0.0,0.0,0.0,1.0,8.71951198578,-5.0,19.3902435303,1.0,0.0,0.0,0.0,1.0,0.0,0.0,0.0,1.0,-0.00957680664062,0.521935925381,10.1609918457,1.0,0.0,0.0,0.0,1.0,0.0,0.0,0.0,1.0
1463845271365023078,281,1463845271363202871,,5.54935693741,-1.00259852409,-170.005264282,0.0204130001366,1.0,0.0,0.0,0.0,1.0,0.0,0.0,0.0,1.0,8.5365858078,-7.86585378647,19.817073822,1.0,0.0,0.0,0.0,1.0,0.0,0.0,0.0,1.0,0.0718260498047,0.809240161133,10.4147772217,1.0,0.0,0.0,0.0,1.0,0.0,0.0,0.0,1.0
1463845271482561658,282,1463845271383395508,,5.31284046173,-0.761334240437,-169.560562134,0.0204099994153,1.0,0.0,0.0,0.0,1.0,0.0,0.0,0.0,1.0,5.73170757294,-8.35365867615,20.3048782349,1.0,0.0,0.0,0.0,1.0,0.0,0.0,0.0,1.0,0.0478840332031,0.804451757813,10.7116582275,1.0,0.0,0.0,0.0,1.0,0.0,0.0,0.0,1.0
1463845271482943730,283,1463845271403995892,,5.06239843369,-0.642777085304,-169.13609314,0.0204259995371,1.0,0.0,0.0,0.0,1.0,0.0,0.0,0.0,1.0,3.29268312454,-10.9756097794,19.6341457367,1.0,0.0,0.0,0.0,1.0,0.0,0.0,0.0,1.0,-0.3064578125,0.210689746094,11.1426145264,1.0,0.0,0.0,0.0,1.0,0.0,0.0,0.0,1.0
1463845271483310230,284,1463845271424452271,,4.74887418747,-0.604757368565,-168.742492676,0.0203850008547,1.0,0.0,0.0,0.0,1.0,0.0,0.0,0.0,1.0,3.7804877758,-14.6341466904,18.5365848541,1.0,0.0,0.0,0.0,1.0,0.0,0.0,0.0,1.0,-0.392649072266,-0.632069238281,11.8082025879,1.0,0.0,0.0,0.0,1.0,0.0,0.0,0.0,1.0
1463845271483699437,285,1463845271444727873,,4.3716006279,-0.550414502621,-168.400726318,0.0204240009189,1.0,0.0,0.0,0.0,1.0,0.0,0.0,0.0,1.0,5.12195110321,-18.1707305908,15.975610733,1.0,0.0,0.0,0.0,1.0,0.0,0.0,0.0,1.0,-0.430956298828,-0.675164868164,11.8752402344,1.0,0.0,0.0,0.0,1.0,0.0,0.0,0.0,1.0
1463845271485354753,286,1463845271465066651,,3.93724799156,-0.428923517466,-168.131759644,0.0204039998353,1.0,0.0,0.0,0.0,1.0,0.0,0.0,0.0,1.0,4.63414621353,-20.3048782349,12.1341466904,1.0,0.0,0.0,0.0,1.0,0.0,0.0,0.0,1.0,-0.220266552734,0.210689746094,11.8273562012,1.0,0.0,0.0,0.0,1.0,0.0,0.0,0.0,1.0
1463845271507003440,287,1463845271485487770,,3.55637359619,-0.417537629604,-167.96421814,0.0203900001943,1.0,0.0,0.0,0.0,1.0,0.0,0.0,0.0,1.0,-3.29268312454,-16.0365848541,7.07317113876,1.0,0.0,0.0,0.0,1.0,0.0,0.0,0.0,1.0,0.205901342773,0.842758984375,11.6741272949,1.0,0.0,0.0,0.0,1.0,0.0,0.0,0.0,1.0
1463845271507062032,288,1463845271505942430,,3.25528025627,-0.647995233536,-167.939300537,0.0204259995371,1.0,0.0,0.0,0.0,1.0,0.0,0.0,0.0,1.0,-9.45121955872,-12.4390249252,0.487804889679,1.0,0.0,0.0,0.0,1.0,0.0,0.0,0.0,1.0,0.215478149414,-0.253785375977,12.5264630859,1.0,0.0,0.0,0.0,1.0,0.0,0.0,0.0,1.0
1463845271531716204,289,1463845271526335320,,3.0574400425,-0.949121534824,-168.064331055,0.0204060003161,1.0,0.0,0.0,0.0,1.0,0.0,0.0,0.0,1.0,-8.71951198578,-8.59756088257,-6.58536624908,1.0,0.0,0.0,0.0,1.0,0.0,0.0,0.0,1.0,-0.00478840332031,-1.18273554705,12.885593335,1.0,0.0,0.0,0.0,1.0,0.0,0.0,0.0,1.0
1463845271556081322,290,1463845271546700764,,2.92961978912,-1.13773131371,-168.323120117,0.0204039998353,1.0,0.0,0.0,0.0,1.0,0.0,0.0,0.0,1.0,-6.70731735229,-2.37804889679,-13.2317075729,1.0,0.0,0.0,0.0,1.0,0.0,0.0,0.0,1.0,0.588973571866,-0.344765039063,11.8512982178,1.0,0.0,0.0,0.0,1.0,0.0,0.0,0.0,1.0
1463845271578074374,291,1463845271567145580,,2.95647215843,-1.34313738346,-168.732406616,0.0204329993576,1.0,0.0,0.0,0.0,1.0,0.0,0.0,0.0,1.0,-7.74390268326,3.71951246262,-20.4268302917,1.0,0.0,0.0,0.0,1.0,0.0,0.0,0.0,1.0,0.201112939453,-0.201112939453,9.17458076172,1.0,0.0,0.0,0.0,1.0,0.0,0.0,0.0,1.0
1463845271598212949,292,1463845271587471025,,3.06295824051,-1.58300900459,-169.296218872,0.0203770007938,1.0,0.0,0.0,0.0,1.0,0.0,0.0,0.0,1.0,-8.90243911743,10.9146347046,-27.8048782349,1.0,0.0,0.0,0.0,1.0,0.0,0.0,0.0,1.0,0.732625708008,-0.272938989258,9.74918916016,1.0,0.0,0.0,0.0,1.0,0.0,0.0,0.0,1.0
1463845271615448693,293,1463845271607876936,,3.26789164543,-1.86590647697,-170.017974854,0.0204269997776,1.0,0.0,0.0,0.0,1.0,0.0,0.0,0.0,1.0,-6.46341466904,13.3536586761,-35.0609741211,1.0,0.0,0.0,0.0,1.0,0.0,0.0,0.0,1.0,0.239420166016,-0.986411083984,9.50976957866,1.0,0.0,0.0,0.0,1.0,0.0,0.0,0.0,1.0
1463845271639178725,294,1463845271628350970,,3.39729142189,-2.16011691093,-170.845718384,0.0203959997743,1.0,0.0,0.0,0.0,1.0,0.0,0.0,0.0,1.0,-5.54878091812,11.5853662491,-40.1829299927,1.0,0.0,0.0,0.0,1.0,0.0,0.0,0.0,1.0,0.478840332031,-1.23540805664,9.62469125835,1.0,0.0,0.0,0.0,1.0,0.0,0.0,0.0,1.0
1463845271838365949,295,1463845271648637562,,3.47630691528,-2.41977286339,-171.691238403,0.0204169992357,1.0,0.0,0.0,0.0,1.0,0.0,0.0,0.0,1.0,-4.2682929039,8.10975551605,-41.0975646973,1.0,0.0,0.0,0.0,1.0,0.0,0.0,0.0,1.0,0.239420166016,-1.16358193377,9.41400034321,1.0,0.0,0.0,0.0,1.0,0.0,0.0,0.0,1.0
1463845271838446207,296,1463845271669066545,,3.46721529961,-2.64163088799,-172.463729858,0.0203959997743,1.0,0.0,0.0,0.0,1.0,0.0,0.0,0.0,1.0,-4.81707286835,5.18292713165,-37.8048782349,1.0,0.0,0.0,0.0,1.0,0.0,0.0,0.0,1.0,0.45489831543,-0.837970581055,9.43794235981,1.0,0.0,0.0,0.0,1.0,0.0,0.0,0.0,1.0
1463845271838489695,297,1463845271689754063,,3.46212911606,-2.82852602005,-173.087936401,0.0204230006784,1.0,0.0,0.0,0.0,1.0,0.0,0.0,0.0,1.0,-6.21951246262,8.10975551605,-30.5487804413,1.0,0.0,0.0,0.0,1.0,0.0,0.0,0.0,1.0,0.933738647461,-0.416591088867,9.27034882812,1.0,0.0,0.0,0.0,1.0,0.0,0.0,0.0,1.0
1463845271838601671,298,1463845271709850035,,3.58422970772,-3.03179812431,-173.564071655,0.020408000797,1.0,0.0,0.0,0.0,1.0,0.0,0.0,0.0,1.0,-5.60975599289,16.2804889679,-22.8048782349,1.0,0.0,0.0,0.0,1.0,0.0,0.0,0.0,1.0,1.24498486328,-0.713472094727,8.80587370605,1.0,0.0,0.0,0.0,1.0,0.0,0.0,0.0,1.0
1463845271838651409,299,1463845271730148970,,3.86587405205,-3.05758523941,-173.946304321,0.0203879997134,1.0,0.0,0.0,0.0,1.0,0.0,0.0,0.0,1.0,5.36585378647,21.7073173523,-17.7439022064,1.0,0.0,0.0,0.0,1.0,0.0,0.0,0.0,1.0,0.895431420898,-1.15879360352,8.96867941895,1.0,0.0,0.0,0.0,1.0,0.0,0.0,0.0,1.0
1463845271838697606,300,1463845271750724095,,4.28526878357,-3.01386237144,-174.255401611,0.0204169992357,1.0,0.0,0.0,0.0,1.0,0.0,0.0,0.0,1.0,10.3658542633,26.0975627899,-13.7804880142,1.0,0.0,0.0,0.0,1.0,0.0,0.0,0.0,1.0,0.445321508789,-1.25935007324,7.81946262207,1.0,0.0,0.0,0.0,1.0,0.0,0.0,0.0,1.0
1463845271838738073,301,1463845271771205994,,4.67324209213,-2.7254152298,-174.493179321,0.0204029995948,1.0,0.0,0.0,0.0,1.0,0.0,0.0,0.0,1.0,18.7195110321,28.1097564697,-10.4878053665,1.0,0.0,0.0,0.0,1.0,0.0,0.0,0.0,1.0,0.943315454102,-0.790086547852,8.10197841797,1.0,0.0,0.0,0.0,1.0,0.0,0.0,0.0,1.0
1463845271838773437,302,1463845271791628936,,5.19766616821,-2.2648601532,-174.687347412,0.0204070005566,1.0,0.0,0.0,0.0,1.0,0.0,0.0,0.0,1.0,21.6463432312,30.0609760284,-8.90243911743,1.0,0.0,0.0,0.0,1.0,0.0,0.0,0.0,1.0,0.215478149414,0.0335188255255,8.11634362793,1.0,0.0,0.0,0.0,1.0,0.0,0.0,0.0,1.0
1463845271838813592,303,1463845271812026462,,5.71404600143,-1.79869282246,-174.848510742,0.0204019993544,1.0,0.0,0.0,0.0,1.0,0.0,0.0,0.0,1.0,17.9878044128,28.7195110321,-7.98780536652,1.0,0.0,0.0,0.0,1.0,0.0,0.0,0.0,1.0,0.0239420166016,0.675164868164,8.30787917622,1.0,0.0,0.0,0.0,1.0,0.0,0.0,0.0,1.0
1463845272020912409,304,1463845271832434612,,6.08469772339,-1.47531688213,-174.996612549,0.0204060003161,1.0,0.0,0.0,0.0,1.0,0.0,0.0,0.0,1.0,12.0731716156,26.6463432312,-7.56097555161,1.0,0.0,0.0,0.0,1.0,0.0,0.0,0.0,1.0,0.742202514648,0.60812722168,8.66222219097,1.0,0.0,0.0,0.0,1.0,0.0,0.0,0.0,1.0
1463845272020981000,305,1463845271853216033,,6.55232858658,-1.27281975746,-175.125671387,0.020795000717,1.0,0.0,0.0,0.0,1.0,0.0,0.0,0.0,1.0,7.98780536652,29.6951236725,-6.40243911743,1.0,0.0,0.0,0.0,1.0,0.0,0.0,0.0,1.0,0.502782348633,0.339976635742,8.85854614258,1.0,0.0,0.0,0.0,1.0,0.0,0.0,0.0,1.0
1463845272021139954,306,1463845271873114459,,7.04090452194,-1.12681186199,-175.291824341,0.020041000098,1.0,0.0,0.0,0.0,1.0,0.0,0.0,0.0,1.0,6.82926845551,26.8292694092,-8.5365858078,1.0,0.0,0.0,0.0,1.0,0.0,0.0,0.0,1.0,-0.339976635742,0.225054956055,9.29907866352,1.0,0.0,0.0,0.0,1.0,0.0,0.0,0.0,1.0
1463845272022750948,307,1463845271895165895,,7.39099121094,-1.03326821327,-175.530502319,0.0212939996272,1.0,0.0,0.0,0.0,1.0,0.0,0.0,0.0,1.0,4.57317066193,17.3780498505,-11.6463422775,1.0,0.0,0.0,0.0,1.0,0.0,0.0,0.0,1.0,-0.737414111328,0.234631762695,10.1562034424,1.0,0.0,0.0,0.0,1.0,0.0,0.0,0.0,1.0
1463845272023032294,308,1463845271917067075,,7.63333702087,-1.08262169361,-175.768844604,0.0203660000116,1.0,0.0,0.0,0.0,1.0,0.0,0.0,0.0,1.0,2.19512200356,14.2073173523,-11.6463422775,1.0,0.0,0.0,0.0,1.0,0.0,0.0,0.0,1.0,-0.598550451572,-0.574608398438,10.9941740234,1.0,0.0,0.0,0.0,1.0,0.0,0.0,0.0,1.0
1463845272027568254,309,1463845271935399089,,7.90200567245,-1.06970369816,-175.930786133,0.0204980000854,1.0,0.0,0.0,0.0,1.0,0.0,0.0,0.0,1.0,1.64634156227,11.5243911743,-8.35365867615,1.0,0.0,0.0,0.0,1.0,0.0,0.0,0.0,1.0,-1.40300217285,0.0335188255255,11.0564232666,1.0,0.0,0.0,0.0,1.0,0.0,0.0,0.0,1.0
1463845272027961524,310,1463845271956732421,,7.97562932968,-1.12261521816,-176.049865723,0.0204659998417,1.0,0.0,0.0,0.0,1.0,0.0,0.0,0.0,1.0,-2.31707310677,3.47560977936,-6.52439069748,1.0,0.0,0.0,0.0,1.0,0.0,0.0,0.0,1.0,-1.22583125,0.138863696289,11.6980693115,1.0,0.0,0.0,0.0,1.0,0.0,0.0,0.0,1.0
1463845272030480668,311,1463845271976063572,,7.93090438843,-1.19127762318,-176.033966064,0.02024500072,1.0,0.0,0.0,0.0,1.0,0.0,0.0,0.0,1.0,-4.69512224197,-2.98780488968,-0.243902444839,1.0,0.0,0.0,0.0,1.0,0.0,0.0,0.0,1.0,-1.45088620605,0.287304199219,12.5599819092,1.0,0.0,0.0,0.0,1.0,0.0,0.0,0.0,1.0
1463845272032066299,312,1463845271998589733,,7.79324817657,-1.2658135891,-175.913665771,0.0195899996907,1.0,0.0,0.0,0.0,1.0,0.0,0.0,0.0,1.0,-9.08536529541,-5.91463422775,4.51219558716,1.0,0.0,0.0,0.0,1.0,0.0,0.0,0.0,1.0,-0.981622680664,0.995987890625,12.4690022461,1.0,0.0,0.0,0.0,1.0,0.0,0.0,0.0,1.0
1463845272032137130,313,1463845272016057343,,7.71442461014,-1.56563675404,-175.689544678,0.0204070005566,1.0,0.0,0.0,0.0,1.0,0.0,0.0,0.0,1.0,-17.9268302917,-4.20731735229,9.69512176514,1.0,0.0,0.0,0.0,1.0,0.0,0.0,0.0,1.0,-1.26892687988,0.383072265625,12.6892687988,1.0,0.0,0.0,0.0,1.0,0.0,0.0,0.0,1.0
1463845272080107591,314,1463845272036683715,,7.60874414444,-2.03539681435,-175.444961548,0.0203970000148,1.0,0.0,0.0,0.0,1.0,0.0,0.0,0.0,1.0,-19.6951236725,-8.78048801422,11.4634151459,1.0,0.0,0.0,0.0,1.0,0.0,0.0,0.0,1.0,-2.05901342773,-1.26892687988,13.2638771973,1.0,0.0,0.0,0.0,1.0,0.0,0.0,0.0,1.0
1463845272081187611,315,1463845272057018376,,7.34982872009,-2.3929002285,-175.165359497,0.0204269997776,1.0,0.0,0.0,0.0,1.0,0.0,0.0,0.0,1.0,-13.9634151459,-15.7926826477,12.8658542633,1.0,0.0,0.0,0.0,1.0,0.0,0.0,0.0,1.0,-1.83395847168,-1.43173259277,12.9191121582,1.0,0.0,0.0,0.0,1.0,0.0,0.0,0.0,1.0
1463845272114045653,316,1463845272077203979,,7.05867958069,-2.60424041748,-174.835845947,0.0204050000757,1.0,0.0,0.0,0.0,1.0,0.0,0.0,0.0,1.0,-11.5853662491,-15.6097564697,14.6341466904,1.0,0.0,0.0,0.0,1.0,0.0,0.0,0.0,1.0,-1.19710090314,-0.411802685547,11.6884925049,1.0,0.0,0.0,0.0,1.0,0.0,0.0,0.0,1.0
1463845272114137265,317,1463845272097804830,,6.86335086823,-2.73255133629,-174.454925537,0.0203949995339,1.0,0.0,0.0,0.0,1.0,0.0,0.0,0.0,1.0,-13.841463089,-9.14634132385,16.6463413239,1.0,0.0,0.0,0.0,1.0,0.0,0.0,0.0,1.0,-0.689530078125,0.76614453125,10.9893856201,1.0,0.0,0.0,0.0,1.0,0.0,0.0,0.0,1.0
1463845272141162510,318,1463845272118115637,,6.80403470993,-3.00634336472,-174.069946289,0.0204150006175,1.0,0.0,0.0,0.0,1.0,0.0,0.0,0.0,1.0,-17.9268302917,-3.04878044128,17.5000019073,1.0,0.0,0.0,0.0,1.0,0.0,0.0,0.0,1.0,-0.708683691406,0.138863696289,10.3764699951,1.0,0.0,0.0,0.0,1.0,0.0,0.0,0.0,1.0
1463845272145750864,319,1463845272138665709,,6.73887586594,-3.32103133202,-173.714263916,0.0203910004348,1.0,0.0,0.0,0.0,1.0,0.0,0.0,0.0,1.0,-20.0,-2.68292689323,16.0975608826,1.0,0.0,0.0,0.0,1.0,0.0,0.0,0.0,1.0,-0.560243188477,0.129286889648,10.1322614258,1.0,0.0,0.0,0.0,1.0,0.0,0.0,0.0,1.0
1463845272210642337,320,1463845272159025317,,6.66929626465,-3.64685583115,-173.410415649,0.0204039998353,1.0,0.0,0.0,0.0,1.0,0.0,0.0,0.0,1.0,-21.0365848541,-3.90243911743,13.4146347046,1.0,0.0,0.0,0.0,1.0,0.0,0.0,0.0,1.0,-0.684741674805,0.205901342773,9.38048151997,1.0,0.0,0.0,0.0,1.0,0.0,0.0,0.0,1.0
1463845272213678133,321,1463845272179259981,,6.55371761322,-4.0744638443,-173.184158325,0.0204399991781,1.0,0.0,0.0,0.0,1.0,0.0,0.0,0.0,1.0,-19.817073822,-7.62195110321,10.0609760284,1.0,0.0,0.0,0.0,1.0,0.0,0.0,0.0,1.0,-0.928950244141,-0.790086547852,9.20331118164,1.0,0.0,0.0,0.0,1.0,0.0,0.0,0.0,1.0
1463845272313217855,322,1463845272201285061,,6.3349070549,-4.48322725296,-173.01272583,0.0207080002874,1.0,0.0,0.0,0.0,1.0,0.0,0.0,0.0,1.0,-17.8048782349,-7.43902492523,7.31707334518,1.0,0.0,0.0,0.0,1.0,0.0,0.0,0.0,1.0,-0.0957680664062,-0.943315454102,9.24640681152,1.0,0.0,0.0,0.0,1.0,0.0,0.0,0.0,1.0
1463845272313526127,323,1463845272221543734,,6.20690584183,-4.80926895142,-172.90838623,0.0200839992613,1.0,0.0,0.0,0.0,1.0,0.0,0.0,0.0,1.0,-14.8170728683,-4.32926845551,4.39024400711,1.0,0.0,0.0,0.0,1.0,0.0,0.0,0.0,1.0,-0.258573779297,-0.823605371094,8.81066210937,1.0,0.0,0.0,0.0,1.0,0.0,0.0,0.0,1.0
1463845272313896221,324,1463845272241505125,,5.99783754349,-5.10979270935,-172.915206909,0.0212810002267,1.0,0.0,0.0,0.0,1.0,0.0,0.0,0.0,1.0,-10.9756097794,-5.79268312454,-1.09756100178,1.0,0.0,0.0,0.0,1.0,0.0,0.0,0.0,1.0,0.00478840332031,-1.01514150391,8.49462807476,1.0,0.0,0.0,0.0,1.0,0.0,0.0,0.0,1.0
1463845272313940282,325,1463845272261050643,,5.80000734329,-5.30887079239,-172.963256836,0.019618999213,1.0,0.0,0.0,0.0,1.0,0.0,0.0,0.0,1.0,-5.60975599289,-5.85365867615,-3.10975623131,1.0,0.0,0.0,0.0,1.0,0.0,0.0,0.0,1.0,0.0383072265625,-1.18273554705,8.09719001465,1.0,0.0,0.0,0.0,1.0,0.0,0.0,0.0,1.0
1463845272316352607,326,1463845272281512696,,5.59049463272,-5.35386991501,-173.02230835,0.0203389991075,1.0,0.0,0.0,0.0,1.0,0.0,0.0,0.0,1.0,-2.07317066193,-6.46341466904,-4.08536577225,1.0,0.0,0.0,0.0,1.0,0.0,0.0,0.0,1.0,-0.00478840332031,-0.574608398438,8.2264769043,1.0,0.0,0.0,0.0,1.0,0.0,0.0,0.0,1.0
1463845272476945790,327,1463845272302003030,,5.36255741119,-5.35671043396,-173.06477356,0.0204310007393,1.0,0.0,0.0,0.0,1.0,0.0,0.0,0.0,1.0,-1.64634156227,-7.74390268326,-3.53658556938,1.0,0.0,0.0,0.0,1.0,0.0,0.0,0.0,1.0,-0.0287304199219,-0.363918652344,8.47547329243,1.0,0.0,0.0,0.0,1.0,0.0,0.0,0.0,1.0
1463845272477219063,328,1463845272322637161,,5.09913635254,-5.34567260742,-173.063980103,0.020367000252,1.0,0.0,0.0,0.0,1.0,0.0,0.0,0.0,1.0,-2.56097555161,-8.10975551605,-1.58536589146,1.0,0.0,0.0,0.0,1.0,0.0,0.0,0.0,1.0,0.258573779297,-0.162805712891,8.91600698242,1.0,0.0,0.0,0.0,1.0,0.0,0.0,0.0,1.0
1463845272477509471,329,1463845272342593500,,4.8679432869,-5.32235765457,-173.055282593,0.020428000018,1.0,0.0,0.0,0.0,1.0,0.0,0.0,0.0,1.0,-2.07317066193,-6.52439069748,-1.03658533096,1.0,0.0,0.0,0.0,1.0,0.0,0.0,0.0,1.0,0.31124621582,-0.15322890625,9.18894597168,1.0,0.0,0.0,0.0,1.0,0.0,0.0,0.0,1.0
1463845272477805400,330,1463845272363179351,,4.85144853592,-5.2691822052,-173.032012939,0.0204060003161,1.0,0.0,0.0,0.0,1.0,0.0,0.0,0.0,1.0,1.8902438879,2.25609779358,0.731707334518,1.0,0.0,0.0,0.0,1.0,0.0,0.0,0.0,1.0,0.0909796630859,-0.603338854892,9.7827079834,1.0,0.0,0.0,0.0,1.0,0.0,0.0,0.0,1.0
1463845272478209034,331,1463845272383869627,,4.72004556656,-5.14636039734,-173.079772949,0.0203879997134,1.0,0.0,0.0,0.0,1.0,0.0,0.0,0.0,1.0,4.81707286835,-5.73170757294,-3.53658556938,1.0,0.0,0.0,0.0,1.0,0.0,0.0,0.0,1.0,-0.368707055664,-0.450109912109,9.62947966167,1.0,0.0,0.0,0.0,1.0,0.0,0.0,0.0,1.0
1463845272478259866,332,1463845272404265953,,4.51424741745,-4.93746852875,-173.144714355,0.0204930007458,1.0,0.0,0.0,0.0,1.0,0.0,0.0,0.0,1.0,8.29268264771,-7.01219511032,-4.51219558716,1.0,0.0,0.0,0.0,1.0,0.0,0.0,0.0,1.0,0.0383072265625,-0.320823022461,10.2567599121,1.0,0.0,0.0,0.0,1.0,0.0,0.0,0.0,1.0
1463845272478607668,333,1463845272424422546,,4.33539772034,-4.70474767685,-173.208267212,0.0203189998865,1.0,0.0,0.0,0.0,1.0,0.0,0.0,0.0,1.0,9.87804889679,-6.0365858078,-4.32926845551,1.0,0.0,0.0,0.0,1.0,0.0,0.0,0.0,1.0,0.0335188255255,-0.368707055664,10.9654436035,1.0,0.0,0.0,0.0,1.0,0.0,0.0,0.0,1.0
1463845272478660531,334,1463845272444575077,,4.13002586365,-4.477247715,-173.287216187,0.0204150006175,1.0,0.0,0.0,0.0,1.0,0.0,0.0,0.0,1.0,11.2804880142,-7.86585378647,-5.06097555161,1.0,0.0,0.0,0.0,1.0,0.0,0.0,0.0,1.0,-0.0526724365234,-0.670376464844,11.3437274658,1.0,0.0,0.0,0.0,1.0,0.0,0.0,0.0,1.0
1463845272503343293,335,1463845272465346184,,3.87598013878,-4.23998737335,-173.424987793,0.0204130001366,1.0,0.0,0.0,0.0,1.0,0.0,0.0,0.0,1.0,14.2682924271,-11.2195119858,-7.98780536652,1.0,0.0,0.0,0.0,1.0,0.0,0.0,0.0,1.0,-0.263362164351,-1.17315874041,12.1673328369,1.0,0.0,0.0,0.0,1.0,0.0,0.0,0.0,1.0
1463845272503723334,336,1463845272485865110,,3.56257414818,-3.93499016762,-173.624893188,0.0204390008003,1.0,0.0,0.0,0.0,1.0,0.0,0.0,0.0,1.0,20.1219520569,-14.5121955872,-11.0365858078,1.0,0.0,0.0,0.0,1.0,0.0,0.0,0.0,1.0,-0.349553442383,-1.71903679199,12.7275760254,1.0,0.0,0.0,0.0,1.0,0.0,0.0,0.0,1.0
1463845272546803991,337,1463845272506165449,,3.21671319008,-3.42956328392,-173.894561768,0.0203970000148,1.0,0.0,0.0,0.0,1.0,0.0,0.0,0.0,1.0,25.975610733,-16.2195110321,-14.7560987473,1.0,0.0,0.0,0.0,1.0,0.0,0.0,0.0,1.0,-0.325611425781,-0.684741674805,12.3684457764,1.0,0.0,0.0,0.0,1.0,0.0,0.0,0.0,1.0
1463845272547088774,338,1463845272526847444,,2.8417725563,-2.87343978882,-174.254882812,0.0204050000757,1.0,0.0,0.0,0.0,1.0,0.0,0.0,0.0,1.0,25.9146347046,-14.7560987473,-19.0853652954,1.0,0.0,0.0,0.0,1.0,0.0,0.0,0.0,1.0,0.359130249023,0.0143652099609,12.4785790527,1.0,0.0,0.0,0.0,1.0,0.0,0.0,0.0,1.0
1463845272581578226,339,1463845272547027839,,2.57775592804,-2.39533734322,-174.658126831,0.020428000018,1.0,0.0,0.0,0.0,1.0,0.0,0.0,0.0,1.0,27.0121955872,-8.71951198578,-20.4878044128,1.0,0.0,0.0,0.0,1.0,0.0,0.0,0.0,1.0,0.60812722168,-0.986411083984,12.8424977051,1.0,0.0,0.0,0.0,1.0,0.0,0.0,0.0,1.0
1463845272581862228,340,1463845272567110215,,2.44031834602,-1.83039283752,-175.051437378,0.0203760005534,1.0,0.0,0.0,0.0,1.0,0.0,0.0,0.0,1.0,31.341463089,-1.03658533096,-19.6951236725,1.0,0.0,0.0,0.0,1.0,0.0,0.0,0.0,1.0,1.0534486574,-0.895431420898,12.7802484619,1.0,0.0,0.0,0.0,1.0,0.0,0.0,0.0,1.0
1463845272711737619,341,1463845272587603986,,2.50756525993,-1.18913173676,-175.42414856,0.0204199999571,1.0,0.0,0.0,0.0,1.0,0.0,0.0,0.0,1.0,32.5,9.63414573669,-18.475610733,1.0,0.0,0.0,0.0,1.0,0.0,0.0,0.0,1.0,1.17315874041,-0.191536132812,11.7363765381,1.0,0.0,0.0,0.0,1.0,0.0,0.0,0.0,1.0
1463845272711789961,342,1463845272607951355,,2.7437915802,-0.589803755283,-175.822265625,0.0203820001334,1.0,0.0,0.0,0.0,1.0,0.0,0.0,0.0,1.0,31.5243930817,18.3536586761,-19.6951236725,1.0,0.0,0.0,0.0,1.0,0.0,0.0,0.0,1.0,1.20188930646,-0.234631762695,10.9941740234,1.0,0.0,0.0,0.0,1.0,0.0,0.0,0.0,1.0
1463845272711828710,343,1463845272628275287,,3.26106595993,-0.0372776314616,-176.20980835,0.0204210001975,1.0,0.0,0.0,0.0,1.0,0.0,0.0,0.0,1.0,31.4024391174,34.1463432312,-19.1463432312,1.0,0.0,0.0,0.0,1.0,0.0,0.0,0.0,1.0,1.58974990234,-0.531512805087,10.8888291504,1.0,0.0,0.0,0.0,1.0,0.0,0.0,0.0,1.0
1463845272711870376,344,1463845272648917283,,3.89678931236,0.446880638599,-176.681427002,0.0204119998962,1.0,0.0,0.0,0.0,1.0,0.0,0.0,0.0,1.0,29.0243911743,40.6097564697,-23.5365848541,1.0,0.0,0.0,0.0,1.0,0.0,0.0,0.0,1.0,1.5801730957,-0.502782348633,10.4004120117,1.0,0.0,0.0,0.0,1.0,0.0,0.0,0.0,1.0
1463845272711906989,345,1463845272669472302,,4.71426153183,0.890608310699,-177.186599731,0.0204460006207,1.0,0.0,0.0,0.0,1.0,0.0,0.0,0.0,1.0,26.4024391174,50.4878082275,-25.6097564697,1.0,0.0,0.0,0.0,1.0,0.0,0.0,0.0,1.0,1.61848032227,-0.215478149414,9.90241806641,1.0,0.0,0.0,0.0,1.0,0.0,0.0,0.0,1.0
1463845272711942457,346,1463845272689784881,,5.75688743591,1.2988461256,-177.698944092,0.0204550009221,1.0,0.0,0.0,0.0,1.0,0.0,0.0,0.0,1.0,25.2439041138,63.9024429321,-26.5243911743,1.0,0.0,0.0,0.0,1.0,0.0,0.0,0.0,1.0,1.89141931152,-0.162805712891,9.55286520855,1.0,0.0,0.0,0.0,1.0,0.0,0.0,0.0,1.0
1463845272789513712,347,1463845272710183394,,7.09307718277,1.64051759243,-178.163864136,0.0203130003065,1.0,0.0,0.0,0.0,1.0,0.0,0.0,0.0,1.0,21.158536911,83.4756088257,-25.3658542633,1.0,0.0,0.0,0.0,1.0,0.0,0.0,0.0,1.0,2.5234885498,0.110133276367,9.193734375,1.0,0.0,0.0,0.0,1.0,0.0,0.0,0.0,1.0
1463845272789834067,348,1463845272730301811,,8.89430141449,1.97998023033,-178.568237305,0.0204029995948,1.0,0.0,0.0,0.0,1.0,0.0,0.0,0.0,1.0,19.7560977936,108.048782349,-23.7195129395,1.0,0.0,0.0,0.0,1.0,0.0,0.0,0.0,1.0,2.50433493652,0.378283862305,8.57124252788,1.0,0.0,0.0,0.0,1.0,0.0,0.0,0.0,1.0
1463845272790107340,349,1463845272750955265,,11.1733093262,2.30145478249,-178.973724365,0.0204249992967,1.0,0.0,0.0,0.0,1.0,0.0,0.0,0.0,1.0,20.6097564697,130.67074585,-25.0,1.0,0.0,0.0,0.0,1.0,0.0,0.0,0.0,1.0,1.92972653809,0.239420166016,7.80509741211,1.0,0.0,0.0,0.0,1.0,0.0,0.0,0.0,1.0
1463845272790404467,350,1463845272771610281,,13.8956098557,2.64734625816,-179.366546631,0.0203980002552,1.0,0.0,0.0,0.0,1.0,0.0,0.0,0.0,1.0,23.2317085266,154.512207031,-25.9146347046,1.0,0.0,0.0,0.0,1.0,0.0,0.0,0.0,1.0,1.84832368164,0.177170922852,7.48906279297,1.0,0.0,0.0,0.0,1.0,0.0,0.0,0.0,1.0
1463845272822881895,351,1463845272792185300,,17.0970726013,3.04475522041,-179.739532471,0.0204269997776,1.0,0.0,0.0,0.0,1.0,0.0,0.0,0.0,1.0,24.7560977936,173.597564697,-27.0731716156,1.0,0.0,0.0,0.0,1.0,0.0,0.0,0.0,1.0,0.76135612793,0.397437475586,6.54574733887,1.0,0.0,0.0,0.0,1.0,0.0,0.0,0.0,1.0
1463845272823142044,352,1463845272812532096,,20.6181869507,3.42383599281,179.89604187,0.0205199997872,1.0,0.0,0.0,0.0,1.0,0.0,0.0,0.0,1.0,22.0121955872,184.085357666,-28.9634151459,1.0,0.0,0.0,0.0,1.0,0.0,0.0,0.0,1.0,-0.119710083008,0.746990917969,6.39251843262,1.0,0.0,0.0,0.0,1.0,0.0,0.0,0.0,1.0
1463845272861805175,353,1463845272832736553,,24.2616882324,3.79068255424,179.603393555,0.0203440003097,1.0,0.0,0.0,0.0,1.0,0.0,0.0,0.0,1.0,19.0853652954,187.134140015,-27.9878063202,1.0,0.0,0.0,0.0,1.0,0.0,0.0,0.0,1.0,-1.07739082014,1.11569797363,6.57447775879,1.0,0.0,0.0,0.0,1.0,0.0,0.0,0.0,1.0
1463845272862085948,354,1463845272852833044,,28.0391082764,4.16252326965,179.449707031,0.0203600004315,1.0,0.0,0.0,0.0,1.0,0.0,0.0,0.0,1.0,16.6463413239,188.10975647,-23.475610733,1.0,0.0,0.0,0.0,1.0,0.0,0.0,0.0,1.0,-2.15957004359,1.22583125,6.27759675293,1.0,0.0,0.0,0.0,1.0,0.0,0.0,0.0,1.0
1463845272904080856,355,1463845272873503163,,31.9170055389,4.45494604111,179.400299072,0.0203889999539,1.0,0.0,0.0,0.0,1.0,0.0,0.0,0.0,1.0,15.548781395,184.756103516,-17.5609760284,1.0,0.0,0.0,0.0,1.0,0.0,0.0,0.0,1.0,-3.73016618652,0.627280834961,6.12915625,1.0,0.0,0.0,0.0,1.0,0.0,0.0,0.0,1.0
1463845272904370952,356,1463845272894005736,,35.6862030029,4.81160974503,179.480758667,0.0204099994153,1.0,0.0,0.0,0.0,1.0,0.0,0.0,0.0,1.0,14.2073173523,167.865844727,-12.7439022064,1.0,0.0,0.0,0.0,1.0,0.0,0.0,0.0,1.0,-6.67503422852,0.92416184082,6.13873305664,1.0,0.0,0.0,0.0,1.0,0.0,0.0,0.0,1.0
1463845272941218095,357,1463845272914110039,,38.8441314697,5.20916032791,179.774688721,0.0204050000757,1.0,0.0,0.0,0.0,1.0,0.0,0.0,0.0,1.0,8.35365867615,140.182937622,-4.51219558716,1.0,0.0,0.0,0.0,1.0,0.0,0.0,0.0,1.0,-8.09719001465,1.44609780273,6.87135876465,1.0,0.0,0.0,0.0,1.0,0.0,0.0,0.0,1.0
1463845272941530065,358,1463845272934415222,,41.3739318848,5.60214853287,-179.740432739,0.0204210001975,1.0,0.0,0.0,0.0,1.0,0.0,0.0,0.0,1.0,2.56097555161,109.878051758,4.51219558716,1.0,0.0,0.0,0.0,1.0,0.0,0.0,0.0,1.0,-9.28950185688,1.36469494629,7.0006456543,1.0,0.0,0.0,0.0,1.0,0.0,0.0,0.0,1.0
1463845272981824294,359,1463845272954857536,,43.0841445923,5.9967713356,-179.16569519,0.0204039998353,1.0,0.0,0.0,0.0,1.0,0.0,0.0,0.0,1.0,-0.243902444839,71.8292694092,10.7317075729,1.0,0.0,0.0,0.0,1.0,0.0,0.0,0.0,1.0,-10.2232410889,1.33596452637,7.46033237305,1.0,0.0,0.0,0.0,1.0,0.0,0.0,0.0,1.0
1463845272982162565,360,1463845272975205895,,43.9227638245,6.43582582474,-178.519134521,0.0203970000148,1.0,0.0,0.0,0.0,1.0,0.0,0.0,0.0,1.0,-0.792682945728,27.4390258789,17.1951217651,1.0,0.0,0.0,0.0,1.0,0.0,0.0,0.0,1.0,-12.4450602295,1.48919343262,7.82903942871,1.0,0.0,0.0,0.0,1.0,0.0,0.0,0.0,1.0
1463845273108807674,361,1463845272996053978,,43.7477684021,6.92210197449,-177.848937988,0.0204290002584,1.0,0.0,0.0,0.0,1.0,0.0,0.0,0.0,1.0,-0.426829278469,-21.5853652954,22.3780498505,1.0,0.0,0.0,0.0,1.0,0.0,0.0,0.0,1.0,-12.4259066162,1.89620771484,7.62792648926,1.0,0.0,0.0,0.0,1.0,0.0,0.0,0.0,1.0
1463845273111986330,362,1463845273016272287,,42.6686592102,7.43771362305,-177.090820312,0.0204520002007,1.0,0.0,0.0,0.0,1.0,0.0,0.0,0.0,1.0,-5.0,-66.5853652954,28.4146347046,1.0,0.0,0.0,0.0,1.0,0.0,0.0,0.0,1.0,-13.0148802246,3.23217224121,7.43160195312,1.0,0.0,0.0,0.0,1.0,0.0,0.0,0.0,1.0
1463845273112268562,363,1463845273036799388,,40.7187423706,7.57816123962,-176.461593628,0.0203760005534,1.0,0.0,0.0,0.0,1.0,0.0,0.0,0.0,1.0,-15.4878053665,-109.939025879,33.7804870605,1.0,0.0,0.0,0.0,1.0,0.0,0.0,0.0,1.0,-12.7227876221,2.09732050817,7.53215842285,1.0,0.0,0.0,0.0,1.0,0.0,0.0,0.0,1.0
1463845273112551678,364,1463845273056904366,,38.0526695251,7.60083913803,-175.72795105,0.0203760005534,1.0,0.0,0.0,0.0,1.0,0.0,0.0,0.0,1.0,-21.5243911743,-142.073181152,45.0609779358,1.0,0.0,0.0,0.0,1.0,0.0,0.0,0.0,1.0,-12.0955067871,1.47003981934,8.43237766255,1.0,0.0,0.0,0.0,1.0,0.0,0.0,0.0,1.0
1463845273112817608,365,1463845273077218244,,34.867401123,7.58469772339,-174.804534912,0.0204009991139,1.0,0.0,0.0,0.0,1.0,0.0,0.0,0.0,1.0,-29.0853672028,-166.829269409,55.7926826477,1.0,0.0,0.0,0.0,1.0,0.0,0.0,0.0,1.0,-11.0947304932,1.92493813477,8.25999572754,1.0,0.0,0.0,0.0,1.0,0.0,0.0,0.0,1.0
1463845273114454903,366,1463845273098127730,,31.2717418671,7.50400829315,-173.64894104,0.0204670000821,1.0,0.0,0.0,0.0,1.0,0.0,0.0,0.0,1.0,-37.7439041138,-182.682937622,67.8048782349,1.0,0.0,0.0,0.0,1.0,0.0,0.0,0.0,1.0,-8.51857009136,2.08774370153,7.68059892578,1.0,0.0,0.0,0.0,1.0,0.0,0.0,0.0,1.0
1463845273356067547,367,1463845273118586916,,27.404958725,7.27595329285,-172.350814819,0.0204409994185,1.0,0.0,0.0,0.0,1.0,0.0,0.0,0.0,1.0,-45.4268302917,-195.243911743,77.3170776367,1.0,0.0,0.0,0.0,1.0,0.0,0.0,0.0,1.0,-7.27358464355,1.93930334473,7.43160195312,1.0,0.0,0.0,0.0,1.0,0.0,0.0,0.0,1.0
1463845273356386756,368,1463845273138939387,,23.0609378815,6.79278802872,-171.048629761,0.0203859992325,1.0,0.0,0.0,0.0,1.0,0.0,0.0,0.0,1.0,-50.7926826477,-215.975616455,83.2317123413,1.0,0.0,0.0,0.0,1.0,0.0,0.0,0.0,1.0,-5.73650717773,1.17315874041,7.60877287598,1.0,0.0,0.0,0.0,1.0,0.0,0.0,0.0,1.0
1463845273356692164,369,1463845273159394095,,18.4090309143,6.20535469055,-169.573471069,0.0203910004348,1.0,0.0,0.0,0.0,1.0,0.0,0.0,0.0,1.0,-53.9024391174,-226.585357666,92.5000076294,1.0,0.0,0.0,0.0,1.0,0.0,0.0,0.0,1.0,-4.41969626465,1.09175595703,8.14986245117,1.0,0.0,0.0,0.0,1.0,0.0,0.0,0.0,1.0
1463845273357011425,370,1463845273179665214,,13.3670854568,5.40112495422,-167.922821045,0.0203889999539,1.0,0.0,0.0,0.0,1.0,0.0,0.0,0.0,1.0,-56.5243911743,-232.682937622,102.012199402,1.0,0.0,0.0,0.0,1.0,0.0,0.0,0.0,1.0,-1.55144267578,0.292092584273,8.44195446919,1.0,0.0,0.0,0.0,1.0,0.0,0.0,0.0,1.0
1463845273360107063,371,1463845273200147160,,8.57590198517,4.5844912529,-166.064193726,0.0204140003771,1.0,0.0,0.0,0.0,1.0,0.0,0.0,0.0,1.0,-53.8414649963,-222.621948242,108.475608826,1.0,0.0,0.0,0.0,1.0,0.0,0.0,0.0,1.0,-1.11569797363,0.445321508789,8.51378168804,1.0,0.0,0.0,0.0,1.0,0.0,0.0,0.0,1.0
1463845273360422366,372,1463845273220244638,,3.75970935822,3.63673210144,-164.086761475,0.0203740000725,1.0,0.0,0.0,0.0,1.0,0.0,0.0,0.0,1.0,-49.1463432312,-213.353668213,111.707321167,1.0,0.0,0.0,0.0,1.0,0.0,0.0,0.0,1.0,1.40300217285,-0.320823022461,7.98226833496,1.0,0.0,0.0,0.0,1.0,0.0,0.0,0.0,1.0
1463845273360792512,373,1463845273240700752,,-0.802617430687,2.68291139603,-162.22467041,0.0204329993576,1.0,0.0,0.0,0.0,1.0,0.0,0.0,0.0,1.0,-44.0853652954,-200.914642334,101.219512939,1.0,0.0,0.0,0.0,1.0,0.0,0.0,0.0,1.0,2.28885678711,-0.0478840332031,7.79552060547,1.0,0.0,0.0,0.0,1.0,0.0,0.0,0.0,1.0
1463845273362471212,374,1463845273261093638,,-5.08408784866,1.65896105766,-160.458114624,0.0204189997166,1.0,0.0,0.0,0.0,1.0,0.0,0.0,0.0,1.0,-38.5365829468,-191.707321167,92.3170776367,1.0,0.0,0.0,0.0,1.0,0.0,0.0,0.0,1.0,2.21224233398,-0.435744702148,6.68939943848,1.0,0.0,0.0,0.0,1.0,0.0,0.0,0.0,1.0
1463845273362847503,375,1463845273281631780,,-9.25382614136,0.736902415752,-158.973510742,0.0203949995339,1.0,0.0,0.0,0.0,1.0,0.0,0.0,0.0,1.0,-26.0365848541,-180.365859985,73.9024429321,1.0,0.0,0.0,0.0,1.0,0.0,0.0,0.0,1.0,4.16112219309,-1.07739082014,6.78037910156,1.0,0.0,0.0,0.0,1.0,0.0,0.0,0.0,1.0
1463845273363157077,376,1463845273302239244,,-12.9282217026,0.0311552491039,-157.689590454,0.0204269997776,1.0,0.0,0.0,0.0,1.0,0.0,0.0,0.0,1.0,-15.548781395,-155.0,60.5487823486,1.0,0.0,0.0,0.0,1.0,0.0,0.0,0.0,1.0,5.35343491211,-0.818816967773,6.92403120117,1.0,0.0,0.0,0.0,1.0,0.0,0.0,0.0,1.0
1463845273366969412,377,1463845273322609943,,-15.9099340439,-0.570013701916,-156.558746338,0.0203820001334,1.0,0.0,0.0,0.0,1.0,0.0,0.0,0.0,1.0,-10.3658542633,-122.743904114,51.0365867615,1.0,0.0,0.0,0.0,1.0,0.0,0.0,0.0,1.0,6.11957944336,-0.713472094727,7.14429775391,1.0,0.0,0.0,0.0,1.0,0.0,0.0,0.0,1.0
1463845273865704293,378,1463845273343077931,,-18.182926178,-1.12895989418,-155.581787109,0.0204310007393,1.0,0.0,0.0,0.0,1.0,0.0,0.0,0.0,1.0,-7.62195110321,-87.7439041138,42.0121955872,1.0,0.0,0.0,0.0,1.0,0.0,0.0,0.0,1.0,7.4028715332,-0.981622680664,7.67581052246,1.0,0.0,0.0,0.0,1.0,0.0,0.0,0.0,1.0
1463845273866027253,379,1463845273363511442,,-19.6200122833,-1.52543663979,-154.866546631,0.0204109996557,1.0,0.0,0.0,0.0,1.0,0.0,0.0,0.0,1.0,-5.30487823486,-48.5975608826,30.5487804413,1.0,0.0,0.0,0.0,1.0,0.0,0.0,0.0,1.0,7.76200178223,-0.497993945312,7.95832631836,1.0,0.0,0.0,0.0,1.0,0.0,0.0,0.0,1.0
1463845273866302505,380,1463845273383914692,,-20.3116817474,-1.74608469009,-154.482940674,0.0204140003771,1.0,0.0,0.0,0.0,1.0,0.0,0.0,0.0,1.0,-4.93902444839,-15.1219511032,17.0731716156,1.0,0.0,0.0,0.0,1.0,0.0,0.0,0.0,1.0,7.85776984863,0.138863696289,8.71968244629,1.0,0.0,0.0,0.0,1.0,0.0,0.0,0.0,1.0
1463845273867954904,381,1463845273404040138,,-20.3125839233,-1.8345849514,-154.427490234,0.0203750003129,1.0,0.0,0.0,0.0,1.0,0.0,0.0,0.0,1.0,-2.25609779358,17.8658542633,2.5,1.0,0.0,0.0,0.0,1.0,0.0,0.0,0.0,1.0,8.02536396484,-0.272938989258,9.12669672852,1.0,0.0,0.0,0.0,1.0,0.0,0.0,0.0,1.0
1463845273869825109,382,1463845273424483336,,-19.6322250366,-1.60633349419,-154.844924927,0.0204680003226,1.0,0.0,0.0,0.0,1.0,0.0,0.0,0.0,1.0,3.96341490746,51.6463432312,-17.5000019073,1.0,0.0,0.0,0.0,1.0,0.0,0.0,0.0,1.0,7.87692346191,0.0335188255255,9.02135185547,1.0,0.0,0.0,0.0,1.0,0.0,0.0,0.0,1.0
1463845273870178692,383,1463845273444566283,,-18.2773971558,-1.20271623135,-155.628417969,0.0203440003097,1.0,0.0,0.0,0.0,1.0,0.0,0.0,0.0,1.0,7.31707334518,81.5853652954,-34.2682952881,1.0,0.0,0.0,0.0,1.0,0.0,0.0,0.0,1.0,6.98628044434,0.00957680664062,9.47146118306,1.0,0.0,0.0,0.0,1.0,0.0,0.0,0.0,1.0
1463845273872065928,384,1463845273465345408,,-16.3519096375,-0.619273722172,-156.763656616,0.0204179994762,1.0,0.0,0.0,0.0,1.0,0.0,0.0,0.0,1.0,13.1707324982,107.621955872,-51.5243911743,1.0,0.0,0.0,0.0,1.0,0.0,0.0,0.0,1.0,6.4356140625,-0.181959326172,9.79707319336,1.0,0.0,0.0,0.0,1.0,0.0,0.0,0.0,1.0
1463845273872415605,385,1463845273485576320,,-13.9224348068,0.0645641684532,-158.161132812,0.0204000007361,1.0,0.0,0.0,0.0,1.0,0.0,0.0,0.0,1.0,18.9634151459,133.292694092,-66.2195129395,1.0,0.0,0.0,0.0,1.0,0.0,0.0,0.0,1.0,6.31590397949,-0.550666381836,9.79707319336,1.0,0.0,0.0,0.0,1.0,0.0,0.0,0.0,1.0
1463845273872691170,386,1463845273506254927,,-10.8375663757,0.864871561527,-159.775375366,0.0204360000789,1.0,0.0,0.0,0.0,1.0,0.0,0.0,0.0,1.0,26.9512195587,160.182937622,-79.4512176514,1.0,0.0,0.0,0.0,1.0,0.0,0.0,0.0,1.0,5.12359155273,-0.723048901367,10.4435076416,1.0,0.0,0.0,0.0,1.0,0.0,0.0,0.0,1.0
1463845273876090497,387,1463845273526607815,,-7.36443328857,1.85357904434,-161.607299805,0.0204050000757,1.0,0.0,0.0,0.0,1.0,0.0,0.0,0.0,1.0,34.2073173523,172.621963501,-92.6829299927,1.0,0.0,0.0,0.0,1.0,0.0,0.0,0.0,1.0,3.25132585449,0.407014282227,10.2807019287,1.0,0.0,0.0,0.0,1.0,0.0,0.0,0.0,1.0
1463845273876436268,388,1463845273547104708,,-3.78442788124,2.72324228287,-163.643676758,0.0204409994185,1.0,0.0,0.0,0.0,1.0,0.0,0.0,0.0,1.0,26.6463432312,174.634155273,-105.426834106,1.0,0.0,0.0,0.0,1.0,0.0,0.0,0.0,1.0,2.39420180629,1.74776721191,10.2519715088,1.0,0.0,0.0,0.0,1.0,0.0,0.0,0.0,1.0
1463845273876743290,389,1463845273567454992,,0.0455127842724,3.08606767654,-165.644958496,0.0204099994153,1.0,0.0,0.0,0.0,1.0,0.0,0.0,0.0,1.0,19.6341457367,182.560974121,-107.926834106,1.0,0.0,0.0,0.0,1.0,0.0,0.0,0.0,1.0,1.13006318359,-0.225054956055,10.8792523438,1.0,0.0,0.0,0.0,1.0,0.0,0.0,0.0,1.0
1463845273879096137,390,1463845273587631426,,4.00005102158,3.37522530556,-167.582962036,0.0203530006111,1.0,0.0,0.0,0.0,1.0,0.0,0.0,0.0,1.0,27.0731716156,181.95123291,-105.914634705,1.0,0.0,0.0,0.0,1.0,0.0,0.0,0.0,1.0,-0.895431420898,-0.991199487305,10.5823713379,1.0,0.0,0.0,0.0,1.0,0.0,0.0,0.0,1.0
1463845273879454876,391,1463845273607914368,,7.83289957047,3.77498865128,-169.397888184,0.0203970000148,1.0,0.0,0.0,0.0,1.0,0.0,0.0,0.0,1.0,30.0000019073,171.89024353,-99.8170776367,1.0,0.0,0.0,0.0,1.0,0.0,0.0,0.0,1.0,-2.18351191406,0.584185168546,9.97903251953,1.0,0.0,0.0,0.0,1.0,0.0,0.0,0.0,1.0
1463845273879782835,392,1463845273628647713,,11.4328689575,4.17576932907,-171.00819397,0.0205000005662,1.0,0.0,0.0,0.0,1.0,0.0,0.0,0.0,1.0,27.5,162.134155273,-90.2439041138,1.0,0.0,0.0,0.0,1.0,0.0,0.0,0.0,1.0,-2.23618435059,1.69030637207,9.11233151855,1.0,0.0,0.0,0.0,1.0,0.0,0.0,0.0,1.0
1463845273880097774,393,1463845273648907269,,14.833656311,4.30233240128,-172.429107666,0.0203440003097,1.0,0.0,0.0,0.0,1.0,0.0,0.0,0.0,1.0,22.1951236725,150.304885864,-80.0609741211,1.0,0.0,0.0,0.0,1.0,0.0,0.0,0.0,1.0,-3.4428619873,0.837970581055,8.90164177246,1.0,0.0,0.0,0.0,1.0,0.0,0.0,0.0,1.0
1463845273882230419,394,1463845273669493015,,17.9025783539,4.23518276215,-173.735931396,0.0204259995371,1.0,0.0,0.0,0.0,1.0,0.0,0.0,0.0,1.0,17.317073822,135.975616455,-71.8292694092,1.0,0.0,0.0,0.0,1.0,0.0,0.0,0.0,1.0,-3.73495458984,0.430956298828,9.06444748535,1.0,0.0,0.0,0.0,1.0,0.0,0.0,0.0,1.0
1463845273882570930,395,1463845273689874235,,20.7190685272,4.06872558594,-174.87663269,0.0203930009156,1.0,0.0,0.0,0.0,1.0,0.0,0.0,0.0,1.0,12.8048782349,121.402442932,-61.8292655945,1.0,0.0,0.0,0.0,1.0,0.0,0.0,0.0,1.0,-4.9272670166,0.416591088867,8.96389101563,1.0,0.0,0.0,0.0,1.0,0.0,0.0,0.0,1.0
1463845273884094791,396,1463845273710412429,,23.1392021179,3.89081406593,-175.841934204,0.0204329993576,1.0,0.0,0.0,0.0,1.0,0.0,0.0,0.0,1.0,12.0121955872,106.524391174,-51.1585388184,1.0,0.0,0.0,0.0,1.0,0.0,0.0,0.0,1.0,-4.69263496165,0.272938989258,8.98304462891,1.0,0.0,0.0,0.0,1.0,0.0,0.0,0.0,1.0
1463845273884454780,397,1463845273730426160,,25.3384361267,3.77124285698,-176.669998169,0.0203489996493,1.0,0.0,0.0,0.0,1.0,0.0,0.0,0.0,1.0,13.1707324982,96.5243911743,-43.7195129395,1.0,0.0,0.0,0.0,1.0,0.0,0.0,0.0,1.0,-5.07091911621,0.363918652344,8.69095202637,1.0,0.0,0.0,0.0,1.0,0.0,0.0,0.0,1.0
1463845273886910489,398,1463845273750880711,,27.332698822,3.76410675049,-177.407043457,0.0204230006784,1.0,0.0,0.0,0.0,1.0,0.0,0.0,0.0,1.0,15.0000009537,86.3414611816,-39.5731735229,1.0,0.0,0.0,0.0,1.0,0.0,0.0,0.0,1.0,-5.55933625488,0.943315454102,8.68137521973,1.0,0.0,0.0,0.0,1.0,0.0,0.0,0.0,1.0
1463845273887252250,399,1463845273771300263,,29.2243824005,3.79546689987,-178.005157471,0.0204150006175,1.0,0.0,0.0,0.0,1.0,0.0,0.0,0.0,1.0,14.4512205124,82.2560958862,-33.0487823486,1.0,0.0,0.0,0.0,1.0,0.0,0.0,0.0,1.0,-5.11401474609,0.885854614258,7.53215842285,1.0,0.0,0.0,0.0,1.0,0.0,0.0,0.0,1.0
1463845273887550366,400,1463845273791844031,,30.8771190643,3.81129670143,-178.588119507,0.020408000797,1.0,0.0,0.0,0.0,1.0,0.0,0.0,0.0,1.0,15.4878053665,69.8170776367,-30.4878044128,1.0,0.0,0.0,0.0,1.0,0.0,0.0,0.0,1.0,-5.91367810059,0.675164868164,7.86734665527,1.0,0.0,0.0,0.0,1.0,0.0,0.0,0.0,1.0
1463845273889048342,401,1463845273812056922,,32.260307312,3.91808843613,-179.072525024,0.0204920005053,1.0,0.0,0.0,0.0,1.0,0.0,0.0,0.0,1.0,15.0000009537,52.9268302917,-26.7073173523,1.0,0.0,0.0,0.0,1.0,0.0,0.0,0.0,1.0,-6.56490095215,1.24019645996,7.17302817383,1.0,0.0,0.0,0.0,1.0,0.0,0.0,0.0,1.0
1463845273889422238,402,1463845273832545639,,33.0533294678,4.02564525604,-179.475692749,0.0203140005469,1.0,0.0,0.0,0.0,1.0,0.0,0.0,0.0,1.0,11.2804880142,23.0487823486,-22.8048782349,1.0,0.0,0.0,0.0,1.0,0.0,0.0,0.0,1.0,-7.56567724609,1.83395847168,7.4028715332,1.0,0.0,0.0,0.0,1.0,0.0,0.0,0.0,1.0
1463845273891320671,403,1463845273852884933,,33.0482177734,4.0803732872,-179.749145508,0.0204629991204,1.0,0.0,0.0,0.0,1.0,0.0,0.0,0.0,1.0,5.18292713165,-17.3780498505,-14.6341466904,1.0,0.0,0.0,0.0,1.0,0.0,0.0,0.0,1.0,-7.9439611084,1.86747729492,7.14429775391,1.0,0.0,0.0,0.0,1.0,0.0,0.0,0.0,1.0
1463845274172208489,404,1463845273873305162,,32.304359436,4.13492012024,-179.742294312,0.0203579999506,1.0,0.0,0.0,0.0,1.0,0.0,0.0,0.0,1.0,-1.46341466904,-52.7439041138,-0.12195122242,1.0,0.0,0.0,0.0,1.0,0.0,0.0,0.0,1.0,-7.72848295898,1.64721074219,6.98628044434,1.0,0.0,0.0,0.0,1.0,0.0,0.0,0.0,1.0
1463845274172496605,405,1463845273893552376,,30.7681884766,4.26576328278,-179.333847046,0.0204009991139,1.0,0.0,0.0,0.0,1.0,0.0,0.0,0.0,1.0,-4.75609779358,-85.365852356,21.2195129395,1.0,0.0,0.0,0.0,1.0,0.0,0.0,0.0,1.0,-6.7899559082,0.957680664062,7.55131203613,1.0,0.0,0.0,0.0,1.0,0.0,0.0,0.0,1.0
1463845274172772430,406,1463845273914014896,,28.5852851868,4.54702234268,-178.510894775,0.0203980002552,1.0,0.0,0.0,0.0,1.0,0.0,0.0,0.0,1.0,-5.54878091812,-116.341468811,42.682926178,1.0,0.0,0.0,0.0,1.0,0.0,0.0,0.0,1.0,-6.85699355469,0.718260498047,7.83861623535,1.0,0.0,0.0,0.0,1.0,0.0,0.0,0.0,1.0
1463845274173062161,407,1463845273934400126,,25.6672477722,4.91451835632,-177.329376221,0.0204179994762,1.0,0.0,0.0,0.0,1.0,0.0,0.0,0.0,1.0,-5.42682933807,-143.719512939,63.3536567688,1.0,0.0,0.0,0.0,1.0,0.0,0.0,0.0,1.0,-5.24330163574,0.330399829102,8.39407043599,1.0,0.0,0.0,0.0,1.0,0.0,0.0,0.0,1.0
1463845274173336059,408,1463845273954957747,,22.2511310577,5.33857631683,-175.811279297,0.0204879995435,1.0,0.0,0.0,0.0,1.0,0.0,0.0,0.0,1.0,-5.73170757294,-158.963409424,82.1951293945,1.0,0.0,0.0,0.0,1.0,0.0,0.0,0.0,1.0,-3.73974299316,0.320823022461,9.09796630859,1.0,0.0,0.0,0.0,1.0,0.0,0.0,0.0,1.0
1463845274173607145,409,1463845273975260167,,18.5690021515,5.76668453217,-174.055435181,0.0203329995275,1.0,0.0,0.0,0.0,1.0,0.0,0.0,0.0,1.0,-6.70731735229,-162.743896484,96.3414611816,1.0,0.0,0.0,0.0,1.0,0.0,0.0,0.0,1.0,-1.77170922852,0.723048901367,9.98382092285,1.0,0.0,0.0,0.0,1.0,0.0,0.0,0.0,1.0
1463845274173880054,410,1463845273995724353,,14.9567537308,6.09656238556,-172.1953125,0.0204169992357,1.0,0.0,0.0,0.0,1.0,0.0,0.0,0.0,1.0,-6.58536624908,-153.10975647,103.10975647,1.0,0.0,0.0,0.0,1.0,0.0,0.0,0.0,1.0,-0.383072265625,0.641646044922,10.9702320068,1.0,0.0,0.0,0.0,1.0,0.0,0.0,0.0,1.0
1463845274174175618,411,1463845274016092499,,11.6130867004,6.34719991684,-170.45614624,0.0204019993544,1.0,0.0,0.0,0.0,1.0,0.0,0.0,0.0,1.0,-3.96341490746,-137.5,97.7439041138,1.0,0.0,0.0,0.0,1.0,0.0,0.0,0.0,1.0,0.866701000977,0.77093293457,11.2814782227,1.0,0.0,0.0,0.0,1.0,0.0,0.0,0.0,1.0
1463845274174480869,412,1463845274036510122,,8.74052238464,6.55721378326,-168.991149902,0.0204269997776,1.0,0.0,0.0,0.0,1.0,0.0,0.0,0.0,1.0,1.34146344662,-115.121955872,83.3536605835,1.0,0.0,0.0,0.0,1.0,0.0,0.0,0.0,1.0,1.65199914551,0.77093293457,11.7411649414,1.0,0.0,0.0,0.0,1.0,0.0,0.0,0.0,1.0
1463845274174796381,413,1463845274056803165,,6.43615055084,6.78461122513,-167.880523682,0.0203859992325,1.0,0.0,0.0,0.0,1.0,0.0,0.0,0.0,1.0,3.65853667259,-89.7560958862,63.4756088257,1.0,0.0,0.0,0.0,1.0,0.0,0.0,0.0,1.0,2.04464821777,1.57538469238,10.9845972168,1.0,0.0,0.0,0.0,1.0,0.0,0.0,0.0,1.0
1463845274175083872,414,1463845274077104750,,4.74328804016,6.88425779343,-167.203567505,0.0204000007361,1.0,0.0,0.0,0.0,1.0,0.0,0.0,0.0,1.0,-0.487804889679,-66.8902435303,39.817073822,1.0,0.0,0.0,0.0,1.0,0.0,0.0,0.0,1.0,1.57059628906,2.03985981445,11.2814782227,1.0,0.0,0.0,0.0,1.0,0.0,0.0,0.0,1.0
1463845274175361833,415,1463845274097942308,,3.51095414162,6.76697540283,-167.015716553,0.0204240009189,1.0,0.0,0.0,0.0,1.0,0.0,0.0,0.0,1.0,-2.01219511032,-50.4268302917,14.5731706619,1.0,0.0,0.0,0.0,1.0,0.0,0.0,0.0,1.0,1.28329208984,0.76614453125,12.0141039307,1.0,0.0,0.0,0.0,1.0,0.0,0.0,0.0,1.0
1463845274175644793,416,1463845274118063534,,2.59091734886,6.75029945374,-167.148483276,0.0204070005566,1.0,0.0,0.0,0.0,1.0,0.0,0.0,0.0,1.0,0.792682945728,-38.3536567688,-2.86585378647,1.0,0.0,0.0,0.0,1.0,0.0,0.0,0.0,1.0,1.23540805664,1.35990654297,11.5304751953,1.0,0.0,0.0,0.0,1.0,0.0,0.0,0.0,1.0
1463845274175932909,417,1463845274138378139,,2.02013325691,6.79057407379,-167.432067871,0.0203910004348,1.0,0.0,0.0,0.0,1.0,0.0,0.0,0.0,1.0,-1.52439022064,-24.6951236725,-12.1341466904,1.0,0.0,0.0,0.0,1.0,0.0,0.0,0.0,1.0,0.837970581055,2.23139594727,10.3956236084,1.0,0.0,0.0,0.0,1.0,0.0,0.0,0.0,1.0
1463845274216942838,418,1463845274159631362,,1.75176477432,6.71491336823,-167.758071899,0.0204240009189,1.0,0.0,0.0,0.0,1.0,0.0,0.0,0.0,1.0,-9.14634132385,-9.93902492523,-15.975610733,1.0,0.0,0.0,0.0,1.0,0.0,0.0,0.0,1.0,0.933738647461,2.43729729004,9.69651672363,1.0,0.0,0.0,0.0,1.0,0.0,0.0,0.0,1.0
1463845274217253297,419,1463845274179245519,,1.78714561462,6.50647354126,-168.037460327,0.0204060003161,1.0,0.0,0.0,0.0,1.0,0.0,0.0,0.0,1.0,-14.4512205124,3.23170733452,-15.1829271317,1.0,0.0,0.0,0.0,1.0,0.0,0.0,0.0,1.0,0.612915625,2.11647412145,9.40442353657,1.0,0.0,0.0,0.0,1.0,0.0,0.0,0.0,1.0
1463845274227335498,420,1463845274200234584,,2.00300431252,6.23879671097,-168.269226074,0.0204000007361,1.0,0.0,0.0,0.0,1.0,0.0,0.0,0.0,1.0,-16.0975608826,11.0365858078,-13.658536911,1.0,0.0,0.0,0.0,1.0,0.0,0.0,0.0,1.0,0.368707055664,1.81001645508,9.19852277832,1.0,0.0,0.0,0.0,1.0,0.0,0.0,0.0,1.0
1463845274227715278,421,1463845274220064255,,2.31835436821,5.92923498154,-168.405532837,0.0203990004957,1.0,0.0,0.0,0.0,1.0,0.0,0.0,0.0,1.0,-16.8902435303,16.4024391174,-9.45121955872,1.0,0.0,0.0,0.0,1.0,0.0,0.0,0.0,1.0,0.325611425781,1.54665427246,9.28471345356,1.0,0.0,0.0,0.0,1.0,0.0,0.0,0.0,1.0
1463845274243829435,422,1463845274240482034,,2.73773241043,5.54307985306,-168.43270874,0.0204179994762,1.0,0.0,0.0,0.0,1.0,0.0,0.0,0.0,1.0,-17.5609760284,18.5975627899,-4.08536577225,1.0,0.0,0.0,0.0,1.0,0.0,0.0,0.0,1.0,-0.287304199219,0.900219824219,8.79629689941,1.0,0.0,0.0,0.0,1.0,0.0,0.0,0.0,1.0
1463845274270016001,423,1463845274261403965,,3.11903500557,5.16421413422,-168.377487183,0.0207269992679,1.0,0.0,0.0,0.0,1.0,0.0,0.0,0.0,1.0,-16.5853652954,16.0975608826,0.304878056049,1.0,0.0,0.0,0.0,1.0,0.0,0.0,0.0,1.0,-0.45968671875,0.737414111328,8.58081933452,1.0,0.0,0.0,0.0,1.0,0.0,0.0,0.0,1.0
1463845274289288346,424,1463845274283484924,,3.39183330536,4.83615875244,-168.249938965,0.0201719999313,1.0,0.0,0.0,0.0,1.0,0.0,0.0,0.0,1.0,-15.4878053665,13.9634151459,4.20731735229,1.0,0.0,0.0,0.0,1.0,0.0,0.0,0.0,1.0,-0.15322890625,0.809240161133,8.82981572266,1.0,0.0,0.0,0.0,1.0,0.0,0.0,0.0,1.0
1463845274310362303,425,1463845274302739925,,3.63233327866,4.51310443878,-168.066589355,0.0203440003097,1.0,0.0,0.0,0.0,1.0,0.0,0.0,0.0,1.0,-13.9024391174,12.9878053665,7.13414621353,1.0,0.0,0.0,0.0,1.0,0.0,0.0,0.0,1.0,-0.110133276367,0.526724328702,8.6239149644,1.0,0.0,0.0,0.0,1.0,0.0,0.0,0.0,1.0
1463845274325161916,426,1463845274322337521,,3.83387494087,4.26546049118,-167.828277588,0.0203970000148,1.0,0.0,0.0,0.0,1.0,0.0,0.0,0.0,1.0,-10.4878053665,12.7439022064,9.87804889679,1.0,0.0,0.0,0.0,1.0,0.0,0.0,0.0,1.0,0.0861912597656,0.488417138672,8.49941647808,1.0,0.0,0.0,0.0,1.0,0.0,0.0,0.0,1.0
1463845274349928004,427,1463845274344338222,,3.98251318932,4.12664413452,-167.582092285,0.0203879997134,1.0,0.0,0.0,0.0,1.0,0.0,0.0,0.0,1.0,-7.86585378647,12.1341466904,10.1829271317,1.0,0.0,0.0,0.0,1.0,0.0,0.0,0.0,1.0,0.349553442383,0.828393774414,8.25999572754,1.0,0.0,0.0,0.0,1.0,0.0,0.0,0.0,1.0
1463845274467522585,428,1463845274362896889,,4.1738409996,4.0509967804,-167.336959839,0.0204210001975,1.0,0.0,0.0,0.0,1.0,0.0,0.0,0.0,1.0,-7.98780536652,11.7682924271,9.93902492523,1.0,0.0,0.0,0.0,1.0,0.0,0.0,0.0,1.0,-0.0239420166016,1.26413847656,8.13549724121,1.0,0.0,0.0,0.0,1.0,0.0,0.0,0.0,1.0
1463845274467817316,429,1463845274383613149,,4.29966640472,3.94473171234,-167.114044189,0.0204060003161,1.0,0.0,0.0,0.0,1.0,0.0,0.0,0.0,1.0,-11.2195119858,9.39024448395,8.90243911743,1.0,0.0,0.0,0.0,1.0,0.0,0.0,0.0,1.0,0.0909796630859,1.63284553223,8.76277807617,1.0,0.0,0.0,0.0,1.0,0.0,0.0,0.0,1.0
1463845274468096422,430,1463845274403792133,,4.36752557755,3.74237513542,-166.91065979,0.0204199999571,1.0,0.0,0.0,0.0,1.0,0.0,0.0,0.0,1.0,-15.3048791885,6.82926845551,8.17073154449,1.0,0.0,0.0,0.0,1.0,0.0,0.0,0.0,1.0,0.134075302102,1.58974990234,9.13148513184,1.0,0.0,0.0,0.0,1.0,0.0,0.0,0.0,1.0
1463845274468421881,431,1463845274424325534,,4.4231338501,3.45267510414,-166.73387146,0.0203990004957,1.0,0.0,0.0,0.0,1.0,0.0,0.0,0.0,1.0,-16.8292694092,4.69512224197,7.25609779358,1.0,0.0,0.0,0.0,1.0,0.0,0.0,0.0,1.0,-0.119710083008,1.17794714373,9.66299848491,1.0,0.0,0.0,0.0,1.0,0.0,0.0,0.0,1.0
1463845274522003363,432,1463845274445839635,,4.38959980011,3.18746781349,-166.572616577,0.0204000007361,1.0,0.0,0.0,0.0,1.0,0.0,0.0,0.0,1.0,-18.2317085266,1.15853655338,6.52439069748,1.0,0.0,0.0,0.0,1.0,0.0,0.0,0.0,1.0,0.0335188255255,1.64721074219,9.99339772949,1.0,0.0,0.0,0.0,1.0,0.0,0.0,0.0,1.0
1463845274522051539,433,1463845274465246194,,4.33424043655,2.83374500275,-166.384719849,0.0206230003387,1.0,0.0,0.0,0.0,1.0,0.0,0.0,0.0,1.0,-22.1341457367,0.365853667259,7.80487823486,1.0,0.0,0.0,0.0,1.0,0.0,0.0,0.0,1.0,0.0814028564453,1.59932670898,10.3956236084,1.0,0.0,0.0,0.0,1.0,0.0,0.0,0.0,1.0
1463845274522377258,434,1463845274485744075,,4.21184635162,2.35462975502,-166.225372314,0.0202050004154,1.0,0.0,0.0,0.0,1.0,0.0,0.0,0.0,1.0,-23.5365848541,-2.74390244484,7.13414621353,1.0,0.0,0.0,0.0,1.0,0.0,0.0,0.0,1.0,0.162805712891,0.627280834961,11.0133276367,1.0,0.0,0.0,0.0,1.0,0.0,0.0,0.0,1.0
1463845274522879066,435,1463845274506013734,,4.06559801102,1.91971075535,-166.103286743,0.0204969998449,1.0,0.0,0.0,0.0,1.0,0.0,0.0,0.0,1.0,-18.475610733,-5.12195110321,5.48780488968,1.0,0.0,0.0,0.0,1.0,0.0,0.0,0.0,1.0,-0.0430956298828,0.067037651051,11.3485158691,1.0,0.0,0.0,0.0,1.0,0.0,0.0,0.0,1.0
1463845274621415672,436,1463845274526250372,,3.86156249046,1.63449275494,-166.05128479,0.0203419998288,1.0,0.0,0.0,0.0,1.0,0.0,0.0,0.0,1.0,-12.7439022064,-10.1219511032,2.13414645195,1.0,0.0,0.0,0.0,1.0,0.0,0.0,0.0,1.0,-0.435744702148,0.349553442383,12.1625444336,1.0,0.0,0.0,0.0,1.0,0.0,0.0,0.0,1.0
1463845274621751183,437,1463845274546661693,,3.51317334175,1.47889959812,-166.08782959,0.0203840006143,1.0,0.0,0.0,0.0,1.0,0.0,0.0,0.0,1.0,-11.9512195587,-16.4634151459,-2.43902444839,1.0,0.0,0.0,0.0,1.0,0.0,0.0,0.0,1.0,-0.205901342773,1.5801730957,12.2678893066,1.0,0.0,0.0,0.0,1.0,0.0,0.0,0.0,1.0
1463845274622042320,438,1463845274567056713,,3.10578012466,1.1991339922,-166.198104858,0.0204099994153,1.0,0.0,0.0,0.0,1.0,0.0,0.0,0.0,1.0,-20.1219520569,-17.8658542633,-6.15853643417,1.0,0.0,0.0,0.0,1.0,0.0,0.0,0.0,1.0,0.215478149414,2.07816689489,12.3971761963,1.0,0.0,0.0,0.0,1.0,0.0,0.0,0.0,1.0
1463845274622374810,439,1463845274587464284,,2.73680877686,0.686275184155,-166.401260376,0.0204029995948,1.0,0.0,0.0,0.0,1.0,0.0,0.0,0.0,1.0,-25.4878044128,-17.2560977936,-10.4268293381,1.0,0.0,0.0,0.0,1.0,0.0,0.0,0.0,1.0,0.0239420166016,0.76614453125,13.48414375,1.0,0.0,0.0,0.0,1.0,0.0,0.0,0.0,1.0
1463845274741611009,440,1463845274607912687,,2.41713285446,0.13150370121,-166.674453735,0.0204230006784,1.0,0.0,0.0,0.0,1.0,0.0,0.0,0.0,1.0,-21.5243911743,-12.0731716156,-13.7195129395,1.0,0.0,0.0,0.0,1.0,0.0,0.0,0.0,1.0,0.732625708008,-0.742202514648,13.1010714844,1.0,0.0,0.0,0.0,1.0,0.0,0.0,0.0,1.0
1463845274741916313,441,1463845274628285780,,2.22522592545,-0.292264401913,-167.014724731,0.0203970000148,1.0,0.0,0.0,0.0,1.0,0.0,0.0,0.0,1.0,-17.3780498505,-5.30487823486,-17.1951217651,1.0,0.0,0.0,0.0,1.0,0.0,0.0,0.0,1.0,0.818816967773,-0.301669427446,11.9374894775,1.0,0.0,0.0,0.0,1.0,0.0,0.0,0.0,1.0
1463845274742217814,442,1463845274648727934,,2.176227808,-0.686956167221,-167.456253052,0.0204579997808,1.0,0.0,0.0,0.0,1.0,0.0,0.0,0.0,1.0,-18.1707305908,0.0,-22.1341457367,1.0,0.0,0.0,0.0,1.0,0.0,0.0,0.0,1.0,0.450109912109,0.119710083008,11.659762085,1.0,0.0,0.0,0.0,1.0,0.0,0.0,0.0,1.0
1463845274743348770,443,1463845274669113370,,2.17296099663,-1.18206691742,-167.969116211,0.0203879997134,1.0,0.0,0.0,0.0,1.0,0.0,0.0,0.0,1.0,-22.0121955872,0.975609779358,-25.6097564697,1.0,0.0,0.0,0.0,1.0,0.0,0.0,0.0,1.0,0.15322890625,-0.172382519531,11.6214548584,1.0,0.0,0.0,0.0,1.0,0.0,0.0,0.0,1.0
1463845274743731988,444,1463845274689517243,,2.09542655945,-1.75786936283,-168.512451172,0.0203799996525,1.0,0.0,0.0,0.0,1.0,0.0,0.0,0.0,1.0,-26.3414649963,-2.86585378647,-27.1951236725,1.0,0.0,0.0,0.0,1.0,0.0,0.0,0.0,1.0,0.0574608398438,-0.191536132812,11.5735708252,1.0,0.0,0.0,0.0,1.0,0.0,0.0,0.0,1.0
1463845274744033437,445,1463845274709859921,,1.94862306118,-2.42839241028,-169.028701782,0.0203980002552,1.0,0.0,0.0,0.0,1.0,0.0,0.0,0.0,1.0,-31.5853652954,-3.04878044128,-25.9146347046,1.0,0.0,0.0,0.0,1.0,0.0,0.0,0.0,1.0,0.646434448242,-0.191536132812,10.9845972168,1.0,0.0,0.0,0.0,1.0,0.0,0.0,0.0,1.0
1463845274822806150,446,1463845274730311761,,1.85019016266,-3.15320277214,-169.469833374,0.0204240009189,1.0,0.0,0.0,0.0,1.0,0.0,0.0,0.0,1.0,-30.6097583771,0.548780500889,-21.9512195587,1.0,0.0,0.0,0.0,1.0,0.0,0.0,0.0,1.0,0.818816967773,-0.967257470703,10.0508585693,1.0,0.0,0.0,0.0,1.0,0.0,0.0,0.0,1.0
1463845274823239054,447,1463845274750859849,,1.82484602928,-3.79621315002,-169.876678467,0.0204029995948,1.0,0.0,0.0,0.0,1.0,0.0,0.0,0.0,1.0,-21.6463432312,3.41463422775,-19.9390239716,1.0,0.0,0.0,0.0,1.0,0.0,0.0,0.0,1.0,0.646434448242,-1.87705410156,9.31823227681,1.0,0.0,0.0,0.0,1.0,0.0,0.0,0.0,1.0
1463845274823535191,448,1463845274771379344,,1.84055650234,-4.14071035385,-170.253295898,0.0204089991748,1.0,0.0,0.0,0.0,1.0,0.0,0.0,0.0,1.0,-8.41463470459,4.81707286835,-18.3536586761,1.0,0.0,0.0,0.0,1.0,0.0,0.0,0.0,1.0,0.497993945312,-1.63284553223,8.70531723633,1.0,0.0,0.0,0.0,1.0,0.0,0.0,0.0,1.0
1463845274824725104,449,1463845274791987847,,1.78767752647,-4.20935678482,-170.57975769,0.0205329991877,1.0,0.0,0.0,0.0,1.0,0.0,0.0,0.0,1.0,1.2195122242,6.28048801422,-15.7926826477,1.0,0.0,0.0,0.0,1.0,0.0,0.0,0.0,1.0,1.13485158691,-0.972045874023,7.78594379883,1.0,0.0,0.0,0.0,1.0,0.0,0.0,0.0,1.0
1463845274883093215,450,1463845274812041262,,1.86054885387,-4.121778965,-170.885055542,0.020380999893,1.0,0.0,0.0,0.0,1.0,0.0,0.0,0.0,1.0,5.24390268326,9.39024448395,-14.7560987473,1.0,0.0,0.0,0.0,1.0,0.0,0.0,0.0,1.0,0.679953271484,-0.45489831543,7.40765993652,1.0,0.0,0.0,0.0,1.0,0.0,0.0,0.0,1.0
1463845274884230837,451,1463845274832363940,,1.95754742622,-3.99846148491,-171.204391479,0.0203070007265,1.0,0.0,0.0,0.0,1.0,0.0,0.0,0.0,1.0,6.7682929039,9.93902492523,-15.4878053665,1.0,0.0,0.0,0.0,1.0,0.0,0.0,0.0,1.0,0.584185168546,-0.407014282227,7.46033237305,1.0,0.0,0.0,0.0,1.0,0.0,0.0,0.0,1.0
1463845274884779727,452,1463845274852677920,,2.0163333416,-3.81331181526,-171.523101807,0.0204140003771,1.0,0.0,0.0,0.0,1.0,0.0,0.0,0.0,1.0,8.5365858078,11.8902444839,-15.3048791885,1.0,0.0,0.0,0.0,1.0,0.0,0.0,0.0,1.0,1.10612116699,-0.225054956055,7.52258161621,1.0,0.0,0.0,0.0,1.0,0.0,0.0,0.0,1.0
1463845274886074428,453,1463845274873198925,,2.13499355316,-3.64137625694,-171.828155518,0.0203910004348,1.0,0.0,0.0,0.0,1.0,0.0,0.0,0.0,1.0,9.02439117432,15.975610733,-14.3902444839,1.0,0.0,0.0,0.0,1.0,0.0,0.0,0.0,1.0,1.31681091309,-0.363918652344,7.79073220215,1.0,0.0,0.0,0.0,1.0,0.0,0.0,0.0,1.0
1463845274941683506,454,1463845274893473011,,2.37459182739,-3.44351220131,-172.080047607,0.0204210001975,1.0,0.0,0.0,0.0,1.0,0.0,0.0,0.0,1.0,8.41463470459,22.0121955872,-11.5243911743,1.0,0.0,0.0,0.0,1.0,0.0,0.0,0.0,1.0,1.40779057617,-0.0909796630859,8.14507404785,1.0,0.0,0.0,0.0,1.0,0.0,0.0,0.0,1.0
1463845274942915449,455,1463845274913990578,,2.76759290695,-3.25905227661,-172.210342407,0.0204179994762,1.0,0.0,0.0,0.0,1.0,0.0,0.0,0.0,1.0,3.96341490746,27.0731716156,-5.54878091812,1.0,0.0,0.0,0.0,1.0,0.0,0.0,0.0,1.0,1.16837033709,0.502782348633,8.94952580566,1.0,0.0,0.0,0.0,1.0,0.0,0.0,0.0,1.0
1463845274966703961,456,1463845274934429347,,3.19594359398,-3.26442623138,-172.269500732,0.0203900001943,1.0,0.0,0.0,0.0,1.0,0.0,0.0,0.0,1.0,-0.853658556938,29.5121974945,-1.8292683363,1.0,0.0,0.0,0.0,1.0,0.0,0.0,0.0,1.0,1.39342536621,-0.229843359375,9.98382092285,1.0,0.0,0.0,0.0,1.0,0.0,0.0,0.0,1.0
1463845274967003900,457,1463845274954910822,,3.7643301487,-3.2821290493,-172.319091797,0.0204199999571,1.0,0.0,0.0,0.0,1.0,0.0,0.0,0.0,1.0,-0.0609756112099,28.5975608826,-1.34146344662,1.0,0.0,0.0,0.0,1.0,0.0,0.0,0.0,1.0,-0.0622492431641,-0.493205541992,10.2328178955,1.0,0.0,0.0,0.0,1.0,0.0,0.0,0.0,1.0
1463845275005994617,458,1463845274975385578,,4.16715764999,-3.30057406425,-172.399353027,0.0203959997743,1.0,0.0,0.0,0.0,1.0,0.0,0.0,0.0,1.0,0.12195122242,19.4512195587,-3.35365867615,1.0,0.0,0.0,0.0,1.0,0.0,0.0,0.0,1.0,-0.397437475586,-0.545877978516,10.8744639404,1.0,0.0,0.0,0.0,1.0,0.0,0.0,0.0,1.0
1463845275006359293,459,1463845274995692892,,4.38462257385,-3.34175181389,-172.465423584,0.0204249992967,1.0,0.0,0.0,0.0,1.0,0.0,0.0,0.0,1.0,-0.487804889679,10.8536586761,-3.10975623131,1.0,0.0,0.0,0.0,1.0,0.0,0.0,0.0,1.0,-0.397437475586,-0.699106884766,11.6549736816,1.0,0.0,0.0,0.0,1.0,0.0,0.0,0.0,1.0
1463845275046499347,460,1463845275016044265,,4.43855762482,-3.36979579926,-172.502883911,0.0204070005566,1.0,0.0,0.0,0.0,1.0,0.0,0.0,0.0,1.0,0.0609756112099,2.62195134163,-2.19512200356,1.0,0.0,0.0,0.0,1.0,0.0,0.0,0.0,1.0,-0.493205541992,-0.737414111328,12.124237207,1.0,0.0,0.0,0.0,1.0,0.0,0.0,0.0,1.0
1463845275046860378,461,1463845275036462615,,4.36252880096,-3.41326284409,-172.462265015,0.0204009991139,1.0,0.0,0.0,0.0,1.0,0.0,0.0,0.0,1.0,-0.426829278469,-3.59756112099,1.2804877758,1.0,0.0,0.0,0.0,1.0,0.0,0.0,0.0,1.0,-0.430956298828,-0.876277807617,12.2870429199,1.0,0.0,0.0,0.0,1.0,0.0,0.0,0.0,1.0
1463845275081776265,462,1463845275056899246,,4.2056517601,-3.39402151108,-172.306015015,0.0204039998353,1.0,0.0,0.0,0.0,1.0,0.0,0.0,0.0,1.0,-0.18292683363,-5.91463422775,6.58536624908,1.0,0.0,0.0,0.0,1.0,0.0,0.0,0.0,1.0,0.0143652099609,-0.354341845703,12.1194488037,1.0,0.0,0.0,0.0,1.0,0.0,0.0,0.0,1.0
1463845275083686833,463,1463845275077280513,,4.07374429703,-3.40439248085,-172.066818237,0.0204230006784,1.0,0.0,0.0,0.0,1.0,0.0,0.0,0.0,1.0,-1.09756100178,-3.96341490746,10.7926826477,1.0,0.0,0.0,0.0,1.0,0.0,0.0,0.0,1.0,0.244208569336,-0.502782348633,11.6214548584,1.0,0.0,0.0,0.0,1.0,0.0,0.0,0.0,1.0
1463845275123021650,464,1463845275097697822,,4.00716352463,-3.41111516953,-171.792160034,0.0203980002552,1.0,0.0,0.0,0.0,1.0,0.0,0.0,0.0,1.0,2.62195134163,-1.8292683363,12.9268293381,1.0,0.0,0.0,0.0,1.0,0.0,0.0,0.0,1.0,0.076614453125,-1.22104284668,11.2766898193,1.0,0.0,0.0,0.0,1.0,0.0,0.0,0.0,1.0
1463845275123288517,465,1463845275118119869,,3.95947170258,-3.24279499054,-171.489135742,0.0204099994153,1.0,0.0,0.0,0.0,1.0,0.0,0.0,0.0,1.0,8.17073154449,-1.95121955872,14.0853662491,1.0,0.0,0.0,0.0,1.0,0.0,0.0,0.0,1.0,-0.105344873047,-0.593762048251,10.6302553711,1.0,0.0,0.0,0.0,1.0,0.0,0.0,0.0,1.0
1463845275163966941,466,1463845275138537803,,3.85583877563,-3.00785040855,-171.195999146,0.0204249992967,1.0,0.0,0.0,0.0,1.0,0.0,0.0,0.0,1.0,8.41463470459,-2.5,13.3536586761,1.0,0.0,0.0,0.0,1.0,0.0,0.0,0.0,1.0,0.272938989258,0.0143652099609,9.63426806499,1.0,0.0,0.0,0.0,1.0,0.0,0.0,0.0,1.0
1463845275164257192,467,1463845275158978756,,3.77230620384,-2.77644252777,-170.962783813,0.0204419996589,1.0,0.0,0.0,0.0,1.0,0.0,0.0,0.0,1.0,7.43902492523,-1.34146344662,10.4268293381,1.0,0.0,0.0,0.0,1.0,0.0,0.0,0.0,1.0,0.258573779297,0.205901342773,8.78193168945,1.0,0.0,0.0,0.0,1.0,0.0,0.0,0.0,1.0
1463845275203946114,468,1463845275179429240,,3.70489597321,-2.60790681839,-170.829071045,0.0203889999539,1.0,0.0,0.0,0.0,1.0,0.0,0.0,0.0,1.0,3.90243911743,-1.46341466904,5.54878091812,1.0,0.0,0.0,0.0,1.0,0.0,0.0,0.0,1.0,0.0861912597656,0.349553442383,8.33182119282,1.0,0.0,0.0,0.0,1.0,0.0,0.0,0.0,1.0
1463845275204232407,469,1463845275199747124,,3.57272791862,-2.58731079102,-170.785247803,0.0203680004925,1.0,0.0,0.0,0.0,1.0,0.0,0.0,0.0,1.0,3.04878044128,-2.5,1.52439022064,1.0,0.0,0.0,0.0,1.0,0.0,0.0,0.0,1.0,0.368707055664,-0.507570751953,7.99663354492,1.0,0.0,0.0,0.0,1.0,0.0,0.0,0.0,1.0
1463845275245600498,470,1463845275220236930,,3.46404457092,-2.62743353844,-170.722229004,0.0204169992357,1.0,0.0,0.0,0.0,1.0,0.0,0.0,0.0,1.0,-5.36585378647,-3.29268312454,2.07317066193,1.0,0.0,0.0,0.0,1.0,0.0,0.0,0.0,1.0,0.105344873047,0.239420166016,7.42202514648,1.0,0.0,0.0,0.0,1.0,0.0,0.0,0.0,1.0
1463845275246044130,471,1463845275240682884,,3.36929440498,-2.90776395798,-170.661621094,0.0204099994153,1.0,0.0,0.0,0.0,1.0,0.0,0.0,0.0,1.0,-9.93902492523,-2.31707310677,2.43902444839,1.0,0.0,0.0,0.0,1.0,0.0,0.0,0.0,1.0,0.15801730957,-0.699106884766,7.2831614502,1.0,0.0,0.0,0.0,1.0,0.0,0.0,0.0,1.0
1463845275266294152,472,1463845275261010038,,3.31692552567,-3.23956012726,-170.6043396,0.0204259995371,1.0,0.0,0.0,0.0,1.0,0.0,0.0,0.0,1.0,-9.81707286835,0.243902444839,2.56097555161,1.0,0.0,0.0,0.0,1.0,0.0,0.0,0.0,1.0,0.244208569336,-1.10612116699,7.46512077637,1.0,0.0,0.0,0.0,1.0,0.0,0.0,0.0,1.0
1463845275317264768,473,1463845275281490157,,3.31355786324,-3.51207113266,-170.567382812,0.0203930009156,1.0,0.0,0.0,0.0,1.0,0.0,0.0,0.0,1.0,-9.51219558716,3.90243911743,1.64634156227,1.0,0.0,0.0,0.0,1.0,0.0,0.0,0.0,1.0,0.402225878906,-0.780509741211,7.32146867676,1.0,0.0,0.0,0.0,1.0,0.0,0.0,0.0,1.0
1463845275317679600,474,1463845275301903351,,3.39829468727,-3.84182739258,-170.60395813,0.0204269997776,1.0,0.0,0.0,0.0,1.0,0.0,0.0,0.0,1.0,-11.5853662491,5.48780488968,-1.76829278469,1.0,0.0,0.0,0.0,1.0,0.0,0.0,0.0,1.0,0.0191536132812,-0.900219824219,7.47948598633,1.0,0.0,0.0,0.0,1.0,0.0,0.0,0.0,1.0
1463845275326131275,475,1463845275322072125,,3.48376369476,-4.1743850708,-170.70489502,0.0203709993511,1.0,0.0,0.0,0.0,1.0,0.0,0.0,0.0,1.0,-13.7195129395,7.19512224197,-4.87804889679,1.0,0.0,0.0,0.0,1.0,0.0,0.0,0.0,1.0,0.201112939453,-0.670376464844,7.62792648926,1.0,0.0,0.0,0.0,1.0,0.0,0.0,0.0,1.0
1463845275399322896,476,1463845275342502454,,3.59642505646,-4.5277428627,-170.867538452,0.0204099994153,1.0,0.0,0.0,0.0,1.0,0.0,0.0,0.0,1.0,-16.9512195587,9.39024448395,-7.80487823486,1.0,0.0,0.0,0.0,1.0,0.0,0.0,0.0,1.0,0.277727392578,-0.392649072266,7.78594379883,1.0,0.0,0.0,0.0,1.0,0.0,0.0,0.0,1.0
1463845275400137351,477,1463845275362958667,,3.78545951843,-5.01415491104,-171.128097534,0.0204179994762,1.0,0.0,0.0,0.0,1.0,0.0,0.0,0.0,1.0,-20.975610733,10.548781395,-12.2560977936,1.0,0.0,0.0,0.0,1.0,0.0,0.0,0.0,1.0,-0.15801730957,-0.756567724609,7.95353791504,1.0,0.0,0.0,0.0,1.0,0.0,0.0,0.0,1.0
1463845275400294377,478,1463845275383302748,,3.9288725853,-5.58143186569,-171.503845215,0.0204029995948,1.0,0.0,0.0,0.0,1.0,0.0,0.0,0.0,1.0,-22.2560977936,9.26829242706,-17.7439022064,1.0,0.0,0.0,0.0,1.0,0.0,0.0,0.0,1.0,-0.143652099609,-1.19710090314,8.26478413086,1.0,0.0,0.0,0.0,1.0,0.0,0.0,0.0,1.0
1463845275419164440,479,1463845275403760628,,4.03339958191,-6.15986728668,-171.976470947,0.020422000438,1.0,0.0,0.0,0.0,1.0,0.0,0.0,0.0,1.0,-23.5365848541,6.09756088257,-22.7439041138,1.0,0.0,0.0,0.0,1.0,0.0,0.0,0.0,1.0,-0.488417138672,-1.20667770978,8.9591026123,1.0,0.0,0.0,0.0,1.0,0.0,0.0,0.0,1.0
1463845275427051184,480,1463845275424325953,,4.01093626022,-6.77370262146,-172.521575928,0.0203970000148,1.0,0.0,0.0,0.0,1.0,0.0,0.0,0.0,1.0,-26.7073173523,2.13414645195,-26.8292694092,1.0,0.0,0.0,0.0,1.0,0.0,0.0,0.0,1.0,-0.263362164351,-1.08217922346,9.40442353657,1.0,0.0,0.0,0.0,1.0,0.0,0.0,0.0,1.0
1463845275445899581,481,1463845275444643108,,3.97981595993,-7.52425384521,-173.146957397,0.0204089991748,1.0,0.0,0.0,0.0,1.0,0.0,0.0,0.0,1.0,-28.9634151459,-0.853658556938,-30.7926845551,1.0,0.0,0.0,0.0,1.0,0.0,0.0,0.0,1.0,-0.847547387695,-1.93930334473,9.59117243511,1.0,0.0,0.0,0.0,1.0,0.0,0.0,0.0,1.0
1463845275477119953,482,1463845275464985366,,3.79536938667,-8.27858448029,-173.836959839,0.0204130001366,1.0,0.0,0.0,0.0,1.0,0.0,0.0,0.0,1.0,-27.1951236725,-8.10975551605,-34.8780479431,1.0,0.0,0.0,0.0,1.0,0.0,0.0,0.0,1.0,-1.02471831055,-2.55700737305,10.2471831055,1.0,0.0,0.0,0.0,1.0,0.0,0.0,0.0,1.0
1463845275489595570,483,1463845275485417049,,3.42081785202,-8.96326255798,-174.528045654,0.0203990004957,1.0,0.0,0.0,0.0,1.0,0.0,0.0,0.0,1.0,-25.182926178,-14.2682924271,-36.1585350037,1.0,0.0,0.0,0.0,1.0,0.0,0.0,0.0,1.0,-0.526724328702,-2.60489140625,10.8457335205,1.0,0.0,0.0,0.0,1.0,0.0,0.0,0.0,1.0
1463845275513723237,484,1463845275505780557,,3.02910876274,-9.60237407684,-175.194488525,0.0204150006175,1.0,0.0,0.0,0.0,1.0,0.0,0.0,0.0,1.0,-23.7195129395,-15.6707315445,-35.4268302917,1.0,0.0,0.0,0.0,1.0,0.0,0.0,0.0,1.0,-0.641646044922,-2.74854350586,11.286266626,1.0,0.0,0.0,0.0,1.0,0.0,0.0,0.0,1.0
1463845275528346291,485,1463845275527051121,,2.59858441353,-10.2274560928,-175.873275757,0.0212260000408,1.0,0.0,0.0,0.0,1.0,0.0,0.0,0.0,1.0,-22.0121955872,-14.8780498505,-34.8780479431,1.0,0.0,0.0,0.0,1.0,0.0,0.0,0.0,1.0,-0.234631762695,-2.95923325195,11.4921679687,1.0,0.0,0.0,0.0,1.0,0.0,0.0,0.0,1.0
1463845275617996848,486,1463845275546606528,,2.21512532234,-10.7081623077,-176.531921387,0.0195860005915,1.0,0.0,0.0,0.0,1.0,0.0,0.0,0.0,1.0,-19.817073822,-14.5731706619,-36.8292694092,1.0,0.0,0.0,0.0,1.0,0.0,0.0,0.0,1.0,-0.363918652344,-2.5234885498,11.405976709,1.0,0.0,0.0,0.0,1.0,0.0,0.0,0.0,1.0
1463845275618514593,487,1463845275567043940,,1.77277040482,-11.2023763657,-177.278625488,0.0204050000757,1.0,0.0,0.0,0.0,1.0,0.0,0.0,0.0,1.0,-22.6219520569,-15.4268302917,-40.3048782349,1.0,0.0,0.0,0.0,1.0,0.0,0.0,0.0,1.0,-0.210689746094,-1.92972653809,11.01811604,1.0,0.0,0.0,0.0,1.0,0.0,0.0,0.0,1.0
1463845275618570373,488,1463845275587528069,,1.28432297707,-11.8244628906,-178.086257935,0.020447999239,1.0,0.0,0.0,0.0,1.0,0.0,0.0,0.0,1.0,-23.2317085266,-16.7073173523,-43.5365867615,1.0,0.0,0.0,0.0,1.0,0.0,0.0,0.0,1.0,-0.138863696289,-3.31836350098,11.3341506592,1.0,0.0,0.0,0.0,1.0,0.0,0.0,0.0,1.0
1463845275618914790,489,1463845275607898712,,0.771370887756,-12.3045635223,-178.911819458,0.0203850008547,1.0,0.0,0.0,0.0,1.0,0.0,0.0,0.0,1.0,-16.9512195587,-15.7317075729,-44.6341438293,1.0,0.0,0.0,0.0,1.0,0.0,0.0,0.0,1.0,0.31124621582,-3.50511123047,11.7028577148,1.0,0.0,0.0,0.0,1.0,0.0,0.0,0.0,1.0
1463845275661553675,490,1463845275628290239,,0.399490326643,-12.655163765,-179.736053467,0.0204009991139,1.0,0.0,0.0,0.0,1.0,0.0,0.0,0.0,1.0,-13.7804880142,-11.2195119858,-43.7804870605,1.0,0.0,0.0,0.0,1.0,0.0,0.0,0.0,1.0,-0.138863696289,-2.79642753906,11.0276928467,1.0,0.0,0.0,0.0,1.0,0.0,0.0,0.0,1.0
1463845275661747888,491,1463845275648741401,,0.018819719553,-12.9803886414,179.442337036,0.0204169992357,1.0,0.0,0.0,0.0,1.0,0.0,0.0,0.0,1.0,-15.4878053665,-12.3780488968,-44.0243911743,1.0,0.0,0.0,0.0,1.0,0.0,0.0,0.0,1.0,-0.248996972656,-2.18830031738,10.4243540283,1.0,0.0,0.0,0.0,1.0,0.0,0.0,0.0,1.0
1463845275728462931,492,1463845275669169542,,-0.322722643614,-13.3673677444,178.590866089,0.0204450003803,1.0,0.0,0.0,0.0,1.0,0.0,0.0,0.0,1.0,-17.8658542633,-9.39024448395,-44.8780479431,1.0,0.0,0.0,0.0,1.0,0.0,0.0,0.0,1.0,-0.076614453125,-2.32237546422,10.0029745361,1.0,0.0,0.0,0.0,1.0,0.0,0.0,0.0,1.0
1463845275728790943,493,1463845275689481906,,-0.654496312141,-13.7510786057,177.674972534,0.0203590001911,1.0,0.0,0.0,0.0,1.0,0.0,0.0,0.0,1.0,-18.0487823486,-4.57317066193,-47.2560958862,1.0,0.0,0.0,0.0,1.0,0.0,0.0,0.0,1.0,0.569819995117,-2.24097275391,9.35653950337,1.0,0.0,0.0,0.0,1.0,0.0,0.0,0.0,1.0
1463845275744763852,494,1463845275709912286,,-0.837047457695,-14.1594781876,176.615341187,0.0204179994762,1.0,0.0,0.0,0.0,1.0,0.0,0.0,0.0,1.0,-17.1951217651,5.97560977936,-51.8292694092,1.0,0.0,0.0,0.0,1.0,0.0,0.0,0.0,1.0,0.790086547852,-2.42293208008,8.34618640278,1.0,0.0,0.0,0.0,1.0,0.0,0.0,0.0,1.0
1463845275745969441,495,1463845275730402769,,-0.810245096684,-14.5658025742,175.398345947,0.0204290002584,1.0,0.0,0.0,0.0,1.0,0.0,0.0,0.0,1.0,-13.2926826477,13.7195129395,-57.8048820496,1.0,0.0,0.0,0.0,1.0,0.0,0.0,0.0,1.0,0.110133276367,-3.13161577148,8.3270327895,1.0,0.0,0.0,0.0,1.0,0.0,0.0,0.0,1.0
1463845275774328127,496,1463845275750662947,,-0.720927417278,-14.7540903091,174.071380615,0.0203660000116,1.0,0.0,0.0,0.0,1.0,0.0,0.0,0.0,1.0,-8.17073154449,15.4878053665,-62.9878044128,1.0,0.0,0.0,0.0,1.0,0.0,0.0,0.0,1.0,-0.383072265625,-2.4995465332,9.05008227539,1.0,0.0,0.0,0.0,1.0,0.0,0.0,0.0,1.0
1463845275774899933,497,1463845275770943593,,-0.656326174736,-14.8492259979,172.662796021,0.0204089991748,1.0,0.0,0.0,0.0,1.0,0.0,0.0,0.0,1.0,-10.9756097794,20.6707324982,-65.4878082275,1.0,0.0,0.0,0.0,1.0,0.0,0.0,0.0,1.0,0.478840332031,-1.26413847656,8.88248815918,1.0,0.0,0.0,0.0,1.0,0.0,0.0,0.0,1.0
1463845275798132470,498,1463845275791652142,,-0.389456748962,-15.0645227432,171.138366699,0.0204290002584,1.0,0.0,0.0,0.0,1.0,0.0,0.0,0.0,1.0,-17.5609760284,28.475610733,-69.1463470459,1.0,0.0,0.0,0.0,1.0,0.0,0.0,0.0,1.0,-0.0814028564453,-1.09175595703,8.48505126812,1.0,0.0,0.0,0.0,1.0,0.0,0.0,0.0,1.0
1463845275816225264,499,1463845275812017004,,-0.111071646214,-15.4583234787,169.548980713,0.0204029995948,1.0,0.0,0.0,0.0,1.0,0.0,0.0,0.0,1.0,-22.9878044128,28.5365848541,-72.5,1.0,0.0,0.0,0.0,1.0,0.0,0.0,0.0,1.0,-0.397437475586,-1.58974990234,8.49941647808,1.0,0.0,0.0,0.0,1.0,0.0,0.0,0.0,1.0
1463845275837772695,500,1463845275832372804,,0.0876168459654,-15.9256772995,167.919754028,0.0203980002552,1.0,0.0,0.0,0.0,1.0,0.0,0.0,0.0,1.0,-26.8902454376,27.1341457367,-74.8780441284,1.0,0.0,0.0,0.0,1.0,0.0,0.0,0.0,1.0,-0.248996972656,-1.63763393555,8.94473740234,1.0,0.0,0.0,0.0,1.0,0.0,0.0,0.0,1.0
1463845275869258007,501,1463845275854790990,,0.324919819832,-16.5151233673,166.127227783,0.0225820001215,1.0,0.0,0.0,0.0,1.0,0.0,0.0,0.0,1.0,-34.0243911743,27.5,-74.2073135376,1.0,0.0,0.0,0.0,1.0,0.0,0.0,0.0,1.0,-0.440533105469,-1.04387185076,9.14106193848,1.0,0.0,0.0,0.0,1.0,0.0,0.0,0.0,1.0
1463845275878542001,502,1463845275873229399,,0.468973278999,-17.1188983917,164.709884644,0.018261000514,1.0,0.0,0.0,0.0,1.0,0.0,0.0,0.0,1.0,-41.9512214661,28.8414649963,-71.9512176514,1.0,0.0,0.0,0.0,1.0,0.0,0.0,0.0,1.0,0.134075302102,-0.981622680664,9.56723041851,1.0,0.0,0.0,0.0,1.0,0.0,0.0,0.0,1.0
1463845275895023072,503,1463845275893612125,,0.76695561409,-17.9649791718,163.180740356,0.0203879997134,1.0,0.0,0.0,0.0,1.0,0.0,0.0,0.0,1.0,-49.634147644,35.5487823486,-67.0121994019,1.0,0.0,0.0,0.0,1.0,0.0,0.0,0.0,1.0,0.143652099609,-1.20188930646,9.8305920166,1.0,0.0,0.0,0.0,1.0,0.0,0.0,0.0,1.0
1463845275921153544,504,1463845275913974018,,1.11209917068,-18.9772148132,161.674423218,0.0203959997743,1.0,0.0,0.0,0.0,1.0,0.0,0.0,0.0,1.0,-53.4756126404,39.9390258789,-64.0853729248,1.0,0.0,0.0,0.0,1.0,0.0,0.0,0.0,1.0,0.383072265625,-2.12605122035,10.1753570557,1.0,0.0,0.0,0.0,1.0,0.0,0.0,0.0,1.0
1463845275938022468,505,1463845275934383722,,1.5537135601,-20.0249462128,160.253173828,0.020408000797,1.0,0.0,0.0,0.0,1.0,0.0,0.0,0.0,1.0,-53.9024391174,43.4146347046,-58.0487823486,1.0,0.0,0.0,0.0,1.0,0.0,0.0,0.0,1.0,0.196324536133,-2.65756384277,10.8936175537,1.0,0.0,0.0,0.0,1.0,0.0,0.0,0.0,1.0
1463845275960236233,506,1463845275954855248,,2.11701822281,-21.0291919708,158.895645142,0.0204089991748,1.0,0.0,0.0,0.0,1.0,0.0,0.0,0.0,1.0,-54.634147644,46.8292694092,-53.1097602844,1.0,0.0,0.0,0.0,1.0,0.0,0.0,0.0,1.0,-0.349553442383,-2.26970317383,11.3389390625,1.0,0.0,0.0,0.0,1.0,0.0,0.0,0.0,1.0
1463845275979366236,507,1463845275975217505,,2.64595675468,-22.0903320312,157.613479614,0.0204300004989,1.0,0.0,0.0,0.0,1.0,0.0,0.0,0.0,1.0,-58.1097564697,42.8658561707,-50.2439041138,1.0,0.0,0.0,0.0,1.0,0.0,0.0,0.0,1.0,-0.91458503418,-2.26491477051,11.5975128418,1.0,0.0,0.0,0.0,1.0,0.0,0.0,0.0,1.0
1463845275999392410,508,1463845275995586378,,3.06144571304,-23.2188072205,156.394195557,0.0203970000148,1.0,0.0,0.0,0.0,1.0,0.0,0.0,0.0,1.0,-59.6951255798,38.9024391174,-48.2317085266,1.0,0.0,0.0,0.0,1.0,0.0,0.0,0.0,1.0,-0.76614453125,-2.94007963867,12.1577560303,1.0,0.0,0.0,0.0,1.0,0.0,0.0,0.0,1.0
1463845276019838153,509,1463845276016103264,,3.42680835724,-24.3285503387,155.221328735,0.0204509999603,1.0,0.0,0.0,0.0,1.0,0.0,0.0,0.0,1.0,-55.8536605835,34.0853691101,-47.1951255798,1.0,0.0,0.0,0.0,1.0,0.0,0.0,0.0,1.0,-1.47961662598,-3.78283862305,12.1721212402,1.0,0.0,0.0,0.0,1.0,0.0,0.0,0.0,1.0
1463845276039288977,510,1463845276036537028,,3.60225629807,-25.2902412415,154.162948608,0.0204600002617,1.0,0.0,0.0,0.0,1.0,0.0,0.0,0.0,1.0,-49.0853652954,25.9146347046,-44.6341438293,1.0,0.0,0.0,0.0,1.0,0.0,0.0,0.0,1.0,-1.17794714373,-4.12281525879,12.7132108154,1.0,0.0,0.0,0.0,1.0,0.0,0.0,0.0,1.0
1463845276063750381,511,1463845276056860119,,3.65976285934,-26.0818881989,153.238998413,0.0203089993447,1.0,0.0,0.0,0.0,1.0,0.0,0.0,0.0,1.0,-39.5731735229,18.1707305908,-41.2804908752,1.0,0.0,0.0,0.0,1.0,0.0,0.0,0.0,1.0,-1.41257897949,-4.93205541992,13.0244570312,1.0,0.0,0.0,0.0,1.0,0.0,0.0,0.0,1.0
1463845276083084699,512,1463845276077302268,,3.67707872391,-26.6157855988,152.439987183,0.020483000204,1.0,0.0,0.0,0.0,1.0,0.0,0.0,0.0,1.0,-25.6097564697,15.6707315445,-35.2439041138,1.0,0.0,0.0,0.0,1.0,0.0,0.0,0.0,1.0,-0.972045874023,-5.53060583496,13.0292454346,1.0,0.0,0.0,0.0,1.0,0.0,0.0,0.0,1.0
1463845276117776318,513,1463845276097650513,,3.63355231285,-26.9490203857,151.734344482,0.020325999707,1.0,0.0,0.0,0.0,1.0,0.0,0.0,0.0,1.0,-15.3658533096,13.1097564697,-31.7073192596,1.0,0.0,0.0,0.0,1.0,0.0,0.0,0.0,1.0,-0.45968671875,-5.65989272461,12.4737906494,1.0,0.0,0.0,0.0,1.0,0.0,0.0,0.0,1.0
1463845276136081708,514,1463845276118070423,,3.72305631638,-26.9304771423,151.122711182,0.0204230006784,1.0,0.0,0.0,0.0,1.0,0.0,0.0,0.0,1.0,-5.24390268326,15.6097564697,-25.6097564697,1.0,0.0,0.0,0.0,1.0,0.0,0.0,0.0,1.0,-0.780509741211,-3.90733710937,12.24394729,1.0,0.0,0.0,0.0,1.0,0.0,0.0,0.0,1.0
1463845276145610641,515,1463845276138505385,,3.8349032402,-26.7887058258,150.551422119,0.0204099994153,1.0,0.0,0.0,0.0,1.0,0.0,0.0,0.0,1.0,0.304878056049,13.5975618362,-24.5121955872,1.0,0.0,0.0,0.0,1.0,0.0,0.0,0.0,1.0,-1.24498486328,-3.54341845703,11.4347071289,1.0,0.0,0.0,0.0,1.0,0.0,0.0,0.0,1.0
1463845276168569278,516,1463845276158810090,,3.80855226517,-26.5835361481,150.047637939,0.0203970000148,1.0,0.0,0.0,0.0,1.0,0.0,0.0,0.0,1.0,5.67073154449,3.04878044128,-26.0365848541,1.0,0.0,0.0,0.0,1.0,0.0,0.0,0.0,1.0,-1.87226569824,-3.80199223633,10.7116582275,1.0,0.0,0.0,0.0,1.0,0.0,0.0,0.0,1.0
1463845276219037664,517,1463845276179234844,,3.55777239799,-26.2597122192,149.690765381,0.0204109996557,1.0,0.0,0.0,0.0,1.0,0.0,0.0,0.0,1.0,13.7804880142,-8.10975551605,-23.3536586761,1.0,0.0,0.0,0.0,1.0,0.0,0.0,0.0,1.0,-1.38863696289,-4.29519807058,10.4866032715,1.0,0.0,0.0,0.0,1.0,0.0,0.0,0.0,1.0
1463845276219456298,518,1463845276205975815,,3.24305796623,-25.7813110352,149.466094971,0.0204179994762,1.0,0.0,0.0,0.0,1.0,0.0,0.0,0.0,1.0,24.0243911743,-9.69512176514,-16.5853652954,1.0,0.0,0.0,0.0,1.0,0.0,0.0,0.0,1.0,-0.359130249023,-4.63517441406,9.86411083984,1.0,0.0,0.0,0.0,1.0,0.0,0.0,0.0,1.0
1463845276245093916,519,1463845276219985084,,3.04958486557,-25.0518932343,149.283279419,0.0203970000148,1.0,0.0,0.0,0.0,1.0,0.0,0.0,0.0,1.0,36.2804908752,-0.548780500889,-9.75609779358,1.0,0.0,0.0,0.0,1.0,0.0,0.0,0.0,1.0,0.694318481445,-4.29040966726,9.29907866352,1.0,0.0,0.0,0.0,1.0,0.0,0.0,0.0,1.0
1463845276245487134,520,1463845276240412858,,3.19900393486,-24.1343841553,149.128204346,0.0204029995948,1.0,0.0,0.0,0.0,1.0,0.0,0.0,0.0,1.0,44.1463432312,13.7804880142,-1.70731711388,1.0,0.0,0.0,0.0,1.0,0.0,0.0,0.0,1.0,0.61770402832,-3.6296097168,8.65743378765,1.0,0.0,0.0,0.0,1.0,0.0,0.0,0.0,1.0
1463845276269336837,521,1463845276260914277,,3.57852983475,-23.0501155853,148.965911865,0.0204089991748,1.0,0.0,0.0,0.0,1.0,0.0,0.0,0.0,1.0,47.8658561707,27.7439041138,3.53658556938,1.0,0.0,0.0,0.0,1.0,0.0,0.0,0.0,1.0,1.13485158691,-2.56658417969,8.28872556294,1.0,0.0,0.0,0.0,1.0,0.0,0.0,0.0,1.0
1463845276286117481,522,1463845276281730060,,4.25395298004,-21.9451522827,148.760925293,0.0204109996557,1.0,0.0,0.0,0.0,1.0,0.0,0.0,0.0,1.0,46.7073173523,38.7195129395,5.0,1.0,0.0,0.0,0.0,1.0,0.0,0.0,0.0,1.0,0.450109912109,-1.8148048584,7.44117875977,1.0,0.0,0.0,0.0,1.0,0.0,0.0,0.0,1.0
1463845276312682155,523,1463845276303021038,,5.09539175034,-20.8788013458,148.50189209,0.0204000007361,1.0,0.0,0.0,0.0,1.0,0.0,0.0,0.0,1.0,38.9024391174,39.5731735229,0.975609779358,1.0,0.0,0.0,0.0,1.0,0.0,0.0,0.0,1.0,-0.91458503418,-0.91458503418,8.70531723633,1.0,0.0,0.0,0.0,1.0,0.0,0.0,0.0,1.0
1463845276336905285,524,1463845276327516347,,5.69511461258,-19.9116001129,148.244064331,0.0208039991558,1.0,0.0,0.0,0.0,1.0,0.0,0.0,0.0,1.0,36.0365867615,30.4268321991,-2.80487799644,1.0,0.0,0.0,0.0,1.0,0.0,0.0,0.0,1.0,-0.474051928711,-0.9193734375,6.65109221191,1.0,0.0,0.0,0.0,1.0,0.0,0.0,0.0,1.0
1463845276350475192,525,1463845276347919279,,6.04888343811,-19.2143783569,147.934555054,0.020088000223,1.0,0.0,0.0,0.0,1.0,0.0,0.0,0.0,1.0,27.317073822,30.0609760284,-6.34146356583,1.0,0.0,0.0,0.0,1.0,0.0,0.0,0.0,1.0,0.699106884766,-1.24019645996,7.31668027344,1.0,0.0,0.0,0.0,1.0,0.0,0.0,0.0,1.0
1463845276376760031,526,1463845276366913190,,6.71159648895,-18.6484336853,147.504013062,0.022539999336,1.0,0.0,0.0,0.0,1.0,0.0,0.0,0.0,1.0,22.4390239716,38.4756126404,-7.25609779358,1.0,0.0,0.0,0.0,1.0,0.0,0.0,0.0,1.0,0.134075302102,-1.93930334473,8.23126530762,1.0,0.0,0.0,0.0,1.0,0.0,0.0,0.0,1.0
1463845276387006235,527,1463845276384075958,,7.27536964417,-18.2332572937,147.112792969,0.018946999684,1.0,0.0,0.0,0.0,1.0,0.0,0.0,0.0,1.0,21.0975627899,33.7804870605,-10.6707315445,1.0,0.0,0.0,0.0,1.0,0.0,0.0,0.0,1.0,-0.895431420898,-2.24576115723,8.90164177246,1.0,0.0,0.0,0.0,1.0,0.0,0.0,0.0,1.0
1463845276416482905,528,1463845276407576818,,7.62000226974,-17.8585395813,146.688842773,0.0204099994153,1.0,0.0,0.0,0.0,1.0,0.0,0.0,0.0,1.0,17.6219520569,25.4268302917,-13.7804880142,1.0,0.0,0.0,0.0,1.0,0.0,0.0,0.0,1.0,-0.359130249023,-2.46123930664,10.1322614258,1.0,0.0,0.0,0.0,1.0,0.0,0.0,0.0,1.0
1463845276425996683,529,1463845276424312671,,7.89548635483,-17.5512866974,146.242965698,0.0196649990976,1.0,0.0,0.0,0.0,1.0,0.0,0.0,0.0,1.0,17.2560977936,22.8048782349,-16.4634151459,1.0,0.0,0.0,0.0,1.0,0.0,0.0,0.0,1.0,-0.507570751953,-2.89698400879,10.5775829346,1.0,0.0,0.0,0.0,1.0,0.0,0.0,0.0,1.0
1463845276460914233,530,1463845276444666802,,8.02180480957,-17.2278118134,145.724334717,0.0204719994217,1.0,0.0,0.0,0.0,1.0,0.0,0.0,0.0,1.0,18.658536911,10.8536586761,-22.9878044128,1.0,0.0,0.0,0.0,1.0,0.0,0.0,0.0,1.0,-1.62805712891,-3.00711728516,10.6398321777,1.0,0.0,0.0,0.0,1.0,0.0,0.0,0.0,1.0
1463845276474687727,531,1463845276464953383,,7.76391363144,-16.8819732666,145.13168335,0.0203489996493,1.0,0.0,0.0,0.0,1.0,0.0,0.0,0.0,1.0,19.8780498505,-5.0,-31.8902454376,1.0,0.0,0.0,0.0,1.0,0.0,0.0,0.0,1.0,-1.43173259277,-2.90656081543,10.8648871338,1.0,0.0,0.0,0.0,1.0,0.0,0.0,0.0,1.0
1463845276489747746,532,1463845276485562819,,7.21960306168,-16.5293426514,144.471801758,0.0204130001366,1.0,0.0,0.0,0.0,1.0,0.0,0.0,0.0,1.0,19.0243911743,-14.0853662491,-38.0487823486,1.0,0.0,0.0,0.0,1.0,0.0,0.0,0.0,1.0,-0.675164868164,-2.73896669922,11.6214548584,1.0,0.0,0.0,0.0,1.0,0.0,0.0,0.0,1.0
1463845276509531321,533,1463845276506506463,,6.57323217392,-16.2013473511,143.757751465,0.0210570003837,1.0,0.0,0.0,0.0,1.0,0.0,0.0,0.0,1.0,18.2317085266,-20.1829280853,-41.2195129395,1.0,0.0,0.0,0.0,1.0,0.0,0.0,0.0,1.0,-1.11569797363,-2.93529123535,11.7938373779,1.0,0.0,0.0,0.0,1.0,0.0,0.0,0.0,1.0
1463845276540708097,534,1463845276527554427,,5.87094306946,-15.9079236984,143.023239136,0.0197640005499,1.0,0.0,0.0,0.0,1.0,0.0,0.0,0.0,1.0,18.9634151459,-23.658536911,-45.2439041138,1.0,0.0,0.0,0.0,1.0,0.0,0.0,0.0,1.0,-0.871489404297,-3.24653745117,11.9566430908,1.0,0.0,0.0,0.0,1.0,0.0,0.0,0.0,1.0
1463845276554463206,535,1463845276546641096,,5.06356287003,-15.6675453186,142.170761108,0.0204150006175,1.0,0.0,0.0,0.0,1.0,0.0,0.0,0.0,1.0,19.5121955872,-26.2195129395,-50.182926178,1.0,0.0,0.0,0.0,1.0,0.0,0.0,0.0,1.0,-0.718260498047,-4.48194550781,13.2926076172,1.0,0.0,0.0,0.0,1.0,0.0,0.0,0.0,1.0
1463845276572522458,536,1463845276567550835,,4.21221208572,-15.2373666763,141.368408203,0.0203959997743,1.0,0.0,0.0,0.0,1.0,0.0,0.0,0.0,1.0,31.158536911,-31.8292694092,-48.8414649963,1.0,0.0,0.0,0.0,1.0,0.0,0.0,0.0,1.0,-1.27850368652,-5.67904633789,14.3556331543,1.0,0.0,0.0,0.0,1.0,0.0,0.0,0.0,1.0
1463845276594102021,537,1463845276587562268,,3.32974100113,-14.4338922501,140.603439331,0.0205749999732,1.0,0.0,0.0,0.0,1.0,0.0,0.0,0.0,1.0,42.0731697083,-31.4024391174,-46.6463432312,1.0,0.0,0.0,0.0,1.0,0.0,0.0,0.0,1.0,-0.344765039063,-3.76368500977,14.3412679443,1.0,0.0,0.0,0.0,1.0,0.0,0.0,0.0,1.0
1463845276610161905,538,1463845276608101185,,2.63451123238,-13.5975341797,139.779708862,0.0205029994249,1.0,0.0,0.0,0.0,1.0,0.0,0.0,0.0,1.0,33.5365867615,-20.7926826477,-47.0731697083,1.0,0.0,0.0,0.0,1.0,0.0,0.0,0.0,1.0,0.301669427446,-0.833182177734,12.6078659424,1.0,0.0,0.0,0.0,1.0,0.0,0.0,0.0,1.0
1463845276633450479,539,1463845276628276103,,2.22674250603,-13.1166753769,138.812789917,0.0201549995691,1.0,0.0,0.0,0.0,1.0,0.0,0.0,0.0,1.0,18.9634151459,-8.84146404266,-51.6463432312,1.0,0.0,0.0,0.0,1.0,0.0,0.0,0.0,1.0,-0.129286889648,-1.08217922346,11.3485158691,1.0,0.0,0.0,0.0,1.0,0.0,0.0,0.0,1.0
1463845276655268993,540,1463845276649316151,,1.87880814075,-12.8735809326,137.641891479,0.0210720002651,1.0,0.0,0.0,0.0,1.0,0.0,0.0,0.0,1.0,14.2073173523,-5.54878091812,-58.1707344055,1.0,0.0,0.0,0.0,1.0,0.0,0.0,0.0,1.0,-0.387860668945,-2.48518132324,11.03248125,1.0,0.0,0.0,0.0,1.0,0.0,0.0,0.0,1.0
1463845276671902663,541,1463845276669122017,,1.6275960207,-12.66705513,136.521865845,0.0197330005467,1.0,0.0,0.0,0.0,1.0,0.0,0.0,0.0,1.0,15.0000009537,0.548780500889,-57.8658561707,1.0,0.0,0.0,0.0,1.0,0.0,0.0,0.0,1.0,0.167594116211,-2.81558115234,10.8170031006,1.0,0.0,0.0,0.0,1.0,0.0,0.0,0.0,1.0
1463845276696680776,542,1463845276689461773,,1.59229981899,-12.4515590668,135.364074707,0.0204470008612,1.0,0.0,0.0,0.0,1.0,0.0,0.0,0.0,1.0,13.4146347046,10.1219511032,-55.6097564697,1.0,0.0,0.0,0.0,1.0,0.0,0.0,0.0,1.0,0.0239420166016,-2.32716386754,10.1992990723,1.0,0.0,0.0,0.0,1.0,0.0,0.0,0.0,1.0
1463845276712585717,543,1463845276711274454,,1.80084967613,-12.2829084396,134.276535034,0.0203930009156,1.0,0.0,0.0,0.0,1.0,0.0,0.0,0.0,1.0,12.4390249252,21.5853652954,-49.6951217651,1.0,0.0,0.0,0.0,1.0,0.0,0.0,0.0,1.0,0.138863696289,-2.20745393066,8.88248815918,1.0,0.0,0.0,0.0,1.0,0.0,0.0,0.0,1.0
1463845276743313496,544,1463845276731939357,,2.11469125748,-12.06731987,133.167098999,0.0212750006467,1.0,0.0,0.0,0.0,1.0,0.0,0.0,0.0,1.0,13.658536911,24.2073173523,-47.9878044128,1.0,0.0,0.0,0.0,1.0,0.0,0.0,0.0,1.0,-0.114921679688,-1.8866309082,8.21690009766,1.0,0.0,0.0,0.0,1.0,0.0,0.0,0.0,1.0
1463845276756824550,545,1463845276751471429,,2.42099881172,-11.7530050278,132.168228149,0.0195259992033,1.0,0.0,0.0,0.0,1.0,0.0,0.0,0.0,1.0,11.2195119858,27.0121955872,-46.7682952881,1.0,0.0,0.0,0.0,1.0,0.0,0.0,0.0,1.0,0.15322890625,-0.483628735352,7.01501086426,1.0,0.0,0.0,0.0,1.0,0.0,0.0,0.0,1.0
1463845276775401807,546,1463845276772009617,,3.05485630035,-11.2868995667,131.129196167,0.0212210007012,1.0,0.0,0.0,0.0,1.0,0.0,0.0,0.0,1.0,4.08536577225,35.0609741211,-43.6585388184,1.0,0.0,0.0,0.0,1.0,0.0,0.0,0.0,1.0,-0.349553442383,0.842758984375,4.57771357422,1.0,0.0,0.0,0.0,1.0,0.0,0.0,0.0,1.0
1463845276799008914,547,1463845276791759495,,3.63120698929,-11.2943601608,130.12512207,0.0195950008929,1.0,0.0,0.0,0.0,1.0,0.0,0.0,0.0,1.0,-12.9878053665,35.0609741211,-46.0365867615,1.0,0.0,0.0,0.0,1.0,0.0,0.0,0.0,1.0,-0.45489831543,0.560243188477,5.41089575195,1.0,0.0,0.0,0.0,1.0,0.0,0.0,0.0,1.0
1463845276815717424,548,1463845276812595903,,4.08127737045,-11.6325540543,129.030578613,0.0204099994153,1.0,0.0,0.0,0.0,1.0,0.0,0.0,0.0,1.0,-24.3902435303,32.4390220642,-48.7804870605,1.0,0.0,0.0,0.0,1.0,0.0,0.0,0.0,1.0,-0.119710083008,0.138863696289,5.39174213867,1.0,0.0,0.0,0.0,1.0,0.0,0.0,0.0,1.0
1463845276840174349,549,1463845276833336220,,4.46502399445,-12.2479419708,127.899543762,0.0204130001366,1.0,0.0,0.0,0.0,1.0,0.0,0.0,0.0,1.0,-31.2804889679,29.0243911743,-50.7317085266,1.0,0.0,0.0,0.0,1.0,0.0,0.0,0.0,1.0,-0.263362164351,-0.497993945312,5.47793339844,1.0,0.0,0.0,0.0,1.0,0.0,0.0,0.0,1.0
1463845276855593315,550,1463845276852663819,,4.72256755829,-12.9859867096,126.73614502,0.0204290002584,1.0,0.0,0.0,0.0,1.0,0.0,0.0,0.0,1.0,-34.817073822,27.0731716156,-52.3780517578,1.0,0.0,0.0,0.0,1.0,0.0,0.0,0.0,1.0,0.0191536132812,-0.852335791016,6.17225187988,1.0,0.0,0.0,0.0,1.0,0.0,0.0,0.0,1.0
1463845276881214788,551,1463845276873137426,,4.89014339447,-13.8103427887,125.589683533,0.0203920006752,1.0,0.0,0.0,0.0,1.0,0.0,0.0,0.0,1.0,-38.0487823486,27.9268302917,-51.1585388184,1.0,0.0,0.0,0.0,1.0,0.0,0.0,0.0,1.0,0.646434448242,-1.29286889648,7.70454094238,1.0,0.0,0.0,0.0,1.0,0.0,0.0,0.0,1.0
1463845276901555847,552,1463845276894483194,,5.22645998001,-14.6489076614,124.510253906,0.0203900001943,1.0,0.0,0.0,0.0,1.0,0.0,0.0,0.0,1.0,-37.1951255798,32.4390220642,-46.2195129395,1.0,0.0,0.0,0.0,1.0,0.0,0.0,0.0,1.0,0.134075302102,-1.64242233887,7.7332713623,1.0,0.0,0.0,0.0,1.0,0.0,0.0,0.0,1.0
1463845276916175410,553,1463845276914064796,,5.68684673309,-15.4694166183,123.519454956,0.0205189995468,1.0,0.0,0.0,0.0,1.0,0.0,0.0,0.0,1.0,-38.2926864624,35.6097564697,-40.4268302917,1.0,0.0,0.0,0.0,1.0,0.0,0.0,0.0,1.0,-0.244208569336,-1.68072956543,8.94473740234,1.0,0.0,0.0,0.0,1.0,0.0,0.0,0.0,1.0
1463845276937425764,554,1463845276934464654,,6.16216516495,-16.343875885,122.622329712,0.0203239992261,1.0,0.0,0.0,0.0,1.0,0.0,0.0,0.0,1.0,-38.5975608826,39.0243911743,-34.5121955872,1.0,0.0,0.0,0.0,1.0,0.0,0.0,0.0,1.0,0.225054956055,-2.49475812988,9.80186159668,1.0,0.0,0.0,0.0,1.0,0.0,0.0,0.0,1.0
1463845276960995059,555,1463845276954835451,,6.7324848175,-17.1239395142,121.864471436,0.0204440001398,1.0,0.0,0.0,0.0,1.0,0.0,0.0,0.0,1.0,-37.5,39.4512214661,-26.9512195587,1.0,0.0,0.0,0.0,1.0,0.0,0.0,0.0,1.0,-0.349553442383,-2.28406838379,11.0133276367,1.0,0.0,0.0,0.0,1.0,0.0,0.0,0.0,1.0
1463845277001829723,556,1463845276975284579,,7.23846769333,-17.9046592712,121.266372681,0.0203440003097,1.0,0.0,0.0,0.0,1.0,0.0,0.0,0.0,1.0,-40.1829299927,33.6585388184,-20.6097564697,1.0,0.0,0.0,0.0,1.0,0.0,0.0,0.0,1.0,-0.732625708008,-2.24097275391,12.018892334,1.0,0.0,0.0,0.0,1.0,0.0,0.0,0.0,1.0
1463845277002852973,557,1463845276995645741,,7.60377168655,-18.7480621338,120.824363708,0.020447999239,1.0,0.0,0.0,0.0,1.0,0.0,0.0,0.0,1.0,-44.1463432312,23.475610733,-15.548781395,1.0,0.0,0.0,0.0,1.0,0.0,0.0,0.0,1.0,-1.16358193377,-2.33674067418,12.018892334,1.0,0.0,0.0,0.0,1.0,0.0,0.0,0.0,1.0
1463845277029816591,558,1463845277016131116,,7.70304059982,-19.6238212585,120.575317383,0.0203900001943,1.0,0.0,0.0,0.0,1.0,0.0,0.0,0.0,1.0,-47.317073822,8.84146404266,-10.6097564697,1.0,0.0,0.0,0.0,1.0,0.0,0.0,0.0,1.0,-1.23061965332,-2.65277543945,12.9957266113,1.0,0.0,0.0,0.0,1.0,0.0,0.0,0.0,1.0
1463845277057275975,559,1463845277039667337,,7.58981132507,-20.6393814087,120.552940369,0.0233600009233,1.0,0.0,0.0,0.0,1.0,0.0,0.0,0.0,1.0,-47.2560958862,-2.68292689323,-2.62195134163,1.0,0.0,0.0,0.0,1.0,0.0,0.0,0.0,1.0,-0.962469067383,-3.49074602051,13.4266829102,1.0,0.0,0.0,0.0,1.0,0.0,0.0,0.0,1.0
1463845277109694923,560,1463845277056914111,,7.40870857239,-21.4279441833,120.66947937,0.0174529999495,1.0,0.0,0.0,0.0,1.0,0.0,0.0,0.0,1.0,-44.6951217651,-9.26829242706,3.65853667259,1.0,0.0,0.0,0.0,1.0,0.0,0.0,0.0,1.0,-0.598550451572,-5.48272180176,14.2981723145,1.0,0.0,0.0,0.0,1.0,0.0,0.0,0.0,1.0
1463845277112477183,561,1463845277077838171,,7.11334562302,-21.9303665161,120.989593506,0.0209890007973,1.0,0.0,0.0,0.0,1.0,0.0,0.0,0.0,1.0,-23.7195129395,-17.6219520569,9.51219558716,1.0,0.0,0.0,0.0,1.0,0.0,0.0,0.0,1.0,-1.10612116699,-6.22971271973,14.9924907959,1.0,0.0,0.0,0.0,1.0,0.0,0.0,0.0,1.0
1463845277115204237,562,1463845277097663930,,6.83210945129,-21.9596328735,121.48021698,0.0198100004345,1.0,0.0,0.0,0.0,1.0,0.0,0.0,0.0,1.0,-11.7682924271,-18.658536911,17.9268302917,1.0,0.0,0.0,0.0,1.0,0.0,0.0,0.0,1.0,-0.277727392578,-3.35188232422,14.0491753418,1.0,0.0,0.0,0.0,1.0,0.0,0.0,0.0,1.0
1463845277386521979,563,1463845277118108264,,6.558573246,-22.0032176971,121.970466614,0.0204029995948,1.0,0.0,0.0,0.0,1.0,0.0,0.0,0.0,1.0,-16.5243911743,-18.475610733,16.7073173523,1.0,0.0,0.0,0.0,1.0,0.0,0.0,0.0,1.0,-0.397437475586,-1.97761057129,12.512097876,1.0,0.0,0.0,0.0,1.0,0.0,0.0,0.0,1.0
1463845277386789263,564,1463845277138675095,,6.22588062286,-22.1779785156,122.39995575,0.0204470008612,1.0,0.0,0.0,0.0,1.0,0.0,0.0,0.0,1.0,-15.975610733,-24.5121955872,11.8902444839,1.0,0.0,0.0,0.0,1.0,0.0,0.0,0.0,1.0,-1.28329208984,-3.19386501465,11.3485158691,1.0,0.0,0.0,0.0,1.0,0.0,0.0,0.0,1.0
1463845277387055713,565,1463845277158968027,,5.65350627899,-22.2605495453,122.813034058,0.020380999893,1.0,0.0,0.0,0.0,1.0,0.0,0.0,0.0,1.0,-7.92682981491,-34.1463432312,7.56097555161,1.0,0.0,0.0,0.0,1.0,0.0,0.0,0.0,1.0,-0.91458503418,-3.76847341309,10.7595422607,1.0,0.0,0.0,0.0,1.0,0.0,0.0,0.0,1.0
1463845277387338673,566,1463845277179490172,,5.03937959671,-22.1525192261,123.270820618,0.0204610005021,1.0,0.0,0.0,0.0,1.0,0.0,0.0,0.0,1.0,2.31707310677,-33.9634132385,10.0609760284,1.0,0.0,0.0,0.0,1.0,0.0,0.0,0.0,1.0,-0.186747729492,-3.96958635254,10.7260234375,1.0,0.0,0.0,0.0,1.0,0.0,0.0,0.0,1.0
1463845277387625175,567,1463845277199741908,,4.55962181091,-21.852268219,123.796234131,0.0203530006111,1.0,0.0,0.0,0.0,1.0,0.0,0.0,0.0,1.0,11.0365858078,-28.5365848541,16.0365848541,1.0,0.0,0.0,0.0,1.0,0.0,0.0,0.0,1.0,0.0909796630859,-3.90733710937,11.0276928467,1.0,0.0,0.0,0.0,1.0,0.0,0.0,0.0,1.0
1463845277387913708,568,1463845277220182753,,4.28001260757,-21.3817710876,124.36605072,0.0204019993544,1.0,0.0,0.0,0.0,1.0,0.0,0.0,0.0,1.0,17.9878044128,-22.682926178,20.6707324982,1.0,0.0,0.0,0.0,1.0,0.0,0.0,0.0,1.0,-0.407014282227,-3.57214887695,11.1138841064,1.0,0.0,0.0,0.0,1.0,0.0,0.0,0.0,1.0
1463845277388176929,569,1463845277240665836,,4.0316119194,-20.7635974884,125.009613037,0.0204169992357,1.0,0.0,0.0,0.0,1.0,0.0,0.0,0.0,1.0,23.9634151459,-24.3292694092,23.9024391174,1.0,0.0,0.0,0.0,1.0,0.0,0.0,0.0,1.0,-0.737414111328,-3.0166940918,10.3764699951,1.0,0.0,0.0,0.0,1.0,0.0,0.0,0.0,1.0
1463845277388475097,570,1463845277267427324,,3.52907466888,-19.8136920929,125.736717224,0.0259850006551,1.0,0.0,0.0,0.0,1.0,0.0,0.0,0.0,1.0,22.5,-27.8048782349,18.475610733,1.0,0.0,0.0,0.0,1.0,0.0,0.0,0.0,1.0,-0.282515795898,-1.04387185076,8.29351396626,1.0,0.0,0.0,0.0,1.0,0.0,0.0,0.0,1.0
1463845277388749673,571,1463845277281605701,,3.22027444839,-19.3094024658,126.096450806,0.0148299997672,1.0,0.0,0.0,0.0,1.0,0.0,0.0,0.0,1.0,17.6829280853,-26.4024391174,15.2439022064,1.0,0.0,0.0,0.0,1.0,0.0,0.0,0.0,1.0,0.0,-0.445321508789,7.45554396973,1.0,0.0,0.0,0.0,1.0,0.0,0.0,0.0,1.0
1463845277389033049,572,1463845277302095971,,2.82091999054,-18.815032959,126.490028381,0.0204240009189,1.0,0.0,0.0,0.0,1.0,0.0,0.0,0.0,1.0,10.0609760284,-23.5975627899,11.341463089,1.0,0.0,0.0,0.0,1.0,0.0,0.0,0.0,1.0,0.0191536132812,-0.541089611728,6.47392128906,1.0,0.0,0.0,0.0,1.0,0.0,0.0,0.0,1.0
1463845277389288771,573,1463845277322488901,,2.4569272995,-18.3944816589,126.764297485,0.0204470008612,1.0,0.0,0.0,0.0,1.0,0.0,0.0,0.0,1.0,6.34146356583,-18.7195110321,7.07317113876,1.0,0.0,0.0,0.0,1.0,0.0,0.0,0.0,1.0,0.234631762695,-0.45968671875,6.93360800781,1.0,0.0,0.0,0.0,1.0,0.0,0.0,0.0,1.0
1463845277389549909,574,1463845277342641525,,2.27478814125,-18.152589798,126.955245972,0.0203460007906,1.0,0.0,0.0,0.0,1.0,0.0,0.0,0.0,1.0,6.7682929039,-9.20731735229,6.58536624908,1.0,0.0,0.0,0.0,1.0,0.0,0.0,0.0,1.0,0.268150604204,-1.53707746582,6.92403120117,1.0,0.0,0.0,0.0,1.0,0.0,0.0,0.0,1.0
1463845277741131857,575,1463845277362990810,,2.24670219421,-17.9493522644,127.128738403,0.0204130001366,1.0,0.0,0.0,0.0,1.0,0.0,0.0,0.0,1.0,6.52439069748,0.914634168148,9.08536529541,1.0,0.0,0.0,0.0,1.0,0.0,0.0,0.0,1.0,0.636857641602,-1.69509477539,6.83783994141,1.0,0.0,0.0,0.0,1.0,0.0,0.0,0.0,1.0
1463845277743584439,576,1463845277383392854,,2.43875432014,-17.8035182953,127.259567261,0.0204210001975,1.0,0.0,0.0,0.0,1.0,0.0,0.0,0.0,1.0,9.87804889679,7.92682981491,9.39024448395,1.0,0.0,0.0,0.0,1.0,0.0,0.0,0.0,1.0,0.15322890625,-2.75333190918,7.60398447266,1.0,0.0,0.0,0.0,1.0,0.0,0.0,0.0,1.0
1463845277743918440,577,1463845277403839011,,2.75569605827,-17.5551147461,127.380065918,0.0204070005566,1.0,0.0,0.0,0.0,1.0,0.0,0.0,0.0,1.0,17.0121955872,10.0,9.5731716156,1.0,0.0,0.0,0.0,1.0,0.0,0.0,0.0,1.0,-0.512359155273,-3.34230551758,8.31745598286,1.0,0.0,0.0,0.0,1.0,0.0,0.0,0.0,1.0
1463845277744218900,578,1463845277424192411,,2.99561071396,-17.120929718,127.481758118,0.0203949995339,1.0,0.0,0.0,0.0,1.0,0.0,0.0,0.0,1.0,25.2439041138,8.5365858078,8.04878044128,1.0,0.0,0.0,0.0,1.0,0.0,0.0,0.0,1.0,-0.277727392578,-3.32794030762,8.79629689941,1.0,0.0,0.0,0.0,1.0,0.0,0.0,0.0,1.0
1463845277744489881,579,1463845277444630704,,3.21430826187,-16.5684261322,127.572151184,0.0204310007393,1.0,0.0,0.0,0.0,1.0,0.0,0.0,0.0,1.0,31.2195129395,7.74390268326,7.13414621353,1.0,0.0,0.0,0.0,1.0,0.0,0.0,0.0,1.0,-0.354341845703,-3.65834013672,9.78749638672,1.0,0.0,0.0,0.0,1.0,0.0,0.0,0.0,1.0
1463845277746143529,580,1463845277465092381,,3.31917023659,-15.9013137817,127.601547241,0.0204249992967,1.0,0.0,0.0,0.0,1.0,0.0,0.0,0.0,1.0,37.2560958862,1.40243899822,2.07317066193,1.0,0.0,0.0,0.0,1.0,0.0,0.0,0.0,1.0,-0.833182177734,-3.95522114258,10.7451770508,1.0,0.0,0.0,0.0,1.0,0.0,0.0,0.0,1.0
1463845277746478311,581,1463845277485434479,,3.20800447464,-15.0841035843,127.58934021,0.0203779991716,1.0,0.0,0.0,0.0,1.0,0.0,0.0,0.0,1.0,45.2439041138,-8.04878044128,-2.68292689323,1.0,0.0,0.0,0.0,1.0,0.0,0.0,0.0,1.0,-0.847547387695,-4.07014282227,11.2000753662,1.0,0.0,0.0,0.0,1.0,0.0,0.0,0.0,1.0
1463845277749542802,582,1463845277505880063,,2.9326839447,-14.1517848969,127.503959656,0.0203980002552,1.0,0.0,0.0,0.0,1.0,0.0,0.0,0.0,1.0,50.0609779358,-13.4756097794,-7.74390268326,1.0,0.0,0.0,0.0,1.0,0.0,0.0,0.0,1.0,-0.507570751953,-3.73974299316,11.4107651123,1.0,0.0,0.0,0.0,1.0,0.0,0.0,0.0,1.0
1463845277749934665,583,1463845277526233984,,2.56685996056,-13.155538559,127.352684021,0.0203949995339,1.0,0.0,0.0,0.0,1.0,0.0,0.0,0.0,1.0,52.8048782349,-17.8658542633,-11.9512195587,1.0,0.0,0.0,0.0,1.0,0.0,0.0,0.0,1.0,-0.612915625,-3.46680400391,11.5783592285,1.0,0.0,0.0,0.0,1.0,0.0,0.0,0.0,1.0
1463845277750223771,584,1463845277546683839,,2.08126926422,-12.1461353302,127.089729309,0.0204189997166,1.0,0.0,0.0,0.0,1.0,0.0,0.0,0.0,1.0,55.3048820496,-21.9512195587,-18.0487823486,1.0,0.0,0.0,0.0,1.0,0.0,0.0,0.0,1.0,-0.378283862305,-3.47159240723,11.0564232666,1.0,0.0,0.0,0.0,1.0,0.0,0.0,0.0,1.0
1463845277750529283,585,1463845277567011979,,1.46453106403,-11.1334180832,126.694526672,0.020408000797,1.0,0.0,0.0,0.0,1.0,0.0,0.0,0.0,1.0,63.4146385193,-26.0975627899,-24.817073822,1.0,0.0,0.0,0.0,1.0,0.0,0.0,0.0,1.0,-0.0191536132812,-5.43004936523,11.9518546875,1.0,0.0,0.0,0.0,1.0,0.0,0.0,0.0,1.0
1463845277750914011,586,1463845277587437251,,0.870383143425,-9.80488300323,126.246398926,0.0204019993544,1.0,0.0,0.0,0.0,1.0,0.0,0.0,0.0,1.0,77.6829299927,-25.3658542633,-26.8902454376,1.0,0.0,0.0,0.0,1.0,0.0,0.0,0.0,1.0,0.0335188255255,-4.94642062988,12.0667763672,1.0,0.0,0.0,0.0,1.0,0.0,0.0,0.0,1.0
1463845277751250095,587,1463845277607910907,,0.463036596775,-8.24547576904,125.786460876,0.0204440001398,1.0,0.0,0.0,0.0,1.0,0.0,0.0,0.0,1.0,82.9268341064,-13.5365858078,-25.0,1.0,0.0,0.0,0.0,1.0,0.0,0.0,0.0,1.0,0.881066210937,-3.20823022461,11.8896054443,1.0,0.0,0.0,0.0,1.0,0.0,0.0,0.0,1.0
1463845277751546857,588,1463845277628292743,,0.316881209612,-6.71303701401,125.223373413,0.0203879997134,1.0,0.0,0.0,0.0,1.0,0.0,0.0,0.0,1.0,80.3658599854,-0.365853667259,-28.0487804413,1.0,0.0,0.0,0.0,1.0,0.0,0.0,0.0,1.0,1.01514150391,-2.43729729004,11.3341506592,1.0,0.0,0.0,0.0,1.0,0.0,0.0,0.0,1.0
1463845277751832056,589,1463845277648777441,,0.404194325209,-5.28172302246,124.502113342,0.0204269997776,1.0,0.0,0.0,0.0,1.0,0.0,0.0,0.0,1.0,74.5731735229,8.59756088257,-34.817073822,1.0,0.0,0.0,0.0,1.0,0.0,0.0,0.0,1.0,0.493205541992,-1.87226569824,10.793061084,1.0,0.0,0.0,0.0,1.0,0.0,0.0,0.0,1.0
1463845277752132047,590,1463845277669177350,,0.670138776302,-4.01588916779,123.702880859,0.0203900001943,1.0,0.0,0.0,0.0,1.0,0.0,0.0,0.0,1.0,62.9268302917,18.1707305908,-38.1097564697,1.0,0.0,0.0,0.0,1.0,0.0,0.0,0.0,1.0,0.713472094727,-0.847547387695,10.6254669678,1.0,0.0,0.0,0.0,1.0,0.0,0.0,0.0,1.0
1463845277752438236,591,1463845277689563769,,1.16654932499,-3.02421784401,122.853111267,0.0203910004348,1.0,0.0,0.0,0.0,1.0,0.0,0.0,0.0,1.0,47.2560958862,30.6707305908,-40.1829299927,1.0,0.0,0.0,0.0,1.0,0.0,0.0,0.0,1.0,0.986411083984,-0.134075302102,10.4482960449,1.0,0.0,0.0,0.0,1.0,0.0,0.0,0.0,1.0
1463845277754271150,592,1463845277709965813,,1.93793916702,-2.4040017128,121.977874756,0.0204179994762,1.0,0.0,0.0,0.0,1.0,0.0,0.0,0.0,1.0,29.8170719147,42.4390258789,-41.2804908752,1.0,0.0,0.0,0.0,1.0,0.0,0.0,0.0,1.0,0.641646044922,-0.0143652099609,9.85932243652,1.0,0.0,0.0,0.0,1.0,0.0,0.0,0.0,1.0
1463845277754881496,593,1463845277730292078,,2.93804454803,-2.04111742973,121.110061646,0.0204089991748,1.0,0.0,0.0,0.0,1.0,0.0,0.0,0.0,1.0,12.9268293381,54.2682914734,-41.0365867615,1.0,0.0,0.0,0.0,1.0,0.0,0.0,0.0,1.0,0.598550451572,0.842758984375,8.65743378765,1.0,0.0,0.0,0.0,1.0,0.0,0.0,0.0,1.0
1463845277757001068,594,1463845277750906720,,4.08210754395,-2.0063495636,120.26348877,0.0204269997776,1.0,0.0,0.0,0.0,1.0,0.0,0.0,0.0,1.0,-7.80487823486,61.0975608826,-40.3048782349,1.0,0.0,0.0,0.0,1.0,0.0,0.0,0.0,1.0,0.402225878906,1.5322890625,7.54652363281,1.0,0.0,0.0,0.0,1.0,0.0,0.0,0.0,1.0
1463845277957928267,595,1463845277771401261,,5.34875440598,-2.50854992867,119.394142151,0.0203959997743,1.0,0.0,0.0,0.0,1.0,0.0,0.0,0.0,1.0,-30.6707305908,63.5365829468,-41.1585350037,1.0,0.0,0.0,0.0,1.0,0.0,0.0,0.0,1.0,-0.349553442383,1.4844050293,9.46667277974,1.0,0.0,0.0,0.0,1.0,0.0,0.0,0.0,1.0
1463845277958225185,596,1463845277791796638,,6.48285245895,-3.33860874176,118.515174866,0.020408000797,1.0,0.0,0.0,0.0,1.0,0.0,0.0,0.0,1.0,-45.4878082275,63.4146385193,-41.0365867615,1.0,0.0,0.0,0.0,1.0,0.0,0.0,0.0,1.0,0.277727392578,0.842758984375,5.91846650391,1.0,0.0,0.0,0.0,1.0,0.0,0.0,0.0,1.0
1463845277958498874,597,1463845277812468101,,7.57536697388,-4.42464590073,117.576782227,0.0204039998353,1.0,0.0,0.0,0.0,1.0,0.0,0.0,0.0,1.0,-56.2804870605,58.5365867615,-43.2317085266,1.0,0.0,0.0,0.0,1.0,0.0,0.0,0.0,1.0,-0.225054956055,0.660799658203,5.64552751465,1.0,0.0,0.0,0.0,1.0,0.0,0.0,0.0,1.0
1463845277958767773,598,1463845277832441825,,8.51747989655,-5.79976320267,116.570785522,0.0203980002552,1.0,0.0,0.0,0.0,1.0,0.0,0.0,0.0,1.0,-65.8536605835,53.1707305908,-45.4268302917,1.0,0.0,0.0,0.0,1.0,0.0,0.0,0.0,1.0,-0.282515795898,0.234631762695,6.22492431641,1.0,0.0,0.0,0.0,1.0,0.0,0.0,0.0,1.0
1463845277959050629,599,1463845277852696269,,9.33073997498,-7.44297838211,115.507926941,0.0204070005566,1.0,0.0,0.0,0.0,1.0,0.0,0.0,0.0,1.0,-69.0853652954,49.3292694092,-45.9756088257,1.0,0.0,0.0,0.0,1.0,0.0,0.0,0.0,1.0,-0.3064578125,-1.01035310059,7.06289489746,1.0,0.0,0.0,0.0,1.0,0.0,0.0,0.0,1.0
1463845277959350880,600,1463845277873156540,,10.0907993317,-9.0935087204,114.487884521,0.0204029995948,1.0,0.0,0.0,0.0,1.0,0.0,0.0,0.0,1.0,-66.7682952881,48.8414649963,-42.134147644,1.0,0.0,0.0,0.0,1.0,0.0,0.0,0.0,1.0,-0.272938989258,-1.61369191895,7.46033237305,1.0,0.0,0.0,0.0,1.0,0.0,0.0,0.0,1.0
1463845277959642017,601,1463845277893617072,,10.74771595,-10.6321048737,113.579124451,0.0204249992967,1.0,0.0,0.0,0.0,1.0,0.0,0.0,0.0,1.0,-62.317073822,50.0609779358,-35.2439041138,1.0,0.0,0.0,0.0,1.0,0.0,0.0,0.0,1.0,0.469263525391,-1.75734401855,7.53694682617,1.0,0.0,0.0,0.0,1.0,0.0,0.0,0.0,1.0
1463845277959915655,602,1463845277914015991,,11.6342000961,-11.9838752747,112.77545166,0.0203990004957,1.0,0.0,0.0,0.0,1.0,0.0,0.0,0.0,1.0,-56.5853691101,60.0000038147,-27.3780498505,1.0,0.0,0.0,0.0,1.0,0.0,0.0,0.0,1.0,0.220266552734,-1.56101948242,7.57046564941,1.0,0.0,0.0,0.0,1.0,0.0,0.0,0.0,1.0
1463845277985640247,603,1463845277934554437,,12.6383056641,-13.1855430603,112.04486084,0.0204089991748,1.0,0.0,0.0,0.0,1.0,0.0,0.0,0.0,1.0,-51.8292694092,57.8048820496,-23.2926845551,1.0,0.0,0.0,0.0,1.0,0.0,0.0,0.0,1.0,-1.07739082014,-1.51792385254,8.26478413086,1.0,0.0,0.0,0.0,1.0,0.0,0.0,0.0,1.0
1463845277985724203,604,1463845277954797371,,13.4483060837,-14.2636356354,111.423065186,0.0204140003771,1.0,0.0,0.0,0.0,1.0,0.0,0.0,0.0,1.0,-45.182926178,43.2926864624,-20.0,1.0,0.0,0.0,0.0,1.0,0.0,0.0,0.0,1.0,-2.17393510742,-2.12126281703,9.27513723145,1.0,0.0,0.0,0.0,1.0,0.0,0.0,0.0,1.0
1463845278013161243,605,1463845277975454355,,13.8410053253,-15.104716301,111.036659241,0.0204310007393,1.0,0.0,0.0,0.0,1.0,0.0,0.0,0.0,1.0,-38.4756126404,23.5975627899,-13.5365858078,1.0,0.0,0.0,0.0,1.0,0.0,0.0,0.0,1.0,-2.07816689489,-2.07816689489,10.419565625,1.0,0.0,0.0,0.0,1.0,0.0,0.0,0.0,1.0
1463845278013199262,606,1463845277995613073,,13.9054393768,-15.7579135895,110.965232849,0.0203840006143,1.0,0.0,0.0,0.0,1.0,0.0,0.0,0.0,1.0,-34.4512214661,6.28048801422,-2.98780488968,1.0,0.0,0.0,0.0,1.0,0.0,0.0,0.0,1.0,-1.87226569824,-2.05901342773,11.04684646,1.0,0.0,0.0,0.0,1.0,0.0,0.0,0.0,1.0
1463845278051178744,607,1463845278016023761,,13.6718578339,-16.2566642761,111.202987671,0.0204109996557,1.0,0.0,0.0,0.0,1.0,0.0,0.0,0.0,1.0,-31.0365867615,-9.93902492523,7.50000047684,1.0,0.0,0.0,0.0,1.0,0.0,0.0,0.0,1.0,-1.65678754883,-2.28885678711,12.2200052734,1.0,0.0,0.0,0.0,1.0,0.0,0.0,0.0,1.0
1463845278051432330,608,1463845278036402522,,13.2665901184,-16.7196407318,111.739250183,0.0204060003161,1.0,0.0,0.0,0.0,1.0,0.0,0.0,0.0,1.0,-30.6097583771,-22.1951236725,19.1463432312,1.0,0.0,0.0,0.0,1.0,0.0,0.0,0.0,1.0,-1.71903679199,-3.064578125,13.0196686279,1.0,0.0,0.0,0.0,1.0,0.0,0.0,0.0,1.0
1463845278103833981,609,1463845278056773054,,12.6922779083,-17.0939369202,112.504753113,0.0204029995948,1.0,0.0,0.0,0.0,1.0,0.0,0.0,0.0,1.0,-23.7195129395,-37.0731697083,27.1951236725,1.0,0.0,0.0,0.0,1.0,0.0,0.0,0.0,1.0,-2.69108266602,-4.73573059153,13.9055232422,1.0,0.0,0.0,0.0,1.0,0.0,0.0,0.0,1.0
1463845278104114024,610,1463845278077743881,,11.7008562088,-17.0525474548,113.567939758,0.0204160008579,1.0,0.0,0.0,0.0,1.0,0.0,0.0,0.0,1.0,-6.95121955872,-58.7195129395,35.1219520569,1.0,0.0,0.0,0.0,1.0,0.0,0.0,0.0,1.0,-2.03507141113,-4.73573059153,14.5184388672,1.0,0.0,0.0,0.0,1.0,0.0,0.0,0.0,1.0
1463845278139035889,611,1463845278097731873,,10.5357179642,-16.7201118469,114.907646179,0.0204119998962,1.0,0.0,0.0,0.0,1.0,0.0,0.0,0.0,1.0,-3.10975623131,-67.0731735229,44.8780479431,1.0,0.0,0.0,0.0,1.0,0.0,0.0,0.0,1.0,-0.823605371094,-2.27449157715,14.4992852539,1.0,0.0,0.0,0.0,1.0,0.0,0.0,0.0,1.0
1463845278139087294,612,1463845278118160268,,9.42282867432,-16.534860611,116.298957825,0.0204409994185,1.0,0.0,0.0,0.0,1.0,0.0,0.0,0.0,1.0,-11.9512195587,-65.5487823486,47.9878044128,1.0,0.0,0.0,0.0,1.0,0.0,0.0,0.0,1.0,-0.603338854892,-1.42215578613,13.4314713135,1.0,0.0,0.0,0.0,1.0,0.0,0.0,0.0,1.0
1463845278223416108,613,1463845278138543508,,8.33997917175,-16.5528736115,117.648551941,0.0203830003738,1.0,0.0,0.0,0.0,1.0,0.0,0.0,0.0,1.0,-17.134147644,-65.365852356,47.1951255798,1.0,0.0,0.0,0.0,1.0,0.0,0.0,0.0,1.0,-0.632069238281,-1.9105729248,11.7842605713,1.0,0.0,0.0,0.0,1.0,0.0,0.0,0.0,1.0
1463845278223485481,614,1463845278158879718,,7.27335929871,-16.6616783142,118.886497498,0.0203920006752,1.0,0.0,0.0,0.0,1.0,0.0,0.0,0.0,1.0,-17.134147644,-62.682926178,42.9878044128,1.0,0.0,0.0,0.0,1.0,0.0,0.0,0.0,1.0,-0.258573779297,-2.20745393066,10.553640918,1.0,0.0,0.0,0.0,1.0,0.0,0.0,0.0,1.0
1463845278223552614,615,1463845278179429256,,6.30982017517,-16.7950725555,120.027862549,0.0205099992454,1.0,0.0,0.0,0.0,1.0,0.0,0.0,0.0,1.0,-15.7317075729,-53.9024391174,40.6707344055,1.0,0.0,0.0,0.0,1.0,0.0,0.0,0.0,1.0,0.402225878906,-2.25533796387,9.8784760498,1.0,0.0,0.0,0.0,1.0,0.0,0.0,0.0,1.0
1463845278227569420,616,1463845278199879056,,5.55096387863,-16.9240589142,121.096595764,0.0203639995307,1.0,0.0,0.0,0.0,1.0,0.0,0.0,0.0,1.0,-12.7439022064,-46.2195129395,40.0,1.0,0.0,0.0,0.0,1.0,0.0,0.0,0.0,1.0,0.134075302102,-2.65277543945,10.1131078125,1.0,0.0,0.0,0.0,1.0,0.0,0.0,0.0,1.0
1463845278283382218,617,1463845278220159644,,4.96134281158,-16.9844837189,122.175987244,0.0203510001302,1.0,0.0,0.0,0.0,1.0,0.0,0.0,0.0,1.0,-9.5731716156,-39.634147644,42.5609779358,1.0,0.0,0.0,0.0,1.0,0.0,0.0,0.0,1.0,0.0574608398438,-2.52827695312,10.0939541992,1.0,0.0,0.0,0.0,1.0,0.0,0.0,0.0,1.0
1463845278283707157,618,1463845278240621527,,4.49960899353,-16.9878540039,123.311141968,0.0204440001398,1.0,0.0,0.0,0.0,1.0,0.0,0.0,0.0,1.0,-8.78048801422,-32.865852356,47.0731697083,1.0,0.0,0.0,0.0,1.0,0.0,0.0,0.0,1.0,0.430956298828,-2.12126281703,10.1609918457,1.0,0.0,0.0,0.0,1.0,0.0,0.0,0.0,1.0
1463845278302792728,619,1463845278262546127,,4.22615861893,-16.9731121063,124.482330322,0.020367000252,1.0,0.0,0.0,0.0,1.0,0.0,0.0,0.0,1.0,-11.0365858078,-23.5975627899,51.7682952881,1.0,0.0,0.0,0.0,1.0,0.0,0.0,0.0,1.0,0.679953271484,-1.42215578613,9.68693991699,1.0,0.0,0.0,0.0,1.0,0.0,0.0,0.0,1.0
1463845278303146675,620,1463845278281719873,,4.08904695511,-16.9733200073,125.596870422,0.0204360000789,1.0,0.0,0.0,0.0,1.0,0.0,0.0,0.0,1.0,-15.1219511032,-21.7073173523,49.0243911743,1.0,0.0,0.0,0.0,1.0,0.0,0.0,0.0,1.0,-0.225054956055,-0.660799658203,8.44195446919,1.0,0.0,0.0,0.0,1.0,0.0,0.0,0.0,1.0
1463845278332089137,621,1463845278301922025,,3.91907262802,-17.1327705383,126.588630676,0.0203859992325,1.0,0.0,0.0,0.0,1.0,0.0,0.0,0.0,1.0,-22.6219520569,-22.0731716156,42.8048782349,1.0,0.0,0.0,0.0,1.0,0.0,0.0,0.0,1.0,-0.234631762695,-0.531512805087,7.19218178711,1.0,0.0,0.0,0.0,1.0,0.0,0.0,0.0,1.0
1463845278332382982,622,1463845278322137718,,3.69968223572,-17.538356781,127.418792725,0.0204029995948,1.0,0.0,0.0,0.0,1.0,0.0,0.0,0.0,1.0,-29.0853672028,-19.9390239716,35.5487823486,1.0,0.0,0.0,0.0,1.0,0.0,0.0,0.0,1.0,0.119710083008,-1.42694418945,8.57124252788,1.0,0.0,0.0,0.0,1.0,0.0,0.0,0.0,1.0
1463845278373480390,623,1463845278342501792,,3.5166156292,-18.0248203278,128.065994263,0.0204199999571,1.0,0.0,0.0,0.0,1.0,0.0,0.0,0.0,1.0,-29.0853672028,-16.8292694092,27.3780498505,1.0,0.0,0.0,0.0,1.0,0.0,0.0,0.0,1.0,-0.00478840332031,-1.40779057617,6.02381137695,1.0,0.0,0.0,0.0,1.0,0.0,0.0,0.0,1.0
1463845278373552419,624,1463845278362949718,,3.4185988903,-18.5434455872,128.565368652,0.0203970000148,1.0,0.0,0.0,0.0,1.0,0.0,0.0,0.0,1.0,-29.2073173523,-11.6463422775,21.5853652954,1.0,0.0,0.0,0.0,1.0,0.0,0.0,0.0,1.0,-0.0861912597656,-1.86747729492,7.15387456055,1.0,0.0,0.0,0.0,1.0,0.0,0.0,0.0,1.0
