%time,field.header.seq,field.header.stamp,field.header.frame_id,field.orientation.x,field.orientation.y,field.orientation.z,field.orientation.w,field.orientation_covariance0,field.orientation_covariance1,field.orientation_covariance2,field.orientation_covariance3,field.orientation_covariance4,field.orientation_covariance5,field.orientation_covariance6,field.orientation_covariance7,field.orientation_covariance8,field.angular_velocity.x,field.angular_velocity.y,field.angular_velocity.z,field.angular_velocity_covariance0,field.angular_velocity_covariance1,field.angular_velocity_covariance2,field.angular_velocity_covariance3,field.angular_velocity_covariance4,field.angular_velocity_covariance5,field.angular_velocity_covariance6,field.angular_velocity_covariance7,field.angular_velocity_covariance8,field.linear_acceleration.x,field.linear_acceleration.y,field.linear_acceleration.z,field.linear_acceleration_covariance0,field.linear_acceleration_covariance1,field.linear_acceleration_covariance2,field.linear_acceleration_covariance3,field.linear_acceleration_covariance4,field.linear_acceleration_covariance5,field.linear_acceleration_covariance6,field.linear_acceleration_covariance7,field.linear_acceleration_covariance8
1446040889282086889,2562,1446040889266746044,robocape,14.5522323912,25.0431268667,-22.120841963,0.0,10.0,0.0,0.0,0.0,10.0,0.0,0.0,0.0,10.0,1.16606508329,0.592553342543,0.673247123572,1.0,0.0,0.0,0.0,1.0,0.0,0.0,0.0,1.0,3.18298095703,5.81390991211,10.4686303711,0.1,0.0,0.0,0.0,0.1,0.0,0.0,0.0,0.1
1446040889303528555,2563,1446040889300096988,robocape,15.2206645181,26.3398380001,-19.8131397226,0.0,10.0,0.0,0.0,0.0,10.0,0.0,0.0,0.0,10.0,-0.147272808281,0.969656952898,0.844887855828,1.0,0.0,0.0,0.0,1.0,0.0,0.0,0.0,1.0,-2.74708740234,8.68194580078,13.0732141113,0.1,0.0,0.0,0.0,0.1,0.0,0.0,0.0,0.1
1446040889353207180,2564,1446040889331355094,robocape,12.8641592881,26.8880650745,-17.892296357,0.0,10.0,0.0,0.0,0.0,10.0,0.0,0.0,0.0,10.0,-1.70801836512,0.462324765238,0.83343626314,1.0,0.0,0.0,0.0,1.0,0.0,0.0,0.0,1.0,-1.19032470703,8.38496337891,11.5044763184,0.1,0.0,0.0,0.0,0.1,0.0,0.0,0.0,0.1
1446040889382573472,2565,1446040889379334926,robocape,7.02950303296,26.5016741651,-17.2844416452,0.0,10.0,0.0,0.0,0.0,10.0,0.0,0.0,0.0,10.0,-3.23853704359,-0.23475765009,0.384560461407,1.0,0.0,0.0,0.0,1.0,0.0,0.0,0.0,1.0,0.875379638672,5.24868530273,12.8648474121,0.1,0.0,0.0,0.0,0.1,0.0,0.0,0.0,0.1
1446040889411778305,2566,1446040889407677888,robocape,-1.19630297692,26.4928597206,-17.7601764654,0.0,10.0,0.0,0.0,0.0,10.0,0.0,0.0,0.0,10.0,-4.20832715454,-0.0621848114534,-0.188152331014,1.0,0.0,0.0,0.0,1.0,0.0,0.0,0.0,1.0,1.69088378906,3.66557739258,7.88560180664,0.1,0.0,0.0,0.0,0.1,0.0,0.0,0.0,0.1
1446040889442491222,2567,1446040889439559936,robocape,-8.83626179102,25.0940550516,-18.8244392887,0.0,10.0,0.0,0.0,0.0,10.0,0.0,0.0,0.0,10.0,-3.76224767195,-0.689891880385,-0.562992254443,1.0,0.0,0.0,0.0,1.0,0.0,0.0,0.0,1.0,0.93884765625,-0.506546630859,7.69040771484,0.1,0.0,0.0,0.0,0.1,0.0,0.0,0.0,0.1
1446040889476799222,2568,1446040889473620891,robocape,-15.692679574,24.2497851173,-20.5391390004,0.0,10.0,0.0,0.0,0.0,10.0,0.0,0.0,0.0,10.0,-3.25238548126,-0.175369157782,-0.95168061554,1.0,0.0,0.0,0.0,1.0,0.0,0.0,0.0,1.0,10.5105432129,5.14689697266,11.5344140625,0.1,0.0,0.0,0.0,0.1,0.0,0.0,0.0,0.1
1446040889508873514,2569,1446040889505929946,robocape,-22.080042361,23.579109199,-22.741466795,0.0,10.0,0.0,0.0,0.0,10.0,0.0,0.0,0.0,10.0,-2.97115567015,0.159123875132,-1.21892883093,1.0,0.0,0.0,0.0,1.0,0.0,0.0,0.0,1.0,-8.56818237305,-0.699345703125,4.15296386719,0.1,0.0,0.0,0.0,0.1,0.0,0.0,0.0,0.1
1446040889539319889,2570,1446040889536252975,robocape,-26.806318024,23.3844647264,-24.633535186,0.0,10.0,0.0,0.0,0.0,10.0,0.0,0.0,0.0,10.0,-2.21508423667,0.463922661892,-0.994956983254,1.0,0.0,0.0,0.0,1.0,0.0,0.0,0.0,1.0,7.79698608398,1.12805419922,19.0859106445,0.1,0.0,0.0,0.0,0.1,0.0,0.0,0.0,0.1
1446040889574128472,2571,1446040889571089982,robocape,-28.9655490759,22.5513991591,-26.9151230132,0.0,10.0,0.0,0.0,0.0,10.0,0.0,0.0,0.0,10.0,-0.779507251066,0.276169805041,-1.28284469709,1.0,0.0,0.0,0.0,1.0,0.0,0.0,0.0,1.0,-3.42727294922,-2.86803588867,9.73096435547,0.1,0.0,0.0,0.0,0.1,0.0,0.0,0.0,0.1
1446040889603179514,2572,1446040889600150108,robocape,-27.4931572129,22.4809954188,-29.9257717408,0.0,10.0,0.0,0.0,0.0,10.0,0.0,0.0,0.0,10.0,1.31054157243,0.750212479075,-1.37312585804,1.0,0.0,0.0,0.0,1.0,0.0,0.0,0.0,1.0,2.11839477539,-3.13388305664,13.0624365234,0.1,0.0,0.0,0.0,0.1,0.0,0.0,0.0,0.1
1446040889633246847,2573,1446040889629908084,robocape,-23.4157043819,21.0103679525,-30.8551749452,0.0,10.0,0.0,0.0,0.0,10.0,0.0,0.0,0.0,10.0,2.34344860122,-0.546746971793,-0.698680311982,1.0,0.0,0.0,0.0,1.0,0.0,0.0,0.0,1.0,-9.59564575195,-1.97349609375,3.54941894531,0.1,0.0,0.0,0.0,0.1,0.0,0.0,0.0,0.1
1446040889662642472,2574,1446040889659671068,robocape,-20.1911060318,21.4738524205,-31.0361915733,0.0,10.0,0.0,0.0,0.0,10.0,0.0,0.0,0.0,10.0,1.72199996085,0.260590312664,0.00585895439817,1.0,0.0,0.0,0.0,1.0,0.0,0.0,0.0,1.0,0.725690917969,4.47629150391,10.6841821289,0.1,0.0,0.0,0.0,0.1,0.0,0.0,0.0,0.1
1446040889701627764,2575,1446040889698574066,robocape,-19.7610604677,21.1978220603,-29.5188268398,0.0,10.0,0.0,0.0,0.0,10.0,0.0,0.0,0.0,10.0,-0.0600542825813,-0.395745737986,0.653273415396,1.0,0.0,0.0,0.0,1.0,0.0,0.0,0.0,1.0,-8.49273925781,4.52299438477,6.45338012695,0.1,0.0,0.0,0.0,0.1,0.0,0.0,0.0,0.1
1446040889738770222,2576,1446040889735784053,robocape,-22.8008346722,21.9313984623,-28.9958720108,0.0,10.0,0.0,0.0,0.0,10.0,0.0,0.0,0.0,10.0,-1.75156104895,0.356730428016,0.290684032982,1.0,0.0,0.0,0.0,1.0,0.0,0.0,0.0,1.0,3.49193847656,3.05724243164,15.9460400391,0.1,0.0,0.0,0.0,0.1,0.0,0.0,0.0,0.1
1446040889769958555,2577,1446040889766639947,robocape,-27.0353165732,21.2704004004,-29.7906993682,0.0,10.0,0.0,0.0,0.0,10.0,0.0,0.0,0.0,10.0,-2.17420471394,-0.00798948327024,-0.63090286224,1.0,0.0,0.0,0.0,1.0,0.0,0.0,0.0,1.0,4.39725585937,2.76864257813,8.57776245117,0.1,0.0,0.0,0.0,0.1,0.0,0.0,0.0,0.1
1446040889802391889,2578,1446040889799313068,robocape,-31.7306718686,20.6046063013,-31.2259493795,0.0,10.0,0.0,0.0,0.0,10.0,0.0,0.0,0.0,10.0,-2.37620548262,0.246342400832,-0.973918010642,1.0,0.0,0.0,0.0,1.0,0.0,0.0,0.0,1.0,6.18394042969,2.89438110352,12.1523291016,0.1,0.0,0.0,0.0,0.1,0.0,0.0,0.0,0.1
1446040889835531680,2579,1446040889832360029,robocape,-33.7516719137,25.1064685601,-31.9075348396,0.0,10.0,0.0,0.0,0.0,10.0,0.0,0.0,0.0,10.0,-1.11506554842,2.39577971664,0.833169947031,1.0,0.0,0.0,0.0,1.0,0.0,0.0,0.0,1.0,9.81838256836,-5.80672485352,1.23702758789,0.1,0.0,0.0,0.0,0.1,0.0,0.0,0.0,0.1
1446040889865618764,2580,1446040889862675905,robocape,-35.4039069337,20.2079068332,-32.6321499184,0.0,10.0,0.0,0.0,0.0,10.0,0.0,0.0,0.0,10.0,-0.775246193322,-1.8523616962,-1.80069637106,1.0,0.0,0.0,0.0,1.0,0.0,0.0,0.0,1.0,-16.5352148438,-6.22585327148,9.42080932617,0.1,0.0,0.0,0.0,0.1,0.0,0.0,0.0,0.1
1446040889899149597,2581,1446040889895849943,robocape,-39.6533184511,15.7019655891,-33.8108150927,0.0,10.0,0.0,0.0,0.0,10.0,0.0,0.0,0.0,10.0,-2.28659011194,-1.31000894021,-2.12839834319,1.0,0.0,0.0,0.0,1.0,0.0,0.0,0.0,1.0,14.3832897949,-11.8613342285,19.6194012451,0.1,0.0,0.0,0.0,0.1,0.0,0.0,0.0,0.1
1446040889930152805,2582,1446040889927222013,robocape,-39.1051331019,12.8985070238,-35.6430938966,0.0,10.0,0.0,0.0,0.0,10.0,0.0,0.0,0.0,10.0,0.399873637675,-0.449275275896,-1.76354527385,1.0,0.0,0.0,0.0,1.0,0.0,0.0,0.0,1.0,15.5963671875,5.53489013672,12.2577099609,0.1,0.0,0.0,0.0,0.1,0.0,0.0,0.0,0.1
1446040889965581806,2583,1446040889962601900,robocape,-40.0042700598,13.2357197361,-38.8539584502,0.0,10.0,0.0,0.0,0.0,10.0,0.0,0.0,0.0,10.0,-0.380698877827,1.40308642031,-1.42292697043,1.0,0.0,0.0,0.0,1.0,0.0,0.0,0.0,1.0,2.68840942383,2.55189331055,6.81143554688,0.1,0.0,0.0,0.0,0.1,0.0,0.0,0.0,0.1
1446040889998772097,2584,1446040889995347023,robocape,-41.7587687265,16.2806508356,-43.5138384349,0.0,10.0,0.0,0.0,0.0,10.0,0.0,0.0,0.0,10.0,-0.724379816502,3.13054586139,-1.16286928998,1.0,0.0,0.0,0.0,1.0,0.0,0.0,0.0,1.0,6.81143554688,-1.16757202148,8.76337646484,0.1,0.0,0.0,0.0,0.1,0.0,0.0,0.0,0.1
1446040890033756972,2585,1446040890030786991,robocape,-41.2014695543,21.4069075601,-49.334501395,0.0,10.0,0.0,0.0,0.0,10.0,0.0,0.0,0.0,10.0,0.913331095843,4.36318997193,-0.809201497221,1.0,0.0,0.0,0.0,1.0,0.0,0.0,0.0,1.0,-19.62,-7.35630249023,18.1506555176,0.1,0.0,0.0,0.0,0.1,0.0,0.0,0.0,0.1
1446040890063697389,2586,1446040890060723066,robocape,-32.9126909237,25.5009051883,-48.5674285581,0.0,10.0,0.0,0.0,0.0,10.0,0.0,0.0,0.0,10.0,4.36318997193,1.1780493082,1.88365383901,1.0,0.0,0.0,0.0,1.0,0.0,0.0,0.0,1.0,-15.9292749023,-13.836027832,17.2788684082,0.1,0.0,0.0,0.0,0.1,0.0,0.0,0.0,0.1
1446040890097792431,2587,1446040890094275951,robocape,-23.4513088045,29.7168093829,-45.7240682521,0.0,10.0,0.0,0.0,0.0,10.0,0.0,0.0,0.0,10.0,4.36318997193,1.03130913213,2.47953613292,1.0,0.0,0.0,0.0,1.0,0.0,0.0,0.0,1.0,2.94587402344,3.93741210938,13.3390612793,0.1,0.0,0.0,0.0,0.1,0.0,0.0,0.0,0.1
1446040890133492347,2588,1446040890130203008,robocape,-17.4558032583,31.6277431102,-42.6133927778,0.0,10.0,0.0,0.0,0.0,10.0,0.0,0.0,0.0,10.0,2.32760279273,0.330631449333,1.77406476016,1.0,0.0,0.0,0.0,1.0,0.0,0.0,0.0,1.0,-11.899654541,13.7617822266,-0.140108642578,0.1,0.0,0.0,0.0,0.1,0.0,0.0,0.0,0.1
1446040890163223681,2589,1446040890160260915,robocape,-13.1616871491,30.1072332765,-38.7615038305,0.0,10.0,0.0,0.0,0.0,10.0,0.0,0.0,0.0,10.0,1.22785042058,-1.43198171814,1.66673936823,1.0,0.0,0.0,0.0,1.0,0.0,0.0,0.0,1.0,-0.884959716797,3.72186035156,-1.3064831543,0.1,0.0,0.0,0.0,0.1,0.0,0.0,0.0,0.1
1446040890192348806,2590,1446040890189368963,robocape,-10.1870223771,28.1829412241,-34.6658379781,0.0,10.0,0.0,0.0,0.0,10.0,0.0,0.0,0.0,10.0,0.52064799311,-1.55515291855,1.82493113698,1.0,0.0,0.0,0.0,1.0,0.0,0.0,0.0,1.0,-1.36037109375,2.88959106445,-0.341290283203,0.1,0.0,0.0,0.0,0.1,0.0,0.0,0.0,0.1
1446040890223133806,2591,1446040890219983100,robocape,-16.9764967301,33.1031654983,-31.778297043,0.0,10.0,0.0,0.0,0.0,10.0,0.0,0.0,0.0,10.0,-4.36332312999,2.31668383226,1.78498372063,1.0,0.0,0.0,0.0,1.0,0.0,0.0,0.0,1.0,15.2179541016,-8.94779296875,17.397421875,0.1,0.0,0.0,0.0,0.1,0.0,0.0,0.0,0.1
1446040890254431597,2592,1446040890251008033,robocape,-25.4351579189,33.2736871646,-32.3289143466,0.0,10.0,0.0,0.0,0.0,10.0,0.0,0.0,0.0,10.0,-4.36332312999,0.383628355026,-0.344346728947,1.0,0.0,0.0,0.0,1.0,0.0,0.0,0.0,1.0,-11.8122363281,11.9379748535,2.75666748047,0.1,0.0,0.0,0.0,0.1,0.0,0.0,0.0,0.1
1446040890293382556,2593,1446040890290327072,robocape,-35.1571779924,29.2997155762,-35.7837949022,0.0,10.0,0.0,0.0,0.0,10.0,0.0,0.0,0.0,10.0,-4.36332312999,-0.677508181316,-2.6505110749,1.0,0.0,0.0,0.0,1.0,0.0,0.0,0.0,1.0,4.65352294922,-5.50495239258,-1.79027709961,0.1,0.0,0.0,0.0,0.1,0.0,0.0,0.0,0.1
1446040890330748306,2594,1446040890327569007,robocape,-46.157332892,29.4032708979,-44.377680624,0.0,10.0,0.0,0.0,0.0,10.0,0.0,0.0,0.0,10.0,-4.36332312999,3.72935763249,-3.74946449872,1.0,0.0,0.0,0.0,1.0,0.0,0.0,0.0,1.0,19.6194012451,-19.62,19.6194012451,0.1,0.0,0.0,0.0,0.1,0.0,0.0,0.0,0.1
1446040890366738514,2595,1446040890361854076,robocape,-41.2914734868,31.0008124949,-51.9160206612,0.0,10.0,0.0,0.0,0.0,10.0,0.0,0.0,0.0,10.0,4.36318997193,3.34133506167,-2.14371151946,1.0,0.0,0.0,0.0,1.0,0.0,0.0,0.0,1.0,-4.28947998047,-19.5888647461,3.41649536133,0.1,0.0,0.0,0.0,0.1,0.0,0.0,0.0,0.1
1446040890399613681,2596,1446040890396497964,robocape,-34.1955297998,33.2186127575,-54.2943447973,0.0,10.0,0.0,0.0,0.0,10.0,0.0,0.0,0.0,10.0,4.36318997193,1.63384932876,-0.175369157782,1.0,0.0,0.0,0.0,1.0,0.0,0.0,0.0,1.0,-7.83889892578,-6.69647460938,0.341290283203,0.1,0.0,0.0,0.0,0.1,0.0,0.0,0.0,0.1
1446040890430072889,2597,1446040890426856994,robocape,-25.5572701013,35.1217578993,-53.6738996695,0.0,10.0,0.0,0.0,0.0,10.0,0.0,0.0,0.0,10.0,4.36318997193,0.642221296873,0.809734129439,1.0,0.0,0.0,0.0,1.0,0.0,0.0,0.0,1.0,0.765208740234,2.85366577148,-9.46272216797,0.1,0.0,0.0,0.0,0.1,0.0,0.0,0.0,0.1
1446040890462842222,2598,1446040890459789037,robocape,-15.1074282367,38.2667651597,-50.1165320075,0.0,10.0,0.0,0.0,0.0,10.0,0.0,0.0,0.0,10.0,4.36318997193,0.906273718954,2.08685303019,1.0,0.0,0.0,0.0,1.0,0.0,0.0,0.0,1.0,0.0455053710938,4.94571533203,-6.8246081543,0.1,0.0,0.0,0.0,0.1,0.0,0.0,0.0,0.1
1446040890498234306,2599,1446040890495246887,robocape,-4.19115485279,43.0417554136,-44.8051780191,0.0,10.0,0.0,0.0,0.0,10.0,0.0,0.0,0.0,10.0,3.93601893308,2.24930585668,2.39285023944,1.0,0.0,0.0,0.0,1.0,0.0,0.0,0.0,1.0,4.30265258789,15.2478918457,17.4273596191,0.1,0.0,0.0,0.0,0.1,0.0,0.0,0.0,0.1
1446040890527747639,2600,1446040890524800062,robocape,0.801107865119,49.351078859,-37.5781567092,0.0,10.0,0.0,0.0,0.0,10.0,0.0,0.0,0.0,10.0,-0.0478037415669,3.50551894287,2.50696669215,1.0,0.0,0.0,0.0,1.0,0.0,0.0,0.0,1.0,-6.48092285156,2.3375390625,19.6194012451,0.1,0.0,0.0,0.0,0.1,0.0,0.0,0.0,0.1
1446040890559220389,2601,1446040890556111097,robocape,9.05023588238,50.9449733646,-30.4030551703,0.0,10.0,0.0,0.0,0.0,10.0,0.0,0.0,0.0,10.0,1.49123705239,1.18390826259,2.23425899652,1.0,0.0,0.0,0.0,1.0,0.0,0.0,0.0,1.0,-2.375859375,14.1569604492,10.1297351074,0.1,0.0,0.0,0.0,0.1,0.0,0.0,0.0,0.1
1446040890590236847,2602,1446040890587131023,robocape,10.6133467003,55.9897515903,-21.7220535857,0.0,10.0,0.0,0.0,0.0,10.0,0.0,0.0,0.0,10.0,-2.75770330878,3.32881820454,2.07859723081,1.0,0.0,0.0,0.0,1.0,0.0,0.0,0.0,1.0,-7.17068847656,-1.92439819336,10.6674169922,0.1,0.0,0.0,0.0,0.1,0.0,0.0,0.0,0.1
1446040890624267722,2603,1446040890621028900,robocape,7.58224493153,58.1291928574,-15.543180513,0.0,10.0,0.0,0.0,0.0,10.0,0.0,0.0,0.0,10.0,-4.32324255558,1.33317844169,1.58591242914,1.0,0.0,0.0,0.0,1.0,0.0,0.0,0.0,1.0,-2.63571899414,10.4351000977,9.64953369141,0.1,0.0,0.0,0.0,0.1,0.0,0.0,0.0,0.1
1446040890657078806,2604,1446040890654131889,robocape,2.03398328965,58.6966551701,-12.3173789203,0.0,10.0,0.0,0.0,0.0,10.0,0.0,0.0,0.0,10.0,-4.36332312999,0.278300333913,0.885634220506,1.0,0.0,0.0,0.0,1.0,0.0,0.0,0.0,1.0,2.23694824219,3.53864135742,11.2494067383,0.1,0.0,0.0,0.0,0.1,0.0,0.0,0.0,0.1
1446040890687751139,2605,1446040890684730052,robocape,-6.36722348318,58.0909304408,-12.4159475977,0.0,10.0,0.0,0.0,0.0,10.0,0.0,0.0,0.0,10.0,-4.36332312999,-0.388954677206,-0.0237021337017,1.0,0.0,0.0,0.0,1.0,0.0,0.0,0.0,1.0,-3.52666625977,1.79267211914,2.48962280273,0.1,0.0,0.0,0.0,0.1,0.0,0.0,0.0,0.1
1446040890719450348,2606,1446040890716020107,robocape,-16.5840227232,57.553578873,-14.7070685765,0.0,10.0,0.0,0.0,0.0,10.0,0.0,0.0,0.0,10.0,-4.36332312999,0.0296942461544,-0.712395591596,1.0,0.0,0.0,0.0,1.0,0.0,0.0,0.0,1.0,-2.72553222656,-1.42743164063,1.90404052734,0.1,0.0,0.0,0.0,0.1,0.0,0.0,0.0,0.1
1446040890749583931,2607,1446040890746203899,robocape,-26.8218973647,56.2875202376,-19.7893304337,0.0,10.0,0.0,0.0,0.0,10.0,0.0,0.0,0.0,10.0,-3.21443543573,0.282827707766,-1.64503460534,1.0,0.0,0.0,0.0,1.0,0.0,0.0,0.0,1.0,4.28588745117,-5.50614990234,7.0473449707,0.1,0.0,0.0,0.0,0.1,0.0,0.0,0.0,0.1
1446040890778867181,2608,1446040890775846958,robocape,-32.3154983475,53.9194639539,-24.6509564039,0.0,10.0,0.0,0.0,0.0,10.0,0.0,0.0,0.0,10.0,-0.847417858863,-0.144742805246,-1.9082880791,1.0,0.0,0.0,0.0,1.0,0.0,0.0,0.0,1.0,-1.38072875977,-1.23942260742,14.4216101074,0.1,0.0,0.0,0.0,0.1,0.0,0.0,0.0,0.1
1446040890813527598,2609,1446040890810507059,robocape,-32.514686207,52.1626008142,-29.0732005192,0.0,10.0,0.0,0.0,0.0,10.0,0.0,0.0,0.0,10.0,1.72026890614,0.0728374558137,-1.68697939251,1.0,0.0,0.0,0.0,1.0,0.0,0.0,0.0,1.0,-1.84177001953,-3.22609130859,10.3201391602,0.1,0.0,0.0,0.0,0.1,0.0,0.0,0.0,0.1
1446040890847663848,2610,1446040890843961000,robocape,-31.5556306491,52.4248039902,-34.340293794,0.0,10.0,0.0,0.0,0.0,10.0,0.0,0.0,0.0,10.0,2.61056365855,1.38577587322,-1.44836015884,1.0,0.0,0.0,0.0,1.0,0.0,0.0,0.0,1.0,8.95258300781,-2.49800537109,18.2284936523,0.1,0.0,0.0,0.0,0.1,0.0,0.0,0.0,0.1
1446040890883130306,2611,1446040890879931926,robocape,-26.0786973278,52.8536639811,-35.4631676455,0.0,10.0,0.0,0.0,0.0,10.0,0.0,0.0,0.0,10.0,3.32335872431,0.491619537229,-0.240882920598,1.0,0.0,0.0,0.0,1.0,0.0,0.0,0.0,1.0,8.52866455078,5.65104858398,9.16693725586,0.1,0.0,0.0,0.0,0.1,0.0,0.0,0.0,0.1
1446040890913962848,2612,1446040890910619020,robocape,-18.2823179096,53.1484735361,-33.2585537536,0.0,10.0,0.0,0.0,0.0,10.0,0.0,0.0,0.0,10.0,3.16370221696,-0.13688648003,0.708400849961,1.0,0.0,0.0,0.0,1.0,0.0,0.0,0.0,1.0,-0.076640625,2.61057128906,11.1464208984,0.1,0.0,0.0,0.0,0.1,0.0,0.0,0.0,0.1
1446040890949869223,2613,1446040890946901082,robocape,-10.4984839348,53.7970073479,-29.9445740159,0.0,10.0,0.0,0.0,0.0,10.0,0.0,0.0,0.0,10.0,2.68819480433,0.157525978478,1.05487810778,1.0,0.0,0.0,0.0,1.0,0.0,0.0,0.0,1.0,-1.78309204102,5.46303955078,8.89989257812,0.1,0.0,0.0,0.0,0.1,0.0,0.0,0.0,0.1
1446040890978849723,2614,1446040890975569963,robocape,-3.86671136559,54.7374261592,-25.410392453,0.0,10.0,0.0,0.0,0.0,10.0,0.0,0.0,0.0,10.0,1.5655392468,0.471778987108,1.38031639299,1.0,0.0,0.0,0.0,1.0,0.0,0.0,0.0,1.0,0.0718505859375,5.69655395508,11.7332006836,0.1,0.0,0.0,0.0,0.1,0.0,0.0,0.0,0.1
1446040891007559723,2615,1446040891004523992,robocape,1.85497844039,55.7534723933,-20.9302452668,0.0,10.0,0.0,0.0,0.0,10.0,0.0,0.0,0.0,10.0,1.11360080982,0.748215108258,1.26327046308,1.0,0.0,0.0,0.0,1.0,0.0,0.0,0.0,1.0,0.399968261719,4.86188964844,11.4996862793,0.1,0.0,0.0,0.0,0.1,0.0,0.0,0.0,0.1
1446040891040798014,2616,1446040891037733078,robocape,6.42962474744,56.5804176487,-16.3846135425,0.0,10.0,0.0,0.0,0.0,10.0,0.0,0.0,0.0,10.0,0.472977409598,0.771251451687,1.21213777015,1.0,0.0,0.0,0.0,1.0,0.0,0.0,0.0,1.0,-10.0782421875,0.559237060547,17.2429431152,0.1,0.0,0.0,0.0,0.1,0.0,0.0,0.0,0.1
1446040891069419514,2617,1446040891066335916,robocape,11.6923658249,56.5944333259,-12.6798825537,0.0,10.0,0.0,0.0,0.0,10.0,0.0,0.0,0.0,10.0,1.20441460299,0.413455759235,0.98390486473,1.0,0.0,0.0,0.0,1.0,0.0,0.0,0.0,1.0,1.78907958984,2.74229736328,8.59931762695,0.1,0.0,0.0,0.0,0.1,0.0,0.0,0.0,0.1
1446040891103902306,2618,1446040891100555896,robocape,17.2230775067,56.8582680594,-8.62605897129,0.0,10.0,0.0,0.0,0.0,10.0,0.0,0.0,0.0,10.0,1.23264411054,0.753807746547,1.00201436014,1.0,0.0,0.0,0.0,1.0,0.0,0.0,0.0,1.0,0.0886157226563,3.7134777832,9.10227172852,0.1,0.0,0.0,0.0,0.1,0.0,0.0,0.0,0.1
1446040891133516056,2619,1446040891130527973,robocape,22.065090188,57.7669446921,-3.88183392749,0.0,10.0,0.0,0.0,0.0,10.0,0.0,0.0,0.0,10.0,0.602806512739,1.33171370309,0.993092770491,1.0,0.0,0.0,0.0,1.0,0.0,0.0,0.0,1.0,6.88448364258,6.74557250977,8.39813598633,0.1,0.0,0.0,0.0,0.1,0.0,0.0,0.0,0.1
1446040891171687973,2620,1446040891167812108,robocape,26.0778947253,57.6880750085,2.09318156061,0.0,10.0,0.0,0.0,0.0,10.0,0.0,0.0,0.0,10.0,-0.457531075276,0.880707372489,1.49256863293,1.0,0.0,0.0,0.0,1.0,0.0,0.0,0.0,1.0,3.30273193359,5.96719116211,14.2767114258,0.1,0.0,0.0,0.0,0.1,0.0,0.0,0.0,0.1
1446040891203247014,2621,1446040891200217962,robocape,30.2289085513,56.8580165319,9.26533380411,0.0,10.0,0.0,0.0,0.0,10.0,0.0,0.0,0.0,10.0,-0.927312691566,0.739959308879,1.97286973553,1.0,0.0,0.0,0.0,1.0,0.0,0.0,0.0,1.0,-13.4947375488,2.88240600586,2.25491088867,0.1,0.0,0.0,0.0,0.1,0.0,0.0,0.0,0.1
1446040891234071264,2622,1446040891230976104,robocape,31.7002511278,56.6793806348,14.1971664126,0.0,10.0,0.0,0.0,0.0,10.0,0.0,0.0,0.0,10.0,-1.31493578823,0.861399454586,1.24556044183,1.0,0.0,0.0,0.0,1.0,0.0,0.0,0.0,1.0,1.456171875,4.57328979492,8.39454345703,0.1,0.0,0.0,0.0,0.1,0.0,0.0,0.0,0.1
1446040891271718431,2623,1446040891265954017,robocape,30.8313631734,55.7123789282,17.6625276484,0.0,10.0,0.0,0.0,0.0,10.0,0.0,0.0,0.0,10.0,-1.96181761701,0.0968059056244,1.12611766694,1.0,0.0,0.0,0.0,1.0,0.0,0.0,0.0,1.0,-3.10514282227,2.66206420898,2.66685424805,0.1,0.0,0.0,0.0,0.1,0.0,0.0,0.0,0.1
1446040891312838889,2624,1446040891309788942,robocape,29.5262401742,55.241913175,19.3952391122,0.0,10.0,0.0,0.0,0.0,10.0,0.0,0.0,0.0,10.0,-1.40561642334,0.131826473959,0.571381211877,1.0,0.0,0.0,0.0,1.0,0.0,0.0,0.0,1.0,-2.70038452148,2.02977905273,6.89047119141,0.1,0.0,0.0,0.0,0.1,0.0,0.0,0.0,0.1
1446040891342942931,2625,1446040891339955091,robocape,27.9477416355,54.7221713013,20.0759994665,0.0,10.0,0.0,0.0,0.0,10.0,0.0,0.0,0.0,10.0,-1.09908658188,-0.0692421883421,0.315051956956,1.0,0.0,0.0,0.0,1.0,0.0,0.0,0.0,1.0,-6.48930541992,-0.263452148438,3.00335449219,0.1,0.0,0.0,0.0,0.1,0.0,0.0,0.0,0.1
1446040891379971931,2626,1446040891376774072,robocape,27.567552075,55.1457375863,20.0837470955,0.0,10.0,0.0,0.0,0.0,10.0,0.0,0.0,0.0,10.0,-0.134489635049,0.446745272861,-0.0806937810294,1.0,0.0,0.0,0.0,1.0,0.0,0.0,0.0,1.0,0.188009033203,1.11009155273,11.4877111816,0.1,0.0,0.0,0.0,0.1,0.0,0.0,0.0,0.1
1446040891411966140,2627,1446040891408905029,robocape,28.5196056359,54.1855271858,19.0355160663,0.0,10.0,0.0,0.0,0.0,10.0,0.0,0.0,0.0,10.0,0.978045910332,-0.488823218084,-0.0347542522255,1.0,0.0,0.0,0.0,1.0,0.0,0.0,0.0,1.0,-8.3502355957,-0.576002197266,12.6888134766,0.1,0.0,0.0,0.0,0.1,0.0,0.0,0.0,0.1
1446040891446523681,2628,1446040891443526029,robocape,30.9629962355,53.8225481837,18.0060972386,0.0,10.0,0.0,0.0,0.0,10.0,0.0,0.0,0.0,10.0,1.80815322211,-0.0661795530885,-0.164716513421,1.0,0.0,0.0,0.0,1.0,0.0,0.0,0.0,1.0,0.913699951172,-0.953217773438,6.93477905273,0.1,0.0,0.0,0.0,0.1,0.0,0.0,0.0,0.1
1446040891479793473,2629,1446040891476794958,robocape,36.4425496534,52.8604682119,17.9509502846,0.0,10.0,0.0,0.0,0.0,10.0,0.0,0.0,0.0,10.0,3.06596420495,-0.04966795433,0.281096653058,1.0,0.0,0.0,0.0,1.0,0.0,0.0,0.0,1.0,0.350870361328,2.50040039063,10.7835754395,0.1,0.0,0.0,0.0,0.1,0.0,0.0,0.0,0.1
1446040891509389931,2630,1446040891506337881,robocape,43.0018968668,51.7610380259,18.1162430568,0.0,10.0,0.0,0.0,0.0,10.0,0.0,0.0,0.0,10.0,3.67170019489,0.121706461817,0.410526282036,1.0,0.0,0.0,0.0,1.0,0.0,0.0,0.0,1.0,1.18313964844,0.274229736328,6.67970947266,0.1,0.0,0.0,0.0,0.1,0.0,0.0,0.0,0.1
1446040891541269515,2631,1446040891538110017,robocape,50.9023111902,50.046684358,18.8176475861,0.0,10.0,0.0,0.0,0.0,10.0,0.0,0.0,0.0,10.0,4.36318997193,0.270177692589,0.792423582353,1.0,0.0,0.0,0.0,1.0,0.0,0.0,0.0,1.0,4.7553112793,3.92783203125,12.303215332,0.1,0.0,0.0,0.0,0.1,0.0,0.0,0.0,0.1
1446040891572864765,2632,1446040891569861888,robocape,55.8492266586,46.6641474035,21.139075325,0.0,10.0,0.0,0.0,0.0,10.0,0.0,0.0,0.0,10.0,2.00695819748,0.00106526443603,1.88658331621,1.0,0.0,0.0,0.0,1.0,0.0,0.0,0.0,1.0,7.16110839844,19.6194012451,8.81606689453,0.1,0.0,0.0,0.0,0.1,0.0,0.0,0.0,0.1
1446040891606658348,2633,1446040891603328943,robocape,57.3353145867,45.8034956891,28.6407566317,0.0,10.0,0.0,0.0,0.0,10.0,0.0,0.0,0.0,10.0,-1.84929906095,2.3118901423,1.8684738208,1.0,0.0,0.0,0.0,1.0,0.0,0.0,0.0,1.0,9.98483642578,19.6194012451,12.2648950195,0.1,0.0,0.0,0.0,0.1,0.0,0.0,0.0,0.1
1446040891636466890,2634,1446040891633467912,robocape,56.0177794935,45.8746181951,35.109155294,0.0,10.0,0.0,0.0,0.0,10.0,0.0,0.0,0.0,10.0,-3.02654942082,2.14624152249,1.27898311351,1.0,0.0,0.0,0.0,1.0,0.0,0.0,0.0,1.0,-1.08733886719,4.43797119141,6.74197998047,0.1,0.0,0.0,0.0,0.1,0.0,0.0,0.0,0.1
1446040891665860098,2635,1446040891662836074,robocape,54.0824523563,45.3887257078,38.8001984732,0.0,10.0,0.0,0.0,0.0,10.0,0.0,0.0,0.0,10.0,-2.3311980602,1.07458549985,1.00347909874,1.0,0.0,0.0,0.0,1.0,0.0,0.0,0.0,1.0,-6.57552612305,3.10155029297,3.97573242188,0.1,0.0,0.0,0.0,0.1,0.0,0.0,0.0,0.1
1446040891695370306,2636,1446040891692370891,robocape,52.3473203359,44.7308744862,42.8224776611,0.0,10.0,0.0,0.0,0.0,10.0,0.0,0.0,0.0,10.0,-2.29591117576,1.18803616228,1.21999409537,1.0,0.0,0.0,0.0,1.0,0.0,0.0,0.0,1.0,-0.898132324219,3.04287231445,10.4901855469,0.1,0.0,0.0,0.0,0.1,0.0,0.0,0.0,0.1
1446040891728116348,2637,1446040891725001096,robocape,50.3203933847,43.8239519813,46.6441532195,0.0,10.0,0.0,0.0,0.0,10.0,0.0,0.0,0.0,10.0,-2.35556598418,1.04888599533,1.34463003438,1.0,0.0,0.0,0.0,1.0,0.0,0.0,0.0,1.0,-0.280217285156,3.52666625977,11.7978662109,0.1,0.0,0.0,0.0,0.1,0.0,0.0,0.0,0.1
1446040891760130181,2638,1446040891757013082,robocape,47.9617029864,42.9792752493,50.6420664013,0.0,10.0,0.0,0.0,0.0,10.0,0.0,0.0,0.0,10.0,-2.55823254313,1.15514612282,1.45661595822,1.0,0.0,0.0,0.0,1.0,0.0,0.0,0.0,1.0,4.70022583008,2.61775634766,16.9495532227,0.1,0.0,0.0,0.0,0.1,0.0,0.0,0.0,0.1
1446040891791256390,2639,1446040891788237094,robocape,45.054606239,41.6415833165,53.9004458036,0.0,10.0,0.0,0.0,0.0,10.0,0.0,0.0,0.0,10.0,-2.58499731209,0.688826615949,1.51240918306,1.0,0.0,0.0,0.0,1.0,0.0,0.0,0.0,1.0,-0.00718505859375,3.45960571289,9.61600341797,0.1,0.0,0.0,0.0,0.1,0.0,0.0,0.0,0.1
1446040891822022640,2640,1446040891818773984,robocape,41.7837213764,40.6284420391,56.9040848302,0.0,10.0,0.0,0.0,0.0,10.0,0.0,0.0,0.0,10.0,-2.66329424813,0.729040348409,1.41280695829,1.0,0.0,0.0,0.0,1.0,0.0,0.0,0.0,1.0,-0.702938232422,3.19854858398,8.69990844727,0.1,0.0,0.0,0.0,0.1,0.0,0.0,0.0,0.1
1446040891855121890,2641,1446040891852087020,robocape,37.999952614,39.5216778202,59.5164818675,0.0,10.0,0.0,0.0,0.0,10.0,0.0,0.0,0.0,10.0,-2.79738440902,0.525841157236,1.39296640817,1.0,0.0,0.0,0.0,1.0,0.0,0.0,0.0,1.0,-0.698148193359,2.84169067383,9.32500854492,0.1,0.0,0.0,0.0,0.1,0.0,0.0,0.0,0.1
1446040891888624223,2642,1446040891885473966,robocape,33.5223876787,38.4352168046,61.5279512347,0.0,10.0,0.0,0.0,0.0,10.0,0.0,0.0,0.0,10.0,-2.968359351,0.285757184966,1.22318988867,1.0,0.0,0.0,0.0,1.0,0.0,0.0,0.0,1.0,-1.87530029297,2.81295043945,9.196875,0.1,0.0,0.0,0.0,0.1,0.0,0.0,0.0,0.1
1446040891924103181,2643,1446040891920703887,robocape,28.2070177629,37.4463345259,63.0850733798,0.0,10.0,0.0,0.0,0.0,10.0,0.0,0.0,0.0,10.0,-3.27049497667,0.140881221665,1.0641991716,1.0,0.0,0.0,0.0,1.0,0.0,0.0,0.0,1.0,-2.40459960937,2.24413330078,2.21419555664,0.1,0.0,0.0,0.0,0.1,0.0,0.0,0.0,0.1
1446040891957373515,2644,1446040891954062938,robocape,22.6824904869,36.6260385674,64.7344453135,0.0,10.0,0.0,0.0,0.0,10.0,0.0,0.0,0.0,10.0,-3.4278877971,0.242347659197,1.17738351792,1.0,0.0,0.0,0.0,1.0,0.0,0.0,0.0,1.0,-5.29898071289,-3.32787963867,4.31822021484,0.1,0.0,0.0,0.0,0.1,0.0,0.0,0.0,0.1
1446040891990473890,2645,1446040891987297058,robocape,16.0652429528,35.4688221287,64.5370359508,0.0,10.0,0.0,0.0,0.0,10.0,0.0,0.0,0.0,10.0,-3.42948569375,-0.457131601112,0.304532470651,1.0,0.0,0.0,0.0,1.0,0.0,0.0,0.0,1.0,-0.0814306640625,1.37114868164,6.48571289063,0.1,0.0,0.0,0.0,0.1,0.0,0.0,0.0,0.1
1446040892026299681,2646,1446040892022432088,robocape,8.59464480625,34.6501018499,63.0802167338,0.0,10.0,0.0,0.0,0.0,10.0,0.0,0.0,0.0,10.0,-3.49926051431,-0.480167944541,-0.413988391453,1.0,0.0,0.0,0.0,1.0,0.0,0.0,0.0,1.0,-1.02746337891,1.00950073242,6.92639648438,0.1,0.0,0.0,0.0,0.1,0.0,0.0,0.0,0.1
1446040892059266057,2647,1446040892056174993,robocape,0.310788813849,33.8906234272,60.7296067686,0.0,10.0,0.0,0.0,0.0,10.0,0.0,0.0,0.0,10.0,-3.67822493956,-0.418382607251,-0.890161594359,1.0,0.0,0.0,0.0,1.0,0.0,0.0,0.0,1.0,-0.850231933594,3.33506469727,6.98148193359,0.1,0.0,0.0,0.0,0.1,0.0,0.0,0.0,0.1
1446040892089568890,2648,1446040892086441993,robocape,-5.00901554172,32.4221317925,57.1975672518,0.0,10.0,0.0,0.0,0.0,10.0,0.0,0.0,0.0,10.0,-1.70468941376,-0.804674123367,-1.76860527992,1.0,0.0,0.0,0.0,1.0,0.0,0.0,0.0,1.0,-1.14242431641,-17.0920568848,11.5415991211,0.1,0.0,0.0,0.0,0.1,0.0,0.0,0.0,0.1
1446040892121913765,2649,1446040892118973016,robocape,-6.51252813347,33.554205155,53.9018916259,0.0,10.0,0.0,0.0,0.0,10.0,0.0,0.0,0.0,10.0,0.182826008834,0.69268819953,-1.46207543845,1.0,0.0,0.0,0.0,1.0,0.0,0.0,0.0,1.0,4.42000854492,-17.9638439941,13.4432446289,0.1,0.0,0.0,0.0,0.1,0.0,0.0,0.0,0.1
1446040892155168848,2650,1446040892152240037,robocape,-6.35373120542,34.883500514,51.4920655224,0.0,10.0,0.0,0.0,0.0,10.0,0.0,0.0,0.0,10.0,0.796418323988,0.803475700877,-0.968192214298,1.0,0.0,0.0,0.0,1.0,0.0,0.0,0.0,1.0,0.995130615234,-2.1076171875,10.0974023437,0.1,0.0,0.0,0.0,0.1,0.0,0.0,0.0,0.1
1446040892189836765,2651,1446040892186680078,robocape,-7.55088970631,35.372672234,49.7678074487,0.0,10.0,0.0,0.0,0.0,10.0,0.0,0.0,0.0,10.0,-0.147006492172,0.399341005457,-0.609198099356,1.0,0.0,0.0,0.0,1.0,0.0,0.0,0.0,1.0,0.86220703125,-2.34352661133,4.78884155273,0.1,0.0,0.0,0.0,0.1,0.0,0.0,0.0,0.1
1446040892221729390,2652,1446040892218735933,robocape,-8.93857040451,36.2390433996,47.5061066487,0.0,10.0,0.0,0.0,0.0,10.0,0.0,0.0,0.0,10.0,-0.067644291688,0.633832339439,-0.811065709984,1.0,0.0,0.0,0.0,1.0,0.0,0.0,0.0,1.0,-1.9196081543,-4.99840576172,8.29275512695,0.1,0.0,0.0,0.0,0.1,0.0,0.0,0.0,0.1
1446040892255170723,2653,1446040892252206087,robocape,-9.69383394649,36.8303294355,45.3199205356,0.0,10.0,0.0,0.0,0.0,10.0,0.0,0.0,0.0,10.0,0.270577166752,0.475773728743,-0.82544677987,1.0,0.0,0.0,0.0,1.0,0.0,0.0,0.0,1.0,1.51963989258,-3.51828369141,11.3823303223,0.1,0.0,0.0,0.0,0.1,0.0,0.0,0.0,0.1
1446040892293507473,2654,1446040892290316104,robocape,-10.3713108256,37.5580539791,42.6461431861,0.0,10.0,0.0,0.0,0.0,10.0,0.0,0.0,0.0,10.0,0.494415856373,0.565655415533,-1.03730124459,1.0,0.0,0.0,0.0,1.0,0.0,0.0,0.0,1.0,1.58789794922,-0.984353027344,10.6626269531,0.1,0.0,0.0,0.0,0.1,0.0,0.0,0.0,0.1
1446040892328468473,2655,1446040892324414968,robocape,-11.6485742162,38.3267045396,39.5109508847,0.0,10.0,0.0,0.0,0.0,10.0,0.0,0.0,0.0,10.0,0.342748832293,0.639424977728,-1.19775670026,1.0,0.0,0.0,0.0,1.0,0.0,0.0,0.0,1.0,0.931662597656,0.522114257812,10.4937780762,0.1,0.0,0.0,0.0,0.1,0.0,0.0,0.0,0.1
1446040892360797015,2656,1446040892357525110,robocape,-13.0988084241,38.3500968873,36.1914746817,0.0,10.0,0.0,0.0,0.0,10.0,0.0,0.0,0.0,10.0,0.350738315563,0.258859257956,-1.38258007991,1.0,0.0,0.0,0.0,1.0,0.0,0.0,0.0,1.0,0.0371228027344,-0.0514929199219,13.0744116211,0.1,0.0,0.0,0.0,0.1,0.0,0.0,0.0,0.1
1446040892389807307,2657,1446040892386842012,robocape,-15.6655815623,38.5948834971,32.5274848766,0.0,10.0,0.0,0.0,0.0,10.0,0.0,0.0,0.0,10.0,-0.152732288516,0.500807442989,-1.41946486101,1.0,0.0,0.0,0.0,1.0,0.0,0.0,0.0,1.0,-2.27526855469,-5.06786132813,8.94420043945,0.1,0.0,0.0,0.0,0.1,0.0,0.0,0.0,0.1
1446040892421864515,2658,1446040892418821096,robocape,-17.974159165,38.7517646829,28.7887127304,0.0,10.0,0.0,0.0,0.0,10.0,0.0,0.0,0.0,10.0,0.0143810698864,0.521446941438,-1.43890593697,1.0,0.0,0.0,0.0,1.0,0.0,0.0,0.0,1.0,1.07296875,-9.89143066406,9.3920690918,0.1,0.0,0.0,0.0,0.1,0.0,0.0,0.0,0.1
1446040892455100015,2659,1446040892452064037,robocape,-20.417110513,39.3118489875,24.9258500861,0.0,10.0,0.0,0.0,0.0,10.0,0.0,0.0,0.0,10.0,-0.0399474163512,0.839028901429,-1.34702687936,1.0,0.0,0.0,0.0,1.0,0.0,0.0,0.0,1.0,-4.9852331543,-6.94914916992,7.45330078125,0.1,0.0,0.0,0.0,0.1,0.0,0.0,0.0,0.1
1446040892488540848,2660,1446040892485379934,robocape,-21.7391713156,39.451944672,22.3074874041,0.0,10.0,0.0,0.0,0.0,10.0,0.0,0.0,0.0,10.0,0.141413853883,0.495614278864,-0.924250056312,1.0,0.0,0.0,0.0,1.0,0.0,0.0,0.0,1.0,-1.78788208008,-1.31845825195,9.38608154297,0.1,0.0,0.0,0.0,0.1,0.0,0.0,0.0,0.1
1446040892521901973,2661,1446040892518882989,robocape,-23.5018668753,39.3101659694,19.6684158132,0.0,10.0,0.0,0.0,0.0,10.0,0.0,0.0,0.0,10.0,-0.0900148448447,0.396677844367,-0.97298590426,1.0,0.0,0.0,0.0,1.0,0.0,0.0,0.0,1.0,0.104183349609,-1.27654541016,9.78485229492,0.1,0.0,0.0,0.0,0.1,0.0,0.0,0.0,0.1
1446040892555141223,2662,1446040892552184104,robocape,-25.2029226662,39.248969473,16.8544369717,0.0,10.0,0.0,0.0,0.0,10.0,0.0,0.0,0.0,10.0,-0.00612527050718,0.500141652717,-1.01093594979,1.0,0.0,0.0,0.0,1.0,0.0,0.0,0.0,1.0,0.838256835938,-5.23790771484,10.2434985352,0.1,0.0,0.0,0.0,0.1,0.0,0.0,0.0,0.1
1446040892588729848,2663,1446040892585582971,robocape,-26.3483766199,39.023491491,14.6757309577,0.0,10.0,0.0,0.0,0.0,10.0,0.0,0.0,0.0,10.0,0.0739027202497,0.333960400696,-0.811997816365,1.0,0.0,0.0,0.0,1.0,0.0,0.0,0.0,1.0,0.722098388672,-3.32668212891,9.19208496094,0.1,0.0,0.0,0.0,0.1,0.0,0.0,0.0,0.1
1446040892621788557,2664,1446040892618849039,robocape,-27.1986431806,39.1070868167,12.8636080069,0.0,10.0,0.0,0.0,0.0,10.0,0.0,0.0,0.0,10.0,0.084821680719,0.451938436986,-0.588691758962,1.0,0.0,0.0,0.0,1.0,0.0,0.0,0.0,1.0,-2.03696411133,-2.11959228516,7.91553955078,0.1,0.0,0.0,0.0,0.1,0.0,0.0,0.0,0.1
1446040892656345057,2665,1446040892653328895,robocape,-28.4980089169,38.702832492,10.6765475412,0.0,10.0,0.0,0.0,0.0,10.0,0.0,0.0,0.0,10.0,-0.0138484376684,0.291349823255,-0.85234470688,1.0,0.0,0.0,0.0,1.0,0.0,0.0,0.0,1.0,2.07169189453,-3.32308959961,7.97541503906,0.1,0.0,0.0,0.0,0.1,0.0,0.0,0.0,0.1
1446040892688423598,2666,1446040892685477972,robocape,-28.5550312249,38.8974987715,9.31941977971,0.0,10.0,0.0,0.0,0.0,10.0,0.0,0.0,0.0,10.0,0.355798321635,0.425040509977,-0.400539427948,1.0,0.0,0.0,0.0,1.0,0.0,0.0,0.0,1.0,5.12534179688,-2.04534667969,11.2422216797,0.1,0.0,0.0,0.0,0.1,0.0,0.0,0.0,0.1
1446040892724680973,2667,1446040892721443891,robocape,-29.0603431241,38.8157691874,8.2704048102,0.0,10.0,0.0,0.0,0.0,10.0,0.0,0.0,0.0,10.0,0.0067910607797,0.255663464648,-0.352602528326,1.0,0.0,0.0,0.0,1.0,0.0,0.0,0.0,1.0,1.28971801758,-0.01916015625,9.15256713867,0.1,0.0,0.0,0.0,0.1,0.0,0.0,0.0,0.1
1446040892759645432,2668,1446040892756602048,robocape,-29.730540744,38.6821631682,7.03104341921,0.0,10.0,0.0,0.0,0.0,10.0,0.0,0.0,0.0,10.0,-0.0190416017941,0.275637172823,-0.434494731846,1.0,0.0,0.0,0.0,1.0,0.0,0.0,0.0,1.0,-1.57233032227,-2.37346435547,7.35151245117,0.1,0.0,0.0,0.0,0.1,0.0,0.0,0.0,0.1
1446040892789084890,2669,1446040892786036014,robocape,-30.1560807664,38.539611752,6.5793800128,0.0,10.0,0.0,0.0,0.0,10.0,0.0,0.0,0.0,10.0,-0.159523349296,0.125568045397,-0.15313176268,1.0,0.0,0.0,0.0,1.0,0.0,0.0,0.0,1.0,1.41545654297,-5.19240234375,8.44004882813,0.1,0.0,0.0,0.0,0.1,0.0,0.0,0.0,0.1
1446040892821829974,2670,1446040892818772077,robocape,-30.08022575,38.4515422946,6.43167890179,0.0,10.0,0.0,0.0,0.0,10.0,0.0,0.0,0.0,10.0,0.0154463343225,0.0744353524677,-0.0376837294246,1.0,0.0,0.0,0.0,1.0,0.0,0.0,0.0,1.0,-0.481398925781,-2.88959106445,8.92743530273,0.1,0.0,0.0,0.0,0.1,0.0,0.0,0.0,0.1
1446040892855108599,2671,1446040892852099895,robocape,-29.7832626092,38.4035941964,6.74419161455,0.0,10.0,0.0,0.0,0.0,10.0,0.0,0.0,0.0,10.0,-0.0211721306661,0.000932106381528,0.138084902521,1.0,0.0,0.0,0.0,1.0,0.0,0.0,0.0,1.0,-0.598754882812,-3.19495605469,9.0052734375,0.1,0.0,0.0,0.0,0.1,0.0,0.0,0.0,0.1
1446040892888717265,2672,1446040892885700941,robocape,-29.4877863895,38.3445669769,7.33001668155,0.0,10.0,0.0,0.0,0.0,10.0,0.0,0.0,0.0,10.0,-0.116246981582,-0.0531300637471,0.237154495072,1.0,0.0,0.0,0.0,1.0,0.0,0.0,0.0,1.0,-1.47293701172,-3.32069458008,9.09149414063,0.1,0.0,0.0,0.0,0.1,0.0,0.0,0.0,0.1
1446040892922120140,2673,1446040892919071912,robocape,-29.2798241087,38.228383803,7.66677569542,0.0,10.0,0.0,0.0,0.0,10.0,0.0,0.0,0.0,10.0,-0.0755006169037,-0.034354778062,0.132092790068,1.0,0.0,0.0,0.0,1.0,0.0,0.0,0.0,1.0,-1.94595336914,-2.98299682617,9.4687097168,0.1,0.0,0.0,0.0,0.1,0.0,0.0,0.0,0.1
1446040892956066932,2674,1446040892953075885,robocape,-29.1374680271,38.1005689395,7.61499820671,0.0,10.0,0.0,0.0,0.0,10.0,0.0,0.0,0.0,10.0,0.0239684498107,0.0300937203179,-0.0139815957229,1.0,0.0,0.0,0.0,1.0,0.0,0.0,0.0,1.0,-2.11240722656,-2.87522094727,9.34177368164,0.1,0.0,0.0,0.0,0.1,0.0,0.0,0.0,0.1
1446040892988506974,2675,1446040892985527038,robocape,-29.1133497363,38.0014839301,7.48332272224,0.0,10.0,0.0,0.0,0.0,10.0,0.0,0.0,0.0,10.0,-0.0162452826495,0.0640490242164,-0.0334226716805,1.0,0.0,0.0,0.0,1.0,0.0,0.0,0.0,1.0,-1.32684082031,-3.00574951172,9.16933227539,0.1,0.0,0.0,0.0,0.1,0.0,0.0,0.0,0.1
1446040893023636265,2676,1446040893020600080,robocape,-29.0982122608,37.9347435567,7.66357688703,0.0,10.0,0.0,0.0,0.0,10.0,0.0,0.0,0.0,10.0,-0.130894367577,0.0263652947918,0.0924116898257,1.0,0.0,0.0,0.0,1.0,0.0,0.0,0.0,1.0,-0.556842041016,-3.61767700195,8.92264526367,0.1,0.0,0.0,0.0,0.1,0.0,0.0,0.0,0.1
1446040893058793057,2677,1446040893055756092,robocape,-29.010041099,37.9075952276,8.21604579933,0.0,10.0,0.0,0.0,0.0,10.0,0.0,0.0,0.0,10.0,-0.220776054368,-0.0217047628841,0.242480817252,1.0,0.0,0.0,0.0,1.0,0.0,0.0,0.0,1.0,-0.638272705078,-3.35901489258,9.02203857422,0.1,0.0,0.0,0.0,0.1,0.0,0.0,0.0,0.1
1446040893090078974,2678,1446040893086744070,robocape,-28.917756954,37.9014035127,8.863166402,0.0,10.0,0.0,0.0,0.0,10.0,0.0,0.0,0.0,10.0,-0.253399777721,-0.0267647689553,0.286156659129,1.0,0.0,0.0,0.0,1.0,0.0,0.0,0.0,1.0,-1.56035522461,-3.23088134766,9.37290893555,0.1,0.0,0.0,0.0,0.1,0.0,0.0,0.0,0.1
1446040893123543932,2679,1446040893120615005,robocape,-28.8263693273,37.7855354077,8.9640816144,0.0,10.0,0.0,0.0,0.0,10.0,0.0,0.0,0.0,10.0,-0.0587227020362,0.0107858024148,0.0506000607115,1.0,0.0,0.0,0.0,1.0,0.0,0.0,0.0,1.0,-2.84408569336,-3.63324462891,8.93102783203,0.1,0.0,0.0,0.0,0.1,0.0,0.0,0.0,0.1
1446040893155336140,2680,1446040893152403116,robocape,-28.7249023108,37.6016825129,8.80356098058,0.0,10.0,0.0,0.0,0.0,10.0,0.0,0.0,0.0,10.0,0.0418116291142,0.0190416017941,-0.0680437658515,1.0,0.0,0.0,0.0,1.0,0.0,0.0,0.0,1.0,-1.89326293945,-3.27997924805,9.1932824707,0.1,0.0,0.0,0.0,0.1,0.0,0.0,0.0,0.1
1446040893188472557,2681,1446040893185524940,robocape,-28.6193152285,37.4455934367,8.72814645482,0.0,10.0,0.0,0.0,0.0,10.0,0.0,0.0,0.0,10.0,0.0139815957229,0.017710021249,-0.0287621397729,1.0,0.0,0.0,0.0,1.0,0.0,0.0,0.0,1.0,-0.426313476563,-3.6057019043,8.9705456543,0.1,0.0,0.0,0.0,0.1,0.0,0.0,0.0,0.1
1446040893221854390,2682,1446040893218924999,robocape,-28.4282678986,37.3819207176,8.83497559863,0.0,10.0,0.0,0.0,0.0,10.0,0.0,0.0,0.0,10.0,-0.00439421579863,0.0296942461544,0.0641821822709,1.0,0.0,0.0,0.0,1.0,0.0,0.0,0.0,1.0,-1.45736938477,-3.1769934082,9.09388916016,0.1,0.0,0.0,0.0,0.1,0.0,0.0,0.0,0.1
1446040893254946307,2683,1446040893252011060,robocape,-28.2613095406,37.2887606417,8.8759524682,0.0,10.0,0.0,0.0,0.0,10.0,0.0,0.0,0.0,10.0,0.0067910607797,0.0262321367373,0.0314253008629,1.0,0.0,0.0,0.0,1.0,0.0,0.0,0.0,1.0,-2.0657043457,-3.44403808594,8.95737304688,0.1,0.0,0.0,0.0,0.1,0.0,0.0,0.0,0.1
1446040893294725724,2684,1446040893291675090,robocape,-28.1574915918,37.1466297401,8.79118308818,0.0,10.0,0.0,0.0,0.0,10.0,0.0,0.0,0.0,10.0,0.0173105470855,0.0243679239742,-0.0290284558819,1.0,0.0,0.0,0.0,1.0,0.0,0.0,0.0,1.0,-1.18673217773,-3.40212524414,9.02443359375,0.1,0.0,0.0,0.0,0.1,0.0,0.0,0.0,0.1
1446040893322809140,2685,1446040893319859981,robocape,-28.0057795173,37.0555704135,8.81877852357,0.0,10.0,0.0,0.0,0.0,10.0,0.0,0.0,0.0,10.0,0.00412789968962,0.0288952978274,0.0266316109008,1.0,0.0,0.0,0.0,1.0,0.0,0.0,0.0,1.0,-1.02985839844,-3.51828369141,9.04359375,0.1,0.0,0.0,0.0,0.1,0.0,0.0,0.0,0.1
1446040893359187599,2686,1446040893356048107,robocape,-27.8719961751,36.9537956162,8.8263986153,0.0,10.0,0.0,0.0,0.0,10.0,0.0,0.0,0.0,10.0,0.00199737081756,0.0268979270098,0.0162452826495,1.0,0.0,0.0,0.0,1.0,0.0,0.0,0.0,1.0,-1.67771118164,-3.45002563477,9.0052734375,0.1,0.0,0.0,0.0,0.1,0.0,0.0,0.0,0.1
1446040893390571307,2687,1446040893387520074,robocape,-27.7553601395,36.8315308577,8.78012881756,0.0,10.0,0.0,0.0,0.0,10.0,0.0,0.0,0.0,10.0,0.0122505410144,0.0254331884103,-0.0099868540878,1.0,0.0,0.0,0.0,1.0,0.0,0.0,0.0,1.0,-1.38791381836,-3.34584228516,9.07712402344,0.1,0.0,0.0,0.0,0.1,0.0,0.0,0.0,0.1
1446040893421938224,2688,1446040893418934106,robocape,-27.6283876525,36.7256136213,8.76317985768,0.0,10.0,0.0,0.0,0.0,10.0,0.0,0.0,0.0,10.0,0.00798948327024,0.0278300333913,0.00519316412565,1.0,0.0,0.0,0.0,1.0,0.0,0.0,0.0,1.0,-1.15799194336,-3.4524206543,9.06754394531,0.1,0.0,0.0,0.0,0.1,0.0,0.0,0.0,0.1
1446040893459002391,2689,1446040893455914974,robocape,-27.5013574803,36.6251545141,8.76239784409,0.0,10.0,0.0,0.0,0.0,10.0,0.0,0.0,0.0,10.0,0.00292947719909,0.0272974011733,0.0126500151779,1.0,0.0,0.0,0.0,1.0,0.0,0.0,0.0,1.0,-1.5364050293,-3.40931030273,9.0400012207,0.1,0.0,0.0,0.0,0.1,0.0,0.0,0.0,0.1
1446040893488437432,2690,1446040893485486984,robocape,-27.3825786404,36.5088354437,8.73129138646,0.0,10.0,0.0,0.0,0.0,10.0,0.0,0.0,0.0,10.0,0.00985369603329,0.0238352917562,-0.0034621094171,1.0,0.0,0.0,0.0,1.0,0.0,0.0,0.0,1.0,-1.50526977539,-3.43685302734,9.04239624023,0.1,0.0,0.0,0.0,0.1,0.0,0.0,0.0,0.1
1446040893521893599,2691,1446040893518800020,robocape,-27.1853758861,36.3686178372,8.62747337454,0.0,10.0,0.0,0.0,0.0,10.0,0.0,0.0,0.0,10.0,0.0801611488114,0.0193079179031,-0.0402137324602,1.0,0.0,0.0,0.0,1.0,0.0,0.0,0.0,1.0,-1.42743164063,-3.39853271484,8.9250402832,0.1,0.0,0.0,0.0,0.1,0.0,0.0,0.0,0.1
1446040893555151557,2692,1446040893552231073,robocape,-26.9265278132,36.2050303335,8.45362834653,0.0,10.0,0.0,0.0,0.0,10.0,0.0,0.0,0.0,10.0,0.140082273338,0.0150468601589,-0.0756337749583,1.0,0.0,0.0,0.0,1.0,0.0,0.0,0.0,1.0,-1.59388549805,-3.45122314453,9.04958129883,0.1,0.0,0.0,0.0,0.1,0.0,0.0,0.0,0.1
1446040893588327516,2693,1446040893585402011,robocape,-26.7013215351,36.045046029,8.16637333012,0.0,10.0,0.0,0.0,0.0,10.0,0.0,0.0,0.0,10.0,0.159390191241,0.0360858327706,-0.119043300727,1.0,0.0,0.0,0.0,1.0,0.0,0.0,0.0,1.0,-1.60466308594,-3.13388305664,9.00766845703,0.1,0.0,0.0,0.0,0.1,0.0,0.0,0.0,0.1
1446040893626519474,2694,1446040893623363971,robocape,-26.4915149895,35.8862021091,7.8251778614,0.0,10.0,0.0,0.0,0.0,10.0,0.0,0.0,0.0,10.0,0.16911072922,0.0451405804768,-0.140614905556,1.0,0.0,0.0,0.0,1.0,0.0,0.0,0.0,1.0,-1.54598510742,-3.13148803711,9.14897460938,0.1,0.0,0.0,0.0,0.1,0.0,0.0,0.0,0.1
1446040893657899016,2695,1446040893654875040,robocape,-26.3899763479,35.7795736584,7.60584151876,0.0,10.0,0.0,0.0,0.0,10.0,0.0,0.0,0.0,10.0,0.066845343361,0.0559263828917,-0.0782969360483,1.0,0.0,0.0,0.0,1.0,0.0,0.0,0.0,1.0,-1.08135131836,-3.15304321289,9.27471313477,0.1,0.0,0.0,0.0,0.1,0.0,0.0,0.0,0.1
1446040893688597349,2696,1446040893685659885,robocape,-26.3069393522,35.7133524108,7.6490706671,0.0,10.0,0.0,0.0,0.0,10.0,0.0,0.0,0.0,10.0,-0.0304931944814,0.0336889877895,0.03488741028,1.0,0.0,0.0,0.0,1.0,0.0,0.0,0.0,1.0,-0.725690917969,-3.30153442383,9.11903686523,0.1,0.0,0.0,0.0,0.1,0.0,0.0,0.0,0.1
1446040893724308516,2697,1446040893721084117,robocape,-26.3071140223,35.6970057251,8.07231074235,0.0,10.0,0.0,0.0,0.0,10.0,0.0,0.0,0.0,10.0,-0.203066033119,-0.000133158054504,0.198938133429,1.0,0.0,0.0,0.0,1.0,0.0,0.0,0.0,1.0,-0.608334960938,-3.33266967773,9.02922363281,0.1,0.0,0.0,0.0,0.1,0.0,0.0,0.0,0.1
1446040893755005932,2698,1446040893752043962,robocape,-26.1950511409,35.6814584808,8.61682677512,0.0,10.0,0.0,0.0,0.0,10.0,0.0,0.0,0.0,10.0,-0.180562321907,-0.0239684498107,0.246209242778,1.0,0.0,0.0,0.0,1.0,0.0,0.0,0.0,1.0,-1.18313964844,-3.61887451172,8.90827514648,0.1,0.0,0.0,0.0,0.1,0.0,0.0,0.0,0.1
1446040893788621891,2699,1446040893785619974,robocape,-26.0099827394,35.5990255726,8.77574221124,0.0,10.0,0.0,0.0,0.0,10.0,0.0,0.0,0.0,10.0,-0.0109189604693,0.00173105470855,0.0766990393943,1.0,0.0,0.0,0.0,1.0,0.0,0.0,0.0,1.0,-2.52794311523,-3.36021240234,9.22801025391,0.1,0.0,0.0,0.0,0.1,0.0,0.0,0.0,0.1
1446040893824749432,2700,1446040893821595907,robocape,-25.8503499158,35.3897102045,8.53222479898,0.0,10.0,0.0,0.0,0.0,10.0,0.0,0.0,0.0,10.0,0.112252239947,0.00106526443603,-0.114649084928,1.0,0.0,0.0,0.0,1.0,0.0,0.0,0.0,1.0,-1.87170776367,-3.43445800781,9.31303344727,0.1,0.0,0.0,0.0,0.1,0.0,0.0,0.0,0.1
1446040893855479891,2701,1446040893852150917,robocape,-25.7094968983,35.2122623837,8.00284605856,0.0,10.0,0.0,0.0,0.0,10.0,0.0,0.0,0.0,10.0,0.193212337085,0.0640490242164,-0.220642896313,1.0,0.0,0.0,0.0,1.0,0.0,0.0,0.0,1.0,-1.63100830078,-3.27159667969,9.06874145508,0.1,0.0,0.0,0.0,0.1,0.0,0.0,0.0,0.1
1446040893891797182,2702,1446040893888775110,robocape,-25.5683932144,35.0605954233,7.5604192824,0.0,10.0,0.0,0.0,0.0,10.0,0.0,0.0,0.0,10.0,0.164450197312,0.0625842856169,-0.181094954125,1.0,0.0,0.0,0.0,1.0,0.0,0.0,0.0,1.0,-1.03345092773,-3.02969970703,9.21962768555,0.1,0.0,0.0,0.0,0.1,0.0,0.0,0.0,0.1
1446040893923014849,2703,1446040893919899940,robocape,-25.466897386,34.9618449481,7.37982658893,0.0,10.0,0.0,0.0,0.0,10.0,0.0,0.0,0.0,10.0,0.0568584892732,0.0484695318394,-0.0641821822709,1.0,0.0,0.0,0.0,1.0,0.0,0.0,0.0,1.0,-0.678988037109,-3.20932617188,9.05676635742,0.1,0.0,0.0,0.0,0.1,0.0,0.0,0.0,0.1
1446040893957475557,2704,1446040893952272891,robocape,-25.4341159097,34.9179422235,7.59253346088,0.0,10.0,0.0,0.0,0.0,10.0,0.0,0.0,0.0,10.0,-0.108656972475,0.0151800182135,0.106925917767,1.0,0.0,0.0,0.0,1.0,0.0,0.0,0.0,1.0,-0.686173095703,-3.23207885742,9.05676635742,0.1,0.0,0.0,0.0,0.1,0.0,0.0,0.0,0.1
1446040893988479182,2705,1446040893985496044,robocape,-25.4609311161,34.926374355,8.11772353299,0.0,10.0,0.0,0.0,0.0,10.0,0.0,0.0,0.0,10.0,-0.244078713906,-0.00612527050718,0.246475558887,1.0,0.0,0.0,0.0,1.0,0.0,0.0,0.0,1.0,-0.987945556641,-3.33147216797,9.05556884766,0.1,0.0,0.0,0.0,0.1,0.0,0.0,0.0,0.1
1446040894022065474,2706,1446040894018954992,robocape,-25.4762072466,34.9357445899,8.73793186209,0.0,10.0,0.0,0.0,0.0,10.0,0.0,0.0,0.0,10.0,-0.269378744262,-0.0210389726116,0.286289817184,1.0,0.0,0.0,0.0,1.0,0.0,0.0,0.0,1.0,-1.46934448242,-3.35422485352,9.26034301758,0.1,0.0,0.0,0.0,0.1,0.0,0.0,0.0,0.1
1446040894055386807,2707,1446040894052428007,robocape,-25.5081481949,34.8443387859,8.87179580046,0.0,10.0,0.0,0.0,0.0,10.0,0.0,0.0,0.0,10.0,-0.119575932945,0.00612527050718,0.0683100819605,1.0,0.0,0.0,0.0,1.0,0.0,0.0,0.0,1.0,-2.52075805664,-3.30153442383,8.97533569336,0.1,0.0,0.0,0.0,0.1,0.0,0.0,0.0,0.1
1446040894088770307,2708,1446040894085623979,robocape,-25.4237673401,34.7021831056,8.72252384261,0.0,10.0,0.0,0.0,0.0,10.0,0.0,0.0,0.0,10.0,0.0380832035881,0.0205063403936,-0.0600542825813,1.0,0.0,0.0,0.0,1.0,0.0,0.0,0.0,1.0,-1.96990356445,-3.28716430664,8.99329833984,0.1,0.0,0.0,0.0,0.1,0.0,0.0,0.0,0.1
1446040894122120766,2709,1446040894119101047,robocape,-25.3379047548,34.5802580909,8.62517788612,0.0,10.0,0.0,0.0,0.0,10.0,0.0,0.0,0.0,10.0,0.0219710789932,0.0219710789932,-0.0347542522255,1.0,0.0,0.0,0.0,1.0,0.0,0.0,0.0,1.0,-0.711320800781,-3.31111450195,9.09867919922,0.1,0.0,0.0,0.0,0.1,0.0,0.0,0.0,0.1
1446040894156073058,2710,1446040894152760028,robocape,-25.1887690217,34.5292063277,8.69863524155,0.0,10.0,0.0,0.0,0.0,10.0,0.0,0.0,0.0,10.0,0.000532632218016,0.0284958236638,0.0500674284935,1.0,0.0,0.0,0.0,1.0,0.0,0.0,0.0,1.0,-0.955612792969,-3.38536010742,9.08790161133,0.1,0.0,0.0,0.0,0.1,0.0,0.0,0.0,0.1
1446040894188787599,2711,1446040894185492038,robocape,-25.0759907637,34.4519854873,8.70256751306,0.0,10.0,0.0,0.0,0.0,10.0,0.0,0.0,0.0,10.0,0.00386158358061,0.0270310850643,0.0162452826495,1.0,0.0,0.0,0.0,1.0,0.0,0.0,0.0,1.0,-1.92320068359,-3.43924804688,8.97892822266,0.1,0.0,0.0,0.0,0.1,0.0,0.0,0.0,0.1
1446040894221815974,2712,1446040894218866109,robocape,-24.9787742598,34.352244883,8.63457835736,0.0,10.0,0.0,0.0,0.0,10.0,0.0,0.0,0.0,10.0,0.0193079179031,0.0268979270098,-0.018242653467,1.0,0.0,0.0,0.0,1.0,0.0,0.0,0.0,1.0,-1.35677856445,-3.30273193359,9.08909912109,0.1,0.0,0.0,0.0,0.1,0.0,0.0,0.0,0.1
1446040894255039558,2713,1446040894252079963,robocape,-24.8588049247,34.2784078542,8.63698664012,0.0,10.0,0.0,0.0,0.0,10.0,0.0,0.0,0.0,10.0,0.00918790576077,0.0278300333913,0.015845808486,1.0,0.0,0.0,0.0,1.0,0.0,0.0,0.0,1.0,-1.06817871094,-3.46080322266,9.04119873047,0.1,0.0,0.0,0.0,0.1,0.0,0.0,0.0,0.1
1446040894293145641,2714,1446040894290129899,robocape,-24.7502476041,34.2032024017,8.64074633208,0.0,10.0,0.0,0.0,0.0,10.0,0.0,0.0,0.0,10.0,0.00292947719909,0.0268979270098,0.016112124595,1.0,0.0,0.0,0.0,1.0,0.0,0.0,0.0,1.0,-1.63220581055,-3.39374267578,9.0088659668,0.1,0.0,0.0,0.0,0.1,0.0,0.0,0.0,0.1
1446040894328072766,2715,1446040894324637889,robocape,-24.6549848079,34.1139459598,8.59694476394,0.0,10.0,0.0,0.0,0.0,10.0,0.0,0.0,0.0,10.0,0.0114515926873,0.0271642431188,-0.00652474467069,1.0,0.0,0.0,0.0,1.0,0.0,0.0,0.0,1.0,-1.43820922852,-3.34943481445,9.07233398437,0.1,0.0,0.0,0.0,0.1,0.0,0.0,0.0,0.1
1446040894363337891,2716,1446040894360233068,robocape,-24.5460377533,34.0371833846,8.58659155132,0.0,10.0,0.0,0.0,0.0,10.0,0.0,0.0,0.0,10.0,0.00852211548825,0.0274305592278,0.00958737992429,1.0,0.0,0.0,0.0,1.0,0.0,0.0,0.0,1.0,-1.21666992188,-3.43685302734,9.04598876953,0.1,0.0,0.0,0.0,0.1,0.0,0.0,0.0,0.1
1446040894392590099,2717,1446040894389549016,robocape,-24.4404845829,33.9505356307,8.57586946508,0.0,10.0,0.0,0.0,0.0,10.0,0.0,0.0,0.0,10.0,0.00759000910673,0.0219710789932,0.00692421883421,1.0,0.0,0.0,0.0,1.0,0.0,0.0,0.0,1.0,-1.44898681641,-3.57456665039,9.02443359375,0.1,0.0,0.0,0.0,0.1,0.0,0.0,0.0,0.1
1446040894426878974,2718,1446040894423535108,robocape,-24.2562430313,33.8366938447,8.44981542178,0.0,10.0,0.0,0.0,0.0,10.0,0.0,0.0,0.0,10.0,0.0886832642996,0.0225037112112,-0.0482032157304,1.0,0.0,0.0,0.0,1.0,0.0,0.0,0.0,1.0,-1.55676269531,-3.31949707031,9.01485351563,0.1,0.0,0.0,0.0,0.1,0.0,0.0,0.0,0.1
1446040894462476641,2719,1446040894459074974,robocape,-24.0313615215,33.7095262202,8.26472848536,0.0,10.0,0.0,0.0,0.0,10.0,0.0,0.0,0.0,10.0,0.130628051468,0.0225037112112,-0.0766990393943,1.0,0.0,0.0,0.0,1.0,0.0,0.0,0.0,1.0,-1.45497436523,-3.45601318359,9.06514892578,0.1,0.0,0.0,0.0,0.1,0.0,0.0,0.0,0.1
1446040894491813683,2720,1446040894488835096,robocape,-23.8435579936,33.5859690963,7.97385603436,0.0,10.0,0.0,0.0,0.0,10.0,0.0,0.0,0.0,10.0,0.143144908592,0.0414121549507,-0.119176458781,1.0,0.0,0.0,0.0,1.0,0.0,0.0,0.0,1.0,-1.61663818359,-3.42128540039,9.07353149414,0.1,0.0,0.0,0.0,0.1,0.0,0.0,0.0,0.1
1446040894526602724,2721,1446040894523411989,robocape,-23.6702360341,33.4617994791,7.64367957826,0.0,10.0,0.0,0.0,0.0,10.0,0.0,0.0,0.0,10.0,0.147672282445,0.0468716351854,-0.136087531703,1.0,0.0,0.0,0.0,1.0,0.0,0.0,0.0,1.0,-1.456171875,-3.12310546875,9.12143188477,0.1,0.0,0.0,0.0,0.1,0.0,0.0,0.0,0.1
1446040894562760766,2722,1446040894559530019,robocape,-23.5240297217,33.3854144012,7.45518293518,0.0,10.0,0.0,0.0,0.0,10.0,0.0,0.0,0.0,10.0,0.0881506320816,0.050200586548,-0.067377975579,1.0,0.0,0.0,0.0,1.0,0.0,0.0,0.0,1.0,-1.05740112305,-3.16621582031,9.2316027832,0.1,0.0,0.0,0.0,0.1,0.0,0.0,0.0,0.1
1446040894593654558,2723,1446040894589951038,robocape,-23.4834941449,33.3472715312,7.56576292493,0.0,10.0,0.0,0.0,0.0,10.0,0.0,0.0,0.0,10.0,-0.0621848114534,0.0270310850643,0.0653806047614,1.0,0.0,0.0,0.0,1.0,0.0,0.0,0.0,1.0,-0.684975585938,-3.52786376953,9.07353149414,0.1,0.0,0.0,0.0,0.1,0.0,0.0,0.0,0.1
1446040894630765599,2724,1446040894627455949,robocape,-23.3605560069,33.2835905301,7.75910979687,0.0,10.0,0.0,0.0,0.0,10.0,0.0,0.0,0.0,10.0,-0.0407463646782,-0.00226368692657,0.0925448478803,1.0,0.0,0.0,0.0,1.0,0.0,0.0,0.0,1.0,-1.2226574707,-3.33865722656,9.17651733398,0.1,0.0,0.0,0.0,0.1,0.0,0.0,0.0,0.1
1446040894662080474,2725,1446040894659091949,robocape,-23.2539332272,33.2134560823,7.91049681636,0.0,10.0,0.0,0.0,0.0,10.0,0.0,0.0,0.0,10.0,-0.0364853069341,0.00119842249054,0.0744353524677,1.0,0.0,0.0,0.0,1.0,0.0,0.0,0.0,1.0,-1.83099243164,-3.22848632813,9.24477539063,0.1,0.0,0.0,0.0,0.1,0.0,0.0,0.0,0.1
1446040894693249974,2726,1446040894690223932,robocape,-23.1544150416,33.133559914,7.81168975098,0.0,10.0,0.0,0.0,0.0,10.0,0.0,0.0,0.0,10.0,0.0360858327706,0.0344879361165,-0.0307595105904,1.0,0.0,0.0,0.0,1.0,0.0,0.0,0.0,1.0,-1.75315429688,-3.18896850586,9.17412231445,0.1,0.0,0.0,0.0,0.1,0.0,0.0,0.0,0.1
1446040894722978141,2727,1446040894719984054,robocape,-23.0442470634,33.0496195878,7.57278640453,0.0,10.0,0.0,0.0,0.0,10.0,0.0,0.0,0.0,10.0,0.084821680719,0.0529969056926,-0.0901480028992,1.0,0.0,0.0,0.0,1.0,0.0,0.0,0.0,1.0,-1.52203491211,-3.24405395508,9.15615966797,0.1,0.0,0.0,0.0,0.1,0.0,0.0,0.0,0.1
1446040894758646974,2728,1446040894755367040,robocape,-22.9323800366,32.9653903167,7.38211396002,0.0,10.0,0.0,0.0,0.0,10.0,0.0,0.0,0.0,10.0,0.0716390333231,0.0448742643678,-0.0709732430506,1.0,0.0,0.0,0.0,1.0,0.0,0.0,0.0,1.0,-0.980760498047,-3.34943481445,9.00048339844,0.1,0.0,0.0,0.0,0.1,0.0,0.0,0.0,0.1
1446040894793769891,2729,1446040894790608882,robocape,-22.8122845453,32.8941181092,7.37763409409,0.0,10.0,0.0,0.0,0.0,10.0,0.0,0.0,0.0,10.0,0.0202400242846,0.0225037112112,0.00838895743375,1.0,0.0,0.0,0.0,1.0,0.0,0.0,0.0,1.0,-1.02866088867,-3.32189208984,9.09508666992,0.1,0.0,0.0,0.0,0.1,0.0,0.0,0.0,0.1
1446040894826267808,2730,1446040894822819948,robocape,-22.7481341845,32.8398372727,7.46378213005,0.0,10.0,0.0,0.0,0.0,10.0,0.0,0.0,0.0,10.0,-0.0379500455336,0.0191747598486,0.050466902657,1.0,0.0,0.0,0.0,1.0,0.0,0.0,0.0,1.0,-1.24541015625,-3.18178344727,9.20525756836,0.1,0.0,0.0,0.0,0.1,0.0,0.0,0.0,0.1
1446040894857749475,2731,1446040894854159116,robocape,-22.7427319843,32.8221828249,7.69229526626,0.0,10.0,0.0,0.0,0.0,10.0,0.0,0.0,0.0,10.0,-0.11411645271,0.0186421276306,0.118776984618,1.0,0.0,0.0,0.0,1.0,0.0,0.0,0.0,1.0,-1.28612548828,-3.23926391602,9.07592651367,0.1,0.0,0.0,0.0,0.1,0.0,0.0,0.0,0.1
1446040894893455266,2732,1446040894890250921,robocape,-22.815266673,32.8132330274,8.05351348981,0.0,10.0,0.0,0.0,0.0,10.0,0.0,0.0,0.0,10.0,-0.197473394829,0.00559263828917,0.177632844708,1.0,0.0,0.0,0.0,1.0,0.0,0.0,0.0,1.0,-0.857416992188,-3.41529785156,9.01126098633,0.1,0.0,0.0,0.0,0.1,0.0,0.0,0.0,0.1
1446040894924906933,2733,1446040894921930074,robocape,-22.8236348546,32.7992753079,8.51606528872,0.0,10.0,0.0,0.0,0.0,10.0,0.0,0.0,0.0,10.0,-0.193079179031,-0.0143810698864,0.21877868355,1.0,0.0,0.0,0.0,1.0,0.0,0.0,0.0,1.0,-1.40587646484,-3.36380493164,9.21124511719,0.1,0.0,0.0,0.0,0.1,0.0,0.0,0.0,0.1
1446040894957518850,2734,1446040894954572916,robocape,-22.8134028603,32.7468453934,8.67278618629,0.0,10.0,0.0,0.0,0.0,10.0,0.0,0.0,0.0,10.0,-0.0901480028992,0.0113184346328,0.0836232582285,1.0,0.0,0.0,0.0,1.0,0.0,0.0,0.0,1.0,-2.30999633789,-3.4835559082,8.98491577148,0.1,0.0,0.0,0.0,0.1,0.0,0.0,0.0,0.1
1446040894988780516,2735,1446040894985476970,robocape,-22.727513619,32.6539781462,8.59136631391,0.0,10.0,0.0,0.0,0.0,10.0,0.0,0.0,0.0,10.0,0.0245010820287,0.0233026595382,-0.0256995045193,1.0,0.0,0.0,0.0,1.0,0.0,0.0,0.0,1.0,-1.76153686523,-3.22010375977,9.08071655273,0.1,0.0,0.0,0.0,0.1,0.0,0.0,0.0,0.1
1446040895026785766,2736,1446040895023359060,robocape,-22.6527487554,32.5677186427,8.52813698912,0.0,10.0,0.0,0.0,0.0,10.0,0.0,0.0,0.0,10.0,0.0130494893414,0.0239684498107,-0.0167779148675,1.0,0.0,0.0,0.0,1.0,0.0,0.0,0.0,1.0,-0.843046875,-3.41769287109,9.0052734375,0.1,0.0,0.0,0.0,0.1,0.0,0.0,0.0,0.1
1446040895063150766,2737,1446040895059992074,robocape,-22.5097931354,32.5415107208,8.63750773057,0.0,10.0,0.0,0.0,0.0,10.0,0.0,0.0,0.0,10.0,-0.00266316109008,0.0271642431188,0.0675111336335,1.0,0.0,0.0,0.0,1.0,0.0,0.0,0.0,1.0,-1.18912719727,-3.29075683594,9.0471862793,0.1,0.0,0.0,0.0,0.1,0.0,0.0,0.0,0.1
1446040895093530683,2738,1446040895090229034,robocape,-22.4148663905,32.4833348542,8.6415521057,0.0,10.0,0.0,0.0,0.0,10.0,0.0,0.0,0.0,10.0,0.00372842552611,0.0274305592278,0.017177389031,1.0,0.0,0.0,0.0,1.0,0.0,0.0,0.0,1.0,-1.79985717773,-3.3721875,8.98252075195,0.1,0.0,0.0,0.0,0.1,0.0,0.0,0.0,0.1
1446040895126305391,2739,1446040895122736930,robocape,-22.3350645979,32.4041972306,8.57952180827,0.0,10.0,0.0,0.0,0.0,10.0,0.0,0.0,0.0,10.0,0.016112124595,0.0263652947918,-0.0150468601589,1.0,0.0,0.0,0.0,1.0,0.0,0.0,0.0,1.0,-1.36516113281,-3.41529785156,9.04119873047,0.1,0.0,0.0,0.0,0.1,0.0,0.0,0.0,0.1
1446040895162403558,2740,1446040895159420013,robocape,-22.2467295799,32.3425856343,8.56917686846,0.0,10.0,0.0,0.0,0.0,10.0,0.0,0.0,0.0,10.0,0.00519316412565,0.0272974011733,0.0101200121423,1.0,0.0,0.0,0.0,1.0,0.0,0.0,0.0,1.0,-1.1112890625,-3.40092773438,9.18609741211,0.1,0.0,0.0,0.0,0.1,0.0,0.0,0.0,0.1
1446040895197174808,2741,1446040895194111108,robocape,-22.1545553495,32.284839289,8.57152713117,0.0,10.0,0.0,0.0,0.0,10.0,0.0,0.0,0.0,10.0,0.00372842552611,0.0270310850643,0.016112124595,1.0,0.0,0.0,0.0,1.0,0.0,0.0,0.0,1.0,-1.46934448242,-3.42727294922,8.89270751953,0.1,0.0,0.0,0.0,0.1,0.0,0.0,0.0,0.1
1446040895228443141,2742,1446040895225255966,robocape,-21.9918409102,32.2051821931,8.48800297462,0.0,10.0,0.0,0.0,0.0,10.0,0.0,0.0,0.0,10.0,0.0689758722331,0.0255663464648,-0.0259658206283,1.0,0.0,0.0,0.0,1.0,0.0,0.0,0.0,1.0,-1.49329467773,-3.34224975586,9.05437133789,0.1,0.0,0.0,0.0,0.1,0.0,0.0,0.0,0.1
1446040895261816766,2743,1446040895258824110,robocape,-21.8112730605,32.0912326587,8.33664359008,0.0,10.0,0.0,0.0,0.0,10.0,0.0,0.0,0.0,10.0,0.100401173096,0.0162452826495,-0.0625842856169,1.0,0.0,0.0,0.0,1.0,0.0,0.0,0.0,1.0,-1.4944921875,-3.66437988281,8.89989257812,0.1,0.0,0.0,0.0,0.1,0.0,0.0,0.0,0.1
1446040895306301391,2744,1446040895303217887,robocape,-21.6365637089,31.9871006929,8.07712839076,0.0,10.0,0.0,0.0,0.0,10.0,0.0,0.0,0.0,10.0,0.129030154814,0.0367516230431,-0.106526443603,1.0,0.0,0.0,0.0,1.0,0.0,0.0,0.0,1.0,-1.39629638672,-3.31350952148,9.08071655273,0.1,0.0,0.0,0.0,0.1,0.0,0.0,0.0,0.1
1446040895341301600,2745,1446040895338162899,robocape,-21.5752347159,31.9254317174,7.87044468613,0.0,10.0,0.0,0.0,0.0,10.0,0.0,0.0,0.0,10.0,0.050466902657,0.0544616442921,-0.0743021944132,1.0,0.0,0.0,0.0,1.0,0.0,0.0,0.0,1.0,-1.50886230469,-3.0273046875,9.21364013672,0.1,0.0,0.0,0.0,0.1,0.0,0.0,0.0,0.1
1446040895375734141,2746,1446040895372164964,robocape,-21.5134845335,31.8721055857,7.79945284628,0.0,10.0,0.0,0.0,0.0,10.0,0.0,0.0,0.0,10.0,0.0111852765783,0.0387489938607,-0.0157126504315,1.0,0.0,0.0,0.0,1.0,0.0,0.0,0.0,1.0,-0.907712402344,-3.36979248047,8.8519921875,0.1,0.0,0.0,0.0,0.1,0.0,0.0,0.0,0.1
1446040895411305725,2747,1446040895408240079,robocape,-21.3994360079,31.8142820226,7.89309251496,0.0,10.0,0.0,0.0,0.0,10.0,0.0,0.0,0.0,10.0,-0.00759000910673,0.0105194863058,0.052064799311,1.0,0.0,0.0,0.0,1.0,0.0,0.0,0.0,1.0,-1.16757202148,-3.28117675781,9.09628417969,0.1,0.0,0.0,0.0,0.1,0.0,0.0,0.0,0.1
1446040895446586516,2748,1446040895443576097,robocape,-21.4236568552,31.7831974285,8.05737087702,0.0,10.0,0.0,0.0,0.0,10.0,0.0,0.0,0.0,10.0,-0.104529072786,0.0183758115215,0.0896153706812,1.0,0.0,0.0,0.0,1.0,0.0,0.0,0.0,1.0,-1.48371459961,-3.16262329102,9.27112060547,0.1,0.0,0.0,0.0,0.1,0.0,0.0,0.0,0.1
1446040895480412725,2749,1446040895476497888,robocape,-21.4771895574,31.7608251356,8.30117391946,0.0,10.0,0.0,0.0,0.0,10.0,0.0,0.0,0.0,10.0,-0.144210173028,0.0122505410144,0.125967519561,1.0,0.0,0.0,0.0,1.0,0.0,0.0,0.0,1.0,-1.11967163086,-3.32787963867,8.97773071289,0.1,0.0,0.0,0.0,0.1,0.0,0.0,0.0,0.1
1446040895514256975,2750,1446040895510683059,robocape,-21.4732503542,31.7241958401,8.43297181541,0.0,10.0,0.0,0.0,0.0,10.0,0.0,0.0,0.0,10.0,-0.0800279907569,0.0193079179031,0.0752343007947,1.0,0.0,0.0,0.0,1.0,0.0,0.0,0.0,1.0,-1.66094604492,-3.37098999023,9.0819140625,0.1,0.0,0.0,0.0,0.1,0.0,0.0,0.0,0.1
1446040895545477725,2751,1446040895541737079,robocape,-21.4313240207,31.6569630774,8.4179143832,0.0,10.0,0.0,0.0,0.0,10.0,0.0,0.0,0.0,10.0,-0.015579492377,0.0231695014837,0.00612527050718,1.0,0.0,0.0,0.0,1.0,0.0,0.0,0.0,1.0,-1.84057250977,-3.50151855469,8.97413818359,0.1,0.0,0.0,0.0,0.1,0.0,0.0,0.0,0.1
1446040895576746808,2752,1446040895573297977,robocape,-21.2849546477,31.5626024135,8.2649521052,0.0,10.0,0.0,0.0,0.0,10.0,0.0,0.0,0.0,10.0,0.082691151847,0.0253000303558,-0.0597879664723,1.0,0.0,0.0,0.0,1.0,0.0,0.0,0.0,1.0,-1.37953125,-3.43805053711,9.08311157227,0.1,0.0,0.0,0.0,0.1,0.0,0.0,0.0,0.1
1446040895608688808,2753,1446040895605274915,robocape,-21.0940298764,31.4726659157,8.10200633225,0.0,10.0,0.0,0.0,0.0,10.0,0.0,0.0,0.0,10.0,0.110254869129,0.0271642431188,-0.0641821822709,1.0,0.0,0.0,0.0,1.0,0.0,0.0,0.0,1.0,-1.22026245117,-3.40452026367,9.09388916016,0.1,0.0,0.0,0.0,0.1,0.0,0.0,0.0,0.1
1446040895645252767,2754,1446040895641757965,robocape,-20.9003462431,31.3821520129,7.88715399029,0.0,10.0,0.0,0.0,0.0,10.0,0.0,0.0,0.0,10.0,0.127165942051,0.033555829735,-0.0869522095911,1.0,0.0,0.0,0.0,1.0,0.0,0.0,0.0,1.0,-1.6058605957,-3.46439575195,9.10346923828,0.1,0.0,0.0,0.0,0.1,0.0,0.0,0.0,0.1
1446040895676402683,2755,1446040895673296928,robocape,-20.7353899898,31.2929698519,7.58108201904,0.0,10.0,0.0,0.0,0.0,10.0,0.0,0.0,0.0,10.0,0.137951744466,0.0474042674034,-0.125834361506,1.0,0.0,0.0,0.0,1.0,0.0,0.0,0.0,1.0,-1.62981079102,-3.20812866211,9.14777709961,0.1,0.0,0.0,0.0,0.1,0.0,0.0,0.0,0.1
1446040895706923850,2756,1446040895703912973,robocape,-20.6062706657,31.2167525518,7.28890832406,0.0,10.0,0.0,0.0,0.0,10.0,0.0,0.0,0.0,10.0,0.114382768819,0.0527305895836,-0.117578562127,1.0,0.0,0.0,0.0,1.0,0.0,0.0,0.0,1.0,-1.19271972656,-3.29315185547,9.19088745117,0.1,0.0,0.0,0.0,0.1,0.0,0.0,0.0,0.1
1446040895741361808,2757,1446040895738322973,robocape,-20.4909115837,31.1383805277,7.08937312811,0.0,10.0,0.0,0.0,0.0,10.0,0.0,0.0,0.0,10.0,0.0809600971384,0.0383495196971,-0.0789627263208,1.0,0.0,0.0,0.0,1.0,0.0,0.0,0.0,1.0,-0.946032714844,-3.3685949707,9.04119873047,0.1,0.0,0.0,0.0,0.1,0.0,0.0,0.0,0.1
1446040895777367308,2758,1446040895773597955,robocape,-20.3983626277,31.0847065516,7.1050715345,0.0,10.0,0.0,0.0,0.0,10.0,0.0,0.0,0.0,10.0,0.00719053494321,0.0213052887206,0.0178431793035,1.0,0.0,0.0,0.0,1.0,0.0,0.0,0.0,1.0,-1.00830322266,-3.2919543457,9.06395141602,0.1,0.0,0.0,0.0,0.1,0.0,0.0,0.0,0.1
1446040895808093017,2759,1446040895805094957,robocape,-20.3117980914,31.0350283648,7.19311910955,0.0,10.0,0.0,0.0,0.0,10.0,0.0,0.0,0.0,10.0,-0.016378440704,0.0131826473959,0.04966795433,1.0,0.0,0.0,0.0,1.0,0.0,0.0,0.0,1.0,-1.37953125,-3.14106811523,9.15017211914,0.1,0.0,0.0,0.0,0.1,0.0,0.0,0.0,0.1
1446040895845865517,2760,1446040895842206001,robocape,-20.3561327949,31.0157338894,7.32129033914,0.0,10.0,0.0,0.0,0.0,10.0,0.0,0.0,0.0,10.0,-0.099868540878,0.0271642431188,0.0745685105222,1.0,0.0,0.0,0.0,1.0,0.0,0.0,0.0,1.0,-1.48610961914,-3.14346313477,9.21723266602,0.1,0.0,0.0,0.0,0.1,0.0,0.0,0.0,0.1
1446040895877512350,2761,1446040895874337911,robocape,-20.331468952,30.9875005996,7.49112185858,0.0,10.0,0.0,0.0,0.0,10.0,0.0,0.0,0.0,10.0,-0.0739027202497,0.0146473859954,0.0901480028992,1.0,0.0,0.0,0.0,1.0,0.0,0.0,0.0,1.0,-0.959205322266,-3.4105078125,8.96096557617,0.1,0.0,0.0,0.0,0.1,0.0,0.0,0.0,0.1
1446040895908800808,2762,1446040895905841112,robocape,-20.2406029805,30.9353562846,7.61973396638,0.0,10.0,0.0,0.0,0.0,10.0,0.0,0.0,0.0,10.0,-0.0254331884103,0.00585895439817,0.0672448175245,1.0,0.0,0.0,0.0,1.0,0.0,0.0,0.0,1.0,-1.45138183594,-3.46439575195,9.01126098633,0.1,0.0,0.0,0.0,0.1,0.0,0.0,0.0,0.1
1446040895944071808,2763,1446040895941059112,robocape,-20.1325412742,30.8751972934,7.62164050302,0.0,10.0,0.0,0.0,0.0,10.0,0.0,0.0,0.0,10.0,0.0201068662301,0.0186421276306,0.0111852765783,1.0,0.0,0.0,0.0,1.0,0.0,0.0,0.0,1.0,-1.62382324219,-3.1841784668,9.34177368164,0.1,0.0,0.0,0.0,0.1,0.0,0.0,0.0,0.1
1446040895975810767,2764,1446040895972837924,robocape,-20.0279924576,30.8048598823,7.42942503669,0.0,10.0,0.0,0.0,0.0,10.0,0.0,0.0,0.0,10.0,0.0733700880317,0.0399474163512,-0.0744353524677,1.0,0.0,0.0,0.0,1.0,0.0,0.0,0.0,1.0,-1.80943725586,-3.3374597168,9.10825927734,0.1,0.0,0.0,0.0,0.1,0.0,0.0,0.0,0.1
1446040896008450558,2765,1446040896005331039,robocape,-19.9260763305,30.7405639551,7.20213825194,0.0,10.0,0.0,0.0,0.0,10.0,0.0,0.0,0.0,10.0,0.0818922035199,0.0476705835124,-0.0888164223541,1.0,0.0,0.0,0.0,1.0,0.0,0.0,0.0,1.0,-1.27894042969,-3.26560913086,9.09269165039,0.1,0.0,0.0,0.0,0.1,0.0,0.0,0.0,0.1
1446040896042134142,2766,1446040896039001941,robocape,-19.8254798543,30.6868047236,7.07852009914,0.0,10.0,0.0,0.0,0.0,10.0,0.0,0.0,0.0,10.0,0.0521979573656,0.0386158358061,-0.0426105774413,1.0,0.0,0.0,0.0,1.0,0.0,0.0,0.0,1.0,-1.07416625977,-3.29075683594,9.06754394531,0.1,0.0,0.0,0.0,0.1,0.0,0.0,0.0,0.1
1446040896077677017,2767,1446040896074414968,robocape,-19.7331387022,30.6388062067,7.08776844172,0.0,10.0,0.0,0.0,0.0,10.0,0.0,0.0,0.0,10.0,0.0107858024148,0.0233026595382,0.015579492377,1.0,0.0,0.0,0.0,1.0,0.0,0.0,0.0,1.0,-1.07177124023,-3.34105224609,9.06395141602,0.1,0.0,0.0,0.0,0.1,0.0,0.0,0.0,0.1
1446040896110789183,2768,1446040896106961965,robocape,-19.6862864077,30.5966124467,7.17047741388,0.0,10.0,0.0,0.0,0.0,10.0,0.0,0.0,0.0,10.0,-0.034354778062,0.0173105470855,0.048869006003,1.0,0.0,0.0,0.0,1.0,0.0,0.0,0.0,1.0,-1.32205078125,-3.13627807617,9.16334472656,0.1,0.0,0.0,0.0,0.1,0.0,0.0,0.0,0.1
1446040896147703808,2769,1446040896144181013,robocape,-19.7260511127,30.5869618676,7.39540072246,0.0,10.0,0.0,0.0,0.0,10.0,0.0,0.0,0.0,10.0,-0.121972777926,0.0173105470855,0.117711720182,1.0,0.0,0.0,0.0,1.0,0.0,0.0,0.0,1.0,-1.13643676758,-3.52307373047,9.01245849609,0.1,0.0,0.0,0.0,0.1,0.0,0.0,0.0,0.1
1446040896180956725,2770,1446040896177948951,robocape,-19.6777465308,30.536849713,7.52131472879,0.0,10.0,0.0,0.0,0.0,10.0,0.0,0.0,0.0,10.0,-0.0455400546404,0.00705737688871,0.066579027252,1.0,0.0,0.0,0.0,1.0,0.0,0.0,0.0,1.0,-1.36995117188,-3.26920166016,9.23759033203,0.1,0.0,0.0,0.0,0.1,0.0,0.0,0.0,0.1
1446040896212147808,2771,1446040896208950996,robocape,-19.747772092,30.5235671112,7.76463506774,0.0,10.0,0.0,0.0,0.0,10.0,0.0,0.0,0.0,10.0,-0.14367754081,0.0135821215594,0.126100677615,1.0,0.0,0.0,0.0,1.0,0.0,0.0,0.0,1.0,-1.59987304688,-3.21890625,9.18489990234,0.1,0.0,0.0,0.0,0.1,0.0,0.0,0.0,0.1
1446040896250811059,2772,1446040896246716976,robocape,-19.811439902,30.494730439,8.00855076756,0.0,10.0,0.0,0.0,0.0,10.0,0.0,0.0,0.0,10.0,-0.140348589447,0.00506000607115,0.123836990689,1.0,0.0,0.0,0.0,1.0,0.0,0.0,0.0,1.0,-1.09572143555,-3.42008789063,9.03161865234,0.1,0.0,0.0,0.0,0.1,0.0,0.0,0.0,0.1
1446040896291125559,2773,1446040896287691116,robocape,-19.7252673013,30.4468285448,8.04688301281,0.0,10.0,0.0,0.0,0.0,10.0,0.0,0.0,0.0,10.0,-0.00119842249054,0.0191747598486,0.0298274042089,1.0,0.0,0.0,0.0,1.0,0.0,0.0,0.0,1.0,-1.69088378906,-3.39853271484,9.0819140625,0.1,0.0,0.0,0.0,0.1,0.0,0.0,0.0,0.1
1446040896322948767,2774,1446040896319829940,robocape,-19.5561491866,30.3529107302,7.90297791169,0.0,10.0,0.0,0.0,0.0,10.0,0.0,0.0,0.0,10.0,0.0961401153519,0.0170442309765,-0.0591221761998,1.0,0.0,0.0,0.0,1.0,0.0,0.0,0.0,1.0,-1.93517578125,-3.4907409668,8.93701538086,0.1,0.0,0.0,0.0,0.1,0.0,0.0,0.0,0.1
1446040896359900517,2775,1446040896356627941,robocape,-19.3502946857,30.2624592101,7.61040294597,0.0,10.0,0.0,0.0,0.0,10.0,0.0,0.0,0.0,10.0,0.157525978478,0.0374174133156,-0.123836990689,1.0,0.0,0.0,0.0,1.0,0.0,0.0,0.0,1.0,-1.36995117188,-2.81893798828,9.05437133789,0.1,0.0,0.0,0.0,0.1,0.0,0.0,0.0,0.1
1446040896395301600,2776,1446040896392148017,robocape,-19.2551139299,30.2432132593,7.54085473255,0.0,10.0,0.0,0.0,0.0,10.0,0.0,0.0,0.0,10.0,0.034354778062,0.0476705835124,-0.0127831732324,1.0,0.0,0.0,0.0,1.0,0.0,0.0,0.0,1.0,-1.37713623047,-3.16382080078,8.86276977539,0.1,0.0,0.0,0.0,0.1,0.0,0.0,0.0,0.1
1446040896429989559,2777,1446040896426791906,robocape,-19.2508221748,30.2196996998,7.67367398548,0.0,10.0,0.0,0.0,0.0,10.0,0.0,0.0,0.0,10.0,-0.0704406108326,0.0203731823391,0.0752343007947,1.0,0.0,0.0,0.0,1.0,0.0,0.0,0.0,1.0,-0.786763916016,-3.66318237305,9.00048339844,0.1,0.0,0.0,0.0,0.1,0.0,0.0,0.0,0.1
1446040896467610559,2778,1446040896464292049,robocape,-19.2550988211,30.194387116,7.93060184615,0.0,10.0,0.0,0.0,0.0,10.0,0.0,0.0,0.0,10.0,-0.109322762748,0.00292947719909,0.129296470923,1.0,0.0,0.0,0.0,1.0,0.0,0.0,0.0,1.0,-1.30049560547,-3.13747558594,9.05077880859,0.1,0.0,0.0,0.0,0.1,0.0,0.0,0.0,0.1
1446040896497940059,2779,1446040896494631052,robocape,-19.1331617848,30.1595668367,7.93818008593,0.0,10.0,0.0,0.0,0.0,10.0,0.0,0.0,0.0,10.0,0.0280963495003,0.0280963495003,0.017976337358,1.0,0.0,0.0,0.0,1.0,0.0,0.0,0.0,1.0,-1.81781982422,-3.20214111328,9.22082519531,0.1,0.0,0.0,0.0,0.1,0.0,0.0,0.0,0.1
1446040896529517767,2780,1446040896526259899,robocape,-19.0133081988,30.0765033671,7.7716412073,0.0,10.0,0.0,0.0,0.0,10.0,0.0,0.0,0.0,10.0,0.0764327232853,0.0253000303558,-0.06711165947,1.0,0.0,0.0,0.0,1.0,0.0,0.0,0.0,1.0,-1.71483398438,-3.83801879883,9.06754394531,0.1,0.0,0.0,0.0,0.1,0.0,0.0,0.0,0.1
1446040896564810059,2781,1446040896561377048,robocape,-18.8725640094,29.9960811621,7.43187532667,0.0,10.0,0.0,0.0,0.0,10.0,0.0,0.0,0.0,10.0,0.135421741431,0.0486026898939,-0.142878592483,1.0,0.0,0.0,0.0,1.0,0.0,0.0,0.0,1.0,-1.37354370117,-3.26201660156,9.20645507812,0.1,0.0,0.0,0.0,0.1,0.0,0.0,0.0,0.1
1446040896596254184,2782,1446040896593107938,robocape,-18.7126424407,29.9288161928,7.10696766665,0.0,10.0,0.0,0.0,0.0,10.0,0.0,0.0,0.0,10.0,0.141680169992,0.0525974315291,-0.134889109213,1.0,0.0,0.0,0.0,1.0,0.0,0.0,0.0,1.0,-1.47533203125,-2.88599853516,9.31063842773,0.1,0.0,0.0,0.0,0.1,0.0,0.0,0.0,0.1
1446040896635892392,2783,1446040896632601022,robocape,-18.7345541069,29.897799857,7.00920220163,0.0,10.0,0.0,0.0,0.0,10.0,0.0,0.0,0.0,10.0,-0.0193079179031,0.0462058449129,-0.0278300333913,1.0,0.0,0.0,0.0,1.0,0.0,0.0,0.0,1.0,-0.990340576172,-3.13747558594,8.99329833984,0.1,0.0,0.0,0.0,0.1,0.0,0.0,0.0,0.1
1446040896671723142,2784,1446040896668248891,robocape,-18.6512828288,29.8587622921,7.09097044759,0.0,10.0,0.0,0.0,0.0,10.0,0.0,0.0,0.0,10.0,-0.0107858024148,0.015579492377,0.0479368996214,1.0,0.0,0.0,0.0,1.0,0.0,0.0,0.0,1.0,-0.526904296875,-3.11352539062,9.01605102539,0.1,0.0,0.0,0.0,0.1,0.0,0.0,0.0,0.1
1446040896703288059,2785,1446040896699958086,robocape,-18.541744025,29.8152827513,7.28716843641,0.0,10.0,0.0,0.0,0.0,10.0,0.0,0.0,0.0,10.0,-0.0272974011733,-0.00253000303558,0.0970722217334,1.0,0.0,0.0,0.0,1.0,0.0,0.0,0.0,1.0,-1.41665405273,-3.23567138672,8.95976806641,0.1,0.0,0.0,0.0,0.1,0.0,0.0,0.0,0.1
1446040896738945309,2786,1446040896735965967,robocape,-18.4741442544,29.7628002204,7.26593070717,0.0,10.0,0.0,0.0,0.0,10.0,0.0,0.0,0.0,10.0,0.00932106381528,0.0219710789932,0.000932106381528,1.0,0.0,0.0,0.0,1.0,0.0,0.0,0.0,1.0,-1.74117919922,-3.22489379883,9.24118286133,0.1,0.0,0.0,0.0,0.1,0.0,0.0,0.0,0.1
1446040896774743809,2787,1446040896771611928,robocape,-18.4041261545,29.7325126258,7.09609936857,0.0,10.0,0.0,0.0,0.0,10.0,0.0,0.0,0.0,10.0,0.050466902657,0.0528637476381,-0.0603205986903,1.0,0.0,0.0,0.0,1.0,0.0,0.0,0.0,1.0,-1.62861328125,-3.17220336914,9.22920776367,0.1,0.0,0.0,0.0,0.1,0.0,0.0,0.0,0.1
1446040896812197809,2788,1446040896809139966,robocape,-18.4787346671,29.7278748366,7.06479043853,0.0,10.0,0.0,0.0,0.0,10.0,0.0,0.0,0.0,10.0,-0.065780078925,0.0519316412565,0.00612527050718,1.0,0.0,0.0,0.0,1.0,0.0,0.0,0.0,1.0,-1.07177124023,-3.40811279297,8.90588012695,0.1,0.0,0.0,0.0,0.1,0.0,0.0,0.0,0.1
1446040896843464600,2789,1446040896840239048,robocape,-18.412444176,29.6994205715,7.22475455734,0.0,10.0,0.0,0.0,0.0,10.0,0.0,0.0,0.0,10.0,-0.0406132066237,0.0109189604693,0.084289048501,1.0,0.0,0.0,0.0,1.0,0.0,0.0,0.0,1.0,-0.499361572266,-3.64162719727,8.89749755859,0.1,0.0,0.0,0.0,0.1,0.0,0.0,0.0,0.1
1446040896877529517,2790,1446040896874306917,robocape,-18.3156306134,29.6431485743,7.4677343105,0.0,10.0,0.0,0.0,0.0,10.0,0.0,0.0,0.0,10.0,-0.0456732126949,-0.0154463343225,0.115714349364,1.0,0.0,0.0,0.0,1.0,0.0,0.0,0.0,1.0,-1.44060424805,-3.49433349609,8.99928588867,0.1,0.0,0.0,0.0,0.1,0.0,0.0,0.0,0.1
1446040896916711267,2791,1446040896913508892,robocape,-18.211463927,29.5899044357,7.46651600643,0.0,10.0,0.0,0.0,0.0,10.0,0.0,0.0,0.0,10.0,0.0242347659197,0.01744370514,0.00932106381528,1.0,0.0,0.0,0.0,1.0,0.0,0.0,0.0,1.0,-1.85853515625,-3.26560913086,9.3082434082,0.1,0.0,0.0,0.0,0.1,0.0,0.0,0.0,0.1
1446040896951867601,2792,1446040896948144912,robocape,-18.1027754036,29.5345110256,7.21524447208,0.0,10.0,0.0,0.0,0.0,10.0,0.0,0.0,0.0,10.0,0.0942759025888,0.0479368996214,-0.101200121423,1.0,0.0,0.0,0.0,1.0,0.0,0.0,0.0,1.0,-1.69806884766,-3.21651123047,9.25196044922,0.1,0.0,0.0,0.0,0.1,0.0,0.0,0.0,0.1
1446040896982947851,2793,1446040896979715108,robocape,-17.9974275604,29.4989056377,6.88692774716,0.0,10.0,0.0,0.0,0.0,10.0,0.0,0.0,0.0,10.0,0.112918030219,0.0680437658515,-0.132092790068,1.0,0.0,0.0,0.0,1.0,0.0,0.0,0.0,1.0,-1.35917358398,-3.29434936523,9.10586425781,0.1,0.0,0.0,0.0,0.1,0.0,0.0,0.0,0.1
1446040897015432184,2794,1446040897012175083,robocape,-17.9151364951,29.4584641359,6.64775204766,0.0,10.0,0.0,0.0,0.0,10.0,0.0,0.0,0.0,10.0,0.0769653555033,0.0543284862376,-0.0941427445343,1.0,0.0,0.0,0.0,1.0,0.0,0.0,0.0,1.0,-1.0693762207,-3.38416259766,9.09029663086,0.1,0.0,0.0,0.0,0.1,0.0,0.0,0.0,0.1
1446040897048633976,2795,1446040897045557975,robocape,-17.7661039495,29.4025826205,6.59832076673,0.0,10.0,0.0,0.0,0.0,10.0,0.0,0.0,0.0,10.0,0.0629837597804,0.0201068662301,-0.0143810698864,1.0,0.0,0.0,0.0,1.0,0.0,0.0,0.0,1.0,-0.9196875,-3.32907714844,9.09508666992,0.1,0.0,0.0,0.0,0.1,0.0,0.0,0.0,0.1
1446040897084195434,2796,1446040897081146955,robocape,-17.6857000839,29.3576810669,6.68277950404,0.0,10.0,0.0,0.0,0.0,10.0,0.0,0.0,0.0,10.0,-0.00972053797879,0.0103863282513,0.0470047932399,1.0,0.0,0.0,0.0,1.0,0.0,0.0,0.0,1.0,-1.28852050781,-3.25004150391,9.02323608398,0.1,0.0,0.0,0.0,0.1,0.0,0.0,0.0,0.1
1446040897117859142,2797,1446040897114839076,robocape,-17.619748609,29.3154907894,6.72428530116,0.0,10.0,0.0,0.0,0.0,10.0,0.0,0.0,0.0,10.0,-0.00599211245268,0.01744370514,0.0287621397729,1.0,0.0,0.0,0.0,1.0,0.0,0.0,0.0,1.0,-1.48012207031,-3.17340087891,9.13699951172,0.1,0.0,0.0,0.0,0.1,0.0,0.0,0.0,0.1
1446040897154073642,2798,1446040897150973081,robocape,-17.5702183191,29.2768107216,6.67207635887,0.0,10.0,0.0,0.0,0.0,10.0,0.0,0.0,0.0,10.0,0.0101200121423,0.0312921428084,-0.0118510668509,1.0,0.0,0.0,0.0,1.0,0.0,0.0,0.0,1.0,-1.456171875,-3.13148803711,9.17412231445,0.1,0.0,0.0,0.0,0.1,0.0,0.0,0.0,0.1
1446040897188603059,2799,1446040897184809923,robocape,-17.5371679354,29.2616824276,6.66401682704,0.0,10.0,0.0,0.0,0.0,10.0,0.0,0.0,0.0,10.0,-0.0109189604693,0.0386158358061,0.0117179087963,1.0,0.0,0.0,0.0,1.0,0.0,0.0,0.0,1.0,-1.30408813477,-3.18537597656,9.12143188477,0.1,0.0,0.0,0.0,0.1,0.0,0.0,0.0,0.1
1446040897217960017,2800,1446040897214700937,robocape,-17.6405271338,29.2679683528,6.89261928928,0.0,10.0,0.0,0.0,0.0,10.0,0.0,0.0,0.0,10.0,-0.147938598554,0.0234358175927,0.121173829599,1.0,0.0,0.0,0.0,1.0,0.0,0.0,0.0,1.0,-0.829874267578,-3.35063232422,8.99090332031,0.1,0.0,0.0,0.0,0.1,0.0,0.0,0.0,0.1
1446040897253679434,2801,1446040897250216960,robocape,-17.7505123233,29.2627806219,7.34966806735,0.0,10.0,0.0,0.0,0.0,10.0,0.0,0.0,0.0,10.0,-0.212520254988,-0.0113184346328,0.220776054368,1.0,0.0,0.0,0.0,1.0,0.0,0.0,0.0,1.0,-0.886157226563,-3.49672851563,8.93102783203,0.1,0.0,0.0,0.0,0.1,0.0,0.0,0.0,0.1
1446040897296648392,2802,1446040897293282985,robocape,-17.8289417295,29.250672214,7.63104851051,0.0,10.0,0.0,0.0,0.0,10.0,0.0,0.0,0.0,10.0,-0.149270179099,0.00652474467069,0.142612276374,1.0,0.0,0.0,0.0,1.0,0.0,0.0,0.0,1.0,-1.82141235352,-3.07400756836,9.03161865234,0.1,0.0,0.0,0.0,0.1,0.0,0.0,0.0,0.1
1446040897327025142,2803,1446040897323540925,robocape,-17.7840988263,29.2069783309,7.7060064088,0.0,10.0,0.0,0.0,0.0,10.0,0.0,0.0,0.0,10.0,-0.0271642431188,0.0129163312869,0.0451405804768,1.0,0.0,0.0,0.0,1.0,0.0,0.0,0.0,1.0,-2.13036987305,-3.68114501953,9.03161865234,0.1,0.0,0.0,0.0,0.1,0.0,0.0,0.0,0.1
1446040897358672309,2804,1446040897355222940,robocape,-17.7498709941,29.1201514996,7.55039111228,0.0,10.0,0.0,0.0,0.0,10.0,0.0,0.0,0.0,10.0,0.0295610880999,0.0189084437396,-0.0643153403254,1.0,0.0,0.0,0.0,1.0,0.0,0.0,0.0,1.0,-1.17595458984,-3.60929443359,9.14418457031,0.1,0.0,0.0,0.0,0.1,0.0,0.0,0.0,0.1
1446040897395087976,2805,1446040897392087936,robocape,-17.6781947258,29.0897372519,7.56348365417,0.0,10.0,0.0,0.0,0.0,10.0,0.0,0.0,0.0,10.0,0.00386158358061,0.0267647689553,0.0195742340121,1.0,0.0,0.0,0.0,1.0,0.0,0.0,0.0,1.0,-0.738863525391,-3.37338500977,9.10346923828,0.1,0.0,0.0,0.0,0.1,0.0,0.0,0.0,0.1
1446040897430310476,2806,1446040897427289962,robocape,-17.6034483664,29.0729577061,7.61639766989,0.0,10.0,0.0,0.0,0.0,10.0,0.0,0.0,0.0,10.0,-0.00519316412565,0.0288952978274,0.0395479421877,1.0,0.0,0.0,0.0,1.0,0.0,0.0,0.0,1.0,-1.52562744141,-3.55301147461,9.04359375,0.1,0.0,0.0,0.0,0.1,0.0,0.0,0.0,0.1
1446040897465206017,2807,1446040897462186098,robocape,-17.535722206,29.0101780595,7.53847224587,0.0,10.0,0.0,0.0,0.0,10.0,0.0,0.0,0.0,10.0,0.0268979270098,0.0206394984481,-0.0263652947918,1.0,0.0,0.0,0.0,1.0,0.0,0.0,0.0,1.0,-1.80344970703,-3.66797241211,8.98970581055,0.1,0.0,0.0,0.0,0.1,0.0,0.0,0.0,0.1
1446040897496142184,2808,1446040897492995023,robocape,-17.3387755839,28.9573403994,7.43888336509,0.0,10.0,0.0,0.0,0.0,10.0,0.0,0.0,0.0,10.0,0.102398543914,0.0254331884103,-0.0356863586071,1.0,0.0,0.0,0.0,1.0,0.0,0.0,0.0,1.0,-1.35797607422,-3.36380493164,9.01844604492,0.1,0.0,0.0,0.0,0.1,0.0,0.0,0.0,0.1
1446040897530373142,2809,1446040897527090072,robocape,-17.0889777966,28.8823456385,7.32162023677,0.0,10.0,0.0,0.0,0.0,10.0,0.0,0.0,0.0,10.0,0.136487005867,0.0141147537774,-0.0480700576759,1.0,0.0,0.0,0.0,1.0,0.0,0.0,0.0,1.0,-1.01429077148,-3.4452355957,9.32860107422,0.1,0.0,0.0,0.0,0.1,0.0,0.0,0.0,0.1
1446040897565153059,2810,1446040897562150955,robocape,-16.9217047601,28.8127241227,7.16633498139,0.0,10.0,0.0,0.0,0.0,10.0,0.0,0.0,0.0,10.0,0.102265385859,0.0229031853747,-0.0636495500529,1.0,0.0,0.0,0.0,1.0,0.0,0.0,0.0,1.0,-1.6130456543,-3.59372680664,9.01605102539,0.1,0.0,0.0,0.0,0.1,0.0,0.0,0.0,0.1
1446040897599914642,2811,1446040897594969987,robocape,-16.7899615828,28.7625389013,6.97761213742,0.0,10.0,0.0,0.0,0.0,10.0,0.0,0.0,0.0,10.0,0.0917458995532,0.0376837294246,-0.0753674588492,1.0,0.0,0.0,0.0,1.0,0.0,0.0,0.0,1.0,-1.39749389648,-2.99497192383,9.26633056641,0.1,0.0,0.0,0.0,0.1,0.0,0.0,0.0,0.1
1446040897629360517,2812,1446040897626400947,robocape,-16.7028012946,28.7338822446,6.77263145577,0.0,10.0,0.0,0.0,0.0,10.0,0.0,0.0,0.0,10.0,0.0717721913776,0.051798483202,-0.0790958843754,1.0,0.0,0.0,0.0,1.0,0.0,0.0,0.0,1.0,-1.50047973633,-3.25483154297,9.16454223633,0.1,0.0,0.0,0.0,0.1,0.0,0.0,0.0,0.1
1446040897667764268,2813,1446040897664535045,robocape,-16.7486014879,28.7310578505,6.70020892141,0.0,10.0,0.0,0.0,0.0,10.0,0.0,0.0,0.0,10.0,-0.0347542522255,0.0524642734746,-0.0150468601589,1.0,0.0,0.0,0.0,1.0,0.0,0.0,0.0,1.0,-1.21427490234,-3.20094360352,9.12262939453,0.1,0.0,0.0,0.0,0.1,0.0,0.0,0.0,0.1
1446040897704750434,2814,1446040897701368093,robocape,-16.8330921684,28.7433304451,6.96750966713,0.0,10.0,0.0,0.0,0.0,10.0,0.0,0.0,0.0,10.0,-0.144609647191,0.0205063403936,0.139150166957,1.0,0.0,0.0,0.0,1.0,0.0,0.0,0.0,1.0,-0.656235351563,-3.50630859375,8.88791748047,0.1,0.0,0.0,0.0,0.1,0.0,0.0,0.0,0.1
1446040897734878851,2815,1446040897731209993,robocape,-16.8746143411,28.7207503165,7.38964390223,0.0,10.0,0.0,0.0,0.0,10.0,0.0,0.0,0.0,10.0,-0.161520720113,-0.017710021249,0.202666558955,1.0,0.0,0.0,0.0,1.0,0.0,0.0,0.0,1.0,-0.892144775391,-3.59492431641,8.88073242188,0.1,0.0,0.0,0.0,0.1,0.0,0.0,0.0,0.1
1446040897765994643,2816,1446040897762969970,robocape,-16.7680124907,28.7132571113,7.58300970984,0.0,10.0,0.0,0.0,0.0,10.0,0.0,0.0,0.0,10.0,-0.0226368692657,0.0150468601589,0.102664860023,1.0,0.0,0.0,0.0,1.0,0.0,0.0,0.0,1.0,-2.42735229492,-3.21890625,9.08670410156,0.1,0.0,0.0,0.0,0.1,0.0,0.0,0.0,0.1
1446040897796494809,2817,1446040897793467998,robocape,-16.6061962607,28.6458570373,7.51043408994,0.0,10.0,0.0,0.0,0.0,10.0,0.0,0.0,0.0,10.0,0.0780306199393,0.0134489635049,-0.0262321367373,1.0,0.0,0.0,0.0,1.0,0.0,0.0,0.0,1.0,-2.73750732422,-3.21291870117,8.69990844727,0.1,0.0,0.0,0.0,0.1,0.0,0.0,0.0,0.1
1446040897826052184,2818,1446040897822719097,robocape,-16.381941895,28.6049690544,7.21813295483,0.0,10.0,0.0,0.0,0.0,10.0,0.0,0.0,0.0,10.0,0.168578097002,0.051798483202,-0.12090751349,1.0,0.0,0.0,0.0,1.0,0.0,0.0,0.0,1.0,-0.857416992188,-3.40571777344,9.75491455078,0.1,0.0,0.0,0.0,0.1,0.0,0.0,0.0,0.1
1446040897864682518,2819,1446040897861283063,robocape,-16.1922874001,28.5753864556,7.02035982509,0.0,10.0,0.0,0.0,0.0,10.0,0.0,0.0,0.0,10.0,0.125568045397,0.0470047932399,-0.0770985135578,1.0,0.0,0.0,0.0,1.0,0.0,0.0,0.0,1.0,-1.25858276367,-3.76736572266,9.09748168945,0.1,0.0,0.0,0.0,0.1,0.0,0.0,0.0,0.1
1446040897895033934,2820,1446040897891871929,robocape,-16.1280941289,28.5284533482,6.84296071165,0.0,10.0,0.0,0.0,0.0,10.0,0.0,0.0,0.0,10.0,0.0535295379106,0.0375505713701,-0.0701742947236,1.0,0.0,0.0,0.0,1.0,0.0,0.0,0.0,1.0,-0.961600341797,-3.39613769531,9.23639282227,0.1,0.0,0.0,0.0,0.1,0.0,0.0,0.0,0.1
1446040897932118601,2821,1446040897929014921,robocape,-16.078780099,28.4841429064,6.84318626275,0.0,10.0,0.0,0.0,0.0,10.0,0.0,0.0,0.0,10.0,-0.000266316109008,0.0185089695761,0.00958737992429,1.0,0.0,0.0,0.0,1.0,0.0,0.0,0.0,1.0,-1.16517700195,-3.41170532227,9.12622192383,0.1,0.0,0.0,0.0,0.1,0.0,0.0,0.0,0.1
1446040897960982434,2822,1446040897957753896,robocape,-16.0059100868,28.4410431309,6.87020323704,0.0,10.0,0.0,0.0,0.0,10.0,0.0,0.0,0.0,10.0,0.00559263828917,0.0154463343225,0.0215716048296,1.0,0.0,0.0,0.0,1.0,0.0,0.0,0.0,1.0,-1.28492797852,-3.10514282227,9.03521118164,0.1,0.0,0.0,0.0,0.1,0.0,0.0,0.0,0.1
1446040897999094018,2823,1446040897995682001,robocape,-15.9447894532,28.4059355884,6.92742764542,0.0,10.0,0.0,0.0,0.0,10.0,0.0,0.0,0.0,10.0,-0.00852211548825,0.016378440704,0.0364853069341,1.0,0.0,0.0,0.0,1.0,0.0,0.0,0.0,1.0,-1.52682495117,-3.08119262695,9.16933227539,0.1,0.0,0.0,0.0,0.1,0.0,0.0,0.0,0.1
1446040898033884268,2824,1446040898030771970,robocape,-15.9798027774,28.4013181627,6.96948780016,0.0,10.0,0.0,0.0,0.0,10.0,0.0,0.0,0.0,10.0,-0.0568584892732,0.0363521488796,0.0352868844435,1.0,0.0,0.0,0.0,1.0,0.0,0.0,0.0,1.0,-1.36396362305,-3.15663574219,9.14178955078,0.1,0.0,0.0,0.0,0.1,0.0,0.0,0.0,0.1
1446040898070546184,2825,1446040898067518949,robocape,-16.0993447431,28.4066420052,7.16857687431,0.0,10.0,0.0,0.0,0.0,10.0,0.0,0.0,0.0,10.0,-0.143144908592,0.0253000303558,0.108124340257,1.0,0.0,0.0,0.0,1.0,0.0,0.0,0.0,1.0,-0.795146484375,-3.36979248047,8.93701538086,0.1,0.0,0.0,0.0,0.1,0.0,0.0,0.0,0.1
1446040898103487809,2826,1446040898100024938,robocape,-16.1670471326,28.397461573,7.52633501291,0.0,10.0,0.0,0.0,0.0,10.0,0.0,0.0,0.0,10.0,-0.156327555988,-0.00186421276306,0.17710021249,1.0,0.0,0.0,0.0,1.0,0.0,0.0,0.0,1.0,-0.925675048828,-3.87633911133,9.09029663086,0.1,0.0,0.0,0.0,0.1,0.0,0.0,0.0,0.1
1446040898136992976,2827,1446040898133779048,robocape,-16.124352432,28.3413260421,7.4930623546,0.0,10.0,0.0,0.0,0.0,10.0,0.0,0.0,0.0,10.0,0.00466053190764,0.0159789665405,-0.00625842856169,1.0,0.0,0.0,0.0,1.0,0.0,0.0,0.0,1.0,-2.51237548828,-3.56498657227,9.11783935547,0.1,0.0,0.0,0.0,0.1,0.0,0.0,0.0,0.1
1446040898173287851,2828,1446040898169950008,robocape,-15.9521561712,28.2579025532,7.3058615421,0.0,10.0,0.0,0.0,0.0,10.0,0.0,0.0,0.0,10.0,0.114649084928,0.016112124595,-0.0809600971384,1.0,0.0,0.0,0.0,1.0,0.0,0.0,0.0,1.0,-1.35318603516,-3.30632446289,9.64354614258,0.1,0.0,0.0,0.0,0.1,0.0,0.0,0.0,0.1
1446040898210618184,2829,1446040898207437992,robocape,-15.8981333969,28.2252390945,7.11355950981,0.0,10.0,0.0,0.0,0.0,10.0,0.0,0.0,0.0,10.0,0.0516653251475,0.0459395288039,-0.0747016685767,1.0,0.0,0.0,0.0,1.0,0.0,0.0,0.0,1.0,-1.42623413086,-3.5673815918,8.97653320313,0.1,0.0,0.0,0.0,0.1,0.0,0.0,0.0,0.1
1446040898240349268,2830,1446040898237217903,robocape,-15.922809955,28.2666631299,7.12533373873,0.0,10.0,0.0,0.0,0.0,10.0,0.0,0.0,0.0,10.0,-0.0443416321498,0.0639158661619,0.0290284558819,1.0,0.0,0.0,0.0,1.0,0.0,0.0,0.0,1.0,-0.718505859375,-2.81534545898,9.11424682617,0.1,0.0,0.0,0.0,0.1,0.0,0.0,0.0,0.1
1446040898282384476,2831,1446040898279345989,robocape,-16.0016874918,28.2819143872,7.48672376715,0.0,10.0,0.0,0.0,0.0,10.0,0.0,0.0,0.0,10.0,-0.162852300658,0.0109189604693,0.182692850779,1.0,0.0,0.0,0.0,1.0,0.0,0.0,0.0,1.0,-0.717308349609,-3.62246704102,9.11304931641,0.1,0.0,0.0,0.0,0.1,0.0,0.0,0.0,0.1
1446040898317328809,2832,1446040898314310073,robocape,-16.0845156283,28.2540831578,7.61563931911,0.0,10.0,0.0,0.0,0.0,10.0,0.0,0.0,0.0,10.0,-0.104795388895,0.0146473859954,0.0720385074866,1.0,0.0,0.0,0.0,1.0,0.0,0.0,0.0,1.0,-2.2189855957,-3.49433349609,8.95617553711,0.1,0.0,0.0,0.0,0.1,0.0,0.0,0.0,0.1
1446040898352337685,2833,1446040898349106073,robocape,-16.068457803,28.1819765205,7.47979885211,0.0,10.0,0.0,0.0,0.0,10.0,0.0,0.0,0.0,10.0,0.017177389031,0.0193079179031,-0.0547279604011,1.0,0.0,0.0,0.0,1.0,0.0,0.0,0.0,1.0,-1.78428955078,-3.11113037109,9.19927001953,0.1,0.0,0.0,0.0,0.1,0.0,0.0,0.0,0.1
1446040898386563893,2834,1446040898383501052,robocape,-15.9656014165,28.1458980323,7.45918287269,0.0,10.0,0.0,0.0,0.0,10.0,0.0,0.0,0.0,10.0,0.0336889877895,0.0234358175927,0.00186421276306,1.0,0.0,0.0,0.0,1.0,0.0,0.0,0.0,1.0,-0.749641113281,-3.65839233398,9.10825927734,0.1,0.0,0.0,0.0,0.1,0.0,0.0,0.0,0.1
1446040898421209935,2835,1446040898418206930,robocape,-15.9190483475,28.1257614802,7.4951215511,0.0,10.0,0.0,0.0,0.0,10.0,0.0,0.0,0.0,10.0,-0.0111852765783,0.0264984528463,0.0302268783724,1.0,0.0,0.0,0.0,1.0,0.0,0.0,0.0,1.0,-1.30408813477,-3.63563964844,9.0052734375,0.1,0.0,0.0,0.0,0.1,0.0,0.0,0.0,0.1
1446040898453033893,2836,1446040898449424028,robocape,-15.8825317141,28.0859836756,7.46766073776,0.0,10.0,0.0,0.0,0.0,10.0,0.0,0.0,0.0,10.0,0.000133158054504,0.0233026595382,-0.00133158054504,1.0,0.0,0.0,0.0,1.0,0.0,0.0,0.0,1.0,-1.74716674805,-3.48116088867,9.03401367187,0.1,0.0,0.0,0.0,0.1,0.0,0.0,0.0,0.1
1446040898490773185,2837,1446040898487782001,robocape,-15.8271986627,28.0546425393,7.44044921728,0.0,10.0,0.0,0.0,0.0,10.0,0.0,0.0,0.0,10.0,0.0101200121423,0.0272974011733,-0.000133158054504,1.0,0.0,0.0,0.0,1.0,0.0,0.0,0.0,1.0,-1.302890625,-3.45361816406,9.09269165039,0.1,0.0,0.0,0.0,0.1,0.0,0.0,0.0,0.1
1446040898519471851,2838,1446040898516474008,robocape,-15.7733864234,28.0288687623,7.45398145321,0.0,10.0,0.0,0.0,0.0,10.0,0.0,0.0,0.0,10.0,-0.00106526443603,0.0255663464648,0.0190416017941,1.0,0.0,0.0,0.0,1.0,0.0,0.0,0.0,1.0,-1.27774291992,-3.53385131836,9.04239624023,0.1,0.0,0.0,0.0,0.1,0.0,0.0,0.0,0.1
1446040898557559643,2839,1446040898554270029,robocape,-15.7262200899,27.9950327861,7.43422345215,0.0,10.0,0.0,0.0,0.0,10.0,0.0,0.0,0.0,10.0,0.00412789968962,0.0250337142467,0.00279631914458,1.0,0.0,0.0,0.0,1.0,0.0,0.0,0.0,1.0,-1.65974853516,-3.47756835938,9.04239624023,0.1,0.0,0.0,0.0,0.1,0.0,0.0,0.0,0.1
1446040898586725851,2840,1446040898583655118,robocape,-15.6740733223,27.9638302602,7.40850238325,0.0,10.0,0.0,0.0,0.0,10.0,0.0,0.0,0.0,10.0,0.00838895743375,0.0268979270098,0.000399474163512,1.0,0.0,0.0,0.0,1.0,0.0,0.0,0.0,1.0,-1.32803833008,-3.42128540039,9.05916137695,0.1,0.0,0.0,0.0,0.1,0.0,0.0,0.0,0.1
1446040898617395643,2841,1446040898614401102,robocape,-15.6210310149,27.9352133832,7.40332115435,0.0,10.0,0.0,0.0,0.0,10.0,0.0,0.0,0.0,10.0,0.00372842552611,0.0258326625738,0.0099868540878,1.0,0.0,0.0,0.0,1.0,0.0,0.0,0.0,1.0,-1.28971801758,-3.46798828125,9.03042114258,0.1,0.0,0.0,0.0,0.1,0.0,0.0,0.0,0.1
1446040898648311893,2842,1446040898644953966,robocape,-15.5711186595,27.9053754714,7.3894763631,0.0,10.0,0.0,0.0,0.0,10.0,0.0,0.0,0.0,10.0,0.00439421579863,0.0260989786828,0.00585895439817,1.0,0.0,0.0,0.0,1.0,0.0,0.0,0.0,1.0,-1.47293701172,-3.36619995117,9.03521118164,0.1,0.0,0.0,0.0,0.1,0.0,0.0,0.0,0.1
1446040898686782268,2843,1446040898683044910,robocape,-15.5179163283,27.8771078527,7.37087473521,0.0,10.0,0.0,0.0,0.0,10.0,0.0,0.0,0.0,10.0,0.00745685105222,0.0272974011733,0.00386158358061,1.0,0.0,0.0,0.0,1.0,0.0,0.0,0.0,1.0,-1.50167724609,-3.41889038086,9.01964355469,0.1,0.0,0.0,0.0,0.1,0.0,0.0,0.0,0.1
1446040898716155185,2844,1446040898713145017,robocape,-15.4665359705,27.8493941221,7.3578051326,0.0,10.0,0.0,0.0,0.0,10.0,0.0,0.0,0.0,10.0,0.00519316412565,0.0268979270098,0.00639158661619,1.0,0.0,0.0,0.0,1.0,0.0,0.0,0.0,1.0,-1.34001342773,-3.48595092773,9.03521118164,0.1,0.0,0.0,0.0,0.1,0.0,0.0,0.0,0.1
1446040898751291101,2845,1446040898748140096,robocape,-15.4140172271,27.8212449761,7.34503644228,0.0,10.0,0.0,0.0,0.0,10.0,0.0,0.0,0.0,10.0,0.00585895439817,0.0264984528463,0.00639158661619,1.0,0.0,0.0,0.0,1.0,0.0,0.0,0.0,1.0,-1.40108642578,-3.37458251953,9.18130737305,0.1,0.0,0.0,0.0,0.1,0.0,0.0,0.0,0.1
1446040898781882060,2846,1446040898778485059,robocape,-15.3591687869,27.794447049,7.33022095733,0.0,10.0,0.0,0.0,0.0,10.0,0.0,0.0,0.0,10.0,0.00772316716123,0.0272974011733,0.00559263828917,1.0,0.0,0.0,0.0,1.0,0.0,0.0,0.0,1.0,-1.35558105469,-3.42128540039,9.03401367187,0.1,0.0,0.0,0.0,0.1,0.0,0.0,0.0,0.1
1446040898812361268,2847,1446040898808999061,robocape,-15.3075161071,27.7680952624,7.31593204899,0.0,10.0,0.0,0.0,0.0,10.0,0.0,0.0,0.0,10.0,0.00599211245268,0.0274305592278,0.00585895439817,1.0,0.0,0.0,0.0,1.0,0.0,0.0,0.0,1.0,-1.23942260742,-3.45361816406,9.06035888672,0.1,0.0,0.0,0.0,0.1,0.0,0.0,0.0,0.1
1446040898846274560,2848,1446040898842811107,robocape,-15.2555237874,27.7417349072,7.30178842428,0.0,10.0,0.0,0.0,0.0,10.0,0.0,0.0,0.0,10.0,0.00625842856169,0.0272974011733,0.00585895439817,1.0,0.0,0.0,0.0,1.0,0.0,0.0,0.0,1.0,-1.36995117188,-3.42966796875,9.19567749023,0.1,0.0,0.0,0.0,0.1,0.0,0.0,0.0,0.1
1446040898883800185,2849,1446040898880661964,robocape,-15.1900525995,27.7121151182,7.27322861326,0.0,10.0,0.0,0.0,0.0,10.0,0.0,0.0,0.0,10.0,0.0173105470855,0.0267647689553,-0.00133158054504,1.0,0.0,0.0,0.0,1.0,0.0,0.0,0.0,1.0,-1.31486572266,-3.51469116211,9.02203857422,0.1,0.0,0.0,0.0,0.1,0.0,0.0,0.0,0.1
1446040898913214851,2850,1446040898910274028,robocape,-15.0443540362,27.6667127638,7.16509662824,0.0,10.0,0.0,0.0,0.0,10.0,0.0,0.0,0.0,10.0,0.0808269390839,0.0253000303558,-0.0404800485692,1.0,0.0,0.0,0.0,1.0,0.0,0.0,0.0,1.0,-1.50766479492,-3.43086547852,9.01365600586,0.1,0.0,0.0,0.0,0.1,0.0,0.0,0.0,0.1
1446040898945952393,2851,1446040898942955970,robocape,-14.8519017151,27.5894357379,7.07921844341,0.0,10.0,0.0,0.0,0.0,10.0,0.0,0.0,0.0,10.0,0.101200121423,0.00452737385313,-0.0356863586071,1.0,0.0,0.0,0.0,1.0,0.0,0.0,0.0,1.0,-1.22505249023,-3.67635498047,9.01126098633,0.1,0.0,0.0,0.0,0.1,0.0,0.0,0.0,0.1
1446040898981900351,2852,1446040898978817939,robocape,-14.691443461,27.5266629089,6.89511243659,0.0,10.0,0.0,0.0,0.0,10.0,0.0,0.0,0.0,10.0,0.108656972475,0.0230363434292,-0.0781637779938,1.0,0.0,0.0,0.0,1.0,0.0,0.0,0.0,1.0,-1.59268798828,-3.19375854492,9.15017211914,0.1,0.0,0.0,0.0,0.1,0.0,0.0,0.0,0.1
1446040899011421851,2853,1446040899008413076,robocape,-14.5664812527,27.4895160938,6.72418640413,0.0,10.0,0.0,0.0,0.0,10.0,0.0,0.0,0.0,10.0,0.0861532612641,0.0356863586071,-0.0685763980695,1.0,0.0,0.0,0.0,1.0,0.0,0.0,0.0,1.0,-1.48012207031,-2.9506640625,9.3118359375,0.1,0.0,0.0,0.0,0.1,0.0,0.0,0.0,0.1
1446040899043174268,2854,1446040899039967060,robocape,-14.5496722487,27.490630209,6.61083577633,0.0,10.0,0.0,0.0,0.0,10.0,0.0,0.0,0.0,10.0,0.0134489635049,0.0519316412565,-0.0364853069341,1.0,0.0,0.0,0.0,1.0,0.0,0.0,0.0,1.0,-1.10649902344,-3.21651123047,8.92384277344,0.1,0.0,0.0,0.0,0.1,0.0,0.0,0.0,0.1
1446040899077012060,2855,1446040899073626041,robocape,-14.6580035926,27.4969183408,6.80405096305,0.0,10.0,0.0,0.0,0.0,10.0,0.0,0.0,0.0,10.0,-0.129962261196,0.0243679239742,0.104395914731,1.0,0.0,0.0,0.0,1.0,0.0,0.0,0.0,1.0,-0.707728271484,-3.35182983398,8.84959716797,0.1,0.0,0.0,0.0,0.1,0.0,0.0,0.0,0.1
1446040899114210352,2856,1446040899111058950,robocape,-14.7548345375,27.513257538,7.20313986699,0.0,10.0,0.0,0.0,0.0,10.0,0.0,0.0,0.0,10.0,-0.175768631945,0.00759000910673,0.19987023981,1.0,0.0,0.0,0.0,1.0,0.0,0.0,0.0,1.0,-0.639470214844,-3.56139404297,9.19807250977,0.1,0.0,0.0,0.0,0.1,0.0,0.0,0.0,0.1
1446040899144670102,2857,1446040899141408920,robocape,-14.8019653685,27.4820880056,7.23530115698,0.0,10.0,0.0,0.0,0.0,10.0,0.0,0.0,0.0,10.0,-0.0571248053822,0.0205063403936,0.0263652947918,1.0,0.0,0.0,0.0,1.0,0.0,0.0,0.0,1.0,-2.38424194336,-3.51109863281,9.04239624023,0.1,0.0,0.0,0.0,0.1,0.0,0.0,0.0,0.1
1446040899186433560,2858,1446040899182607889,robocape,-14.6484917234,27.408443378,6.97196787549,0.0,10.0,0.0,0.0,0.0,10.0,0.0,0.0,0.0,10.0,0.12476909707,0.0254331884103,-0.115714349364,1.0,0.0,0.0,0.0,1.0,0.0,0.0,0.0,1.0,-1.98068115234,-3.16861083984,9.06395141602,0.1,0.0,0.0,0.0,0.1,0.0,0.0,0.0,0.1
1446040899221467143,2859,1446040899218488931,robocape,-14.5816371318,27.3904108835,6.94159021297,0.0,10.0,0.0,0.0,0.0,10.0,0.0,0.0,0.0,10.0,0.0197073920666,0.0318247750264,-0.00146473859954,1.0,0.0,0.0,0.0,1.0,0.0,0.0,0.0,1.0,-0.781973876953,-3.39374267578,8.63524291992,0.1,0.0,0.0,0.0,0.1,0.0,0.0,0.0,0.1
1446040899257649018,2860,1446040899254385948,robocape,-14.4953151083,27.361708483,7.06934735101,0.0,10.0,0.0,0.0,0.0,10.0,0.0,0.0,0.0,10.0,-0.00878843159726,0.00892158965177,0.0688427141785,1.0,0.0,0.0,0.0,1.0,0.0,0.0,0.0,1.0,-1.16038696289,-3.30871948242,9.20286254883,0.1,0.0,0.0,0.0,0.1,0.0,0.0,0.0,0.1
1446040899302695268,2861,1446040899299611091,robocape,-14.3683286086,27.2996406361,6.99316015993,0.0,10.0,0.0,0.0,0.0,10.0,0.0,0.0,0.0,10.0,0.0643153403254,0.0115847507418,-0.0290284558819,1.0,0.0,0.0,0.0,1.0,0.0,0.0,0.0,1.0,-1.70764892578,-3.29315185547,9.196875,0.1,0.0,0.0,0.0,0.1,0.0,0.0,0.0,0.1
1446040899336081227,2862,1446040899333046913,robocape,-14.2300652258,27.2683772877,6.71449354049,0.0,10.0,0.0,0.0,0.0,10.0,0.0,0.0,0.0,10.0,0.120108565163,0.0487358479485,-0.117312246018,1.0,0.0,0.0,0.0,1.0,0.0,0.0,0.0,1.0,-1.55436767578,-3.19854858398,9.07233398437,0.1,0.0,0.0,0.0,0.1,0.0,0.0,0.0,0.1
1446040899365767643,2863,1446040899362279891,robocape,-14.1062800761,27.2553054766,6.51045536858,0.0,10.0,0.0,0.0,0.0,10.0,0.0,0.0,0.0,10.0,0.0938764284253,0.050733218766,-0.0810932551929,1.0,0.0,0.0,0.0,1.0,0.0,0.0,0.0,1.0,-1.1112890625,-3.22010375977,9.05437133789,0.1,0.0,0.0,0.0,0.1,0.0,0.0,0.0,0.1
1446040899400517977,2864,1446040899397440910,robocape,-13.9949247501,27.2387433291,6.4486952572,0.0,10.0,0.0,0.0,0.0,10.0,0.0,0.0,0.0,10.0,0.0524642734746,0.0342216200075,-0.016911072922,1.0,0.0,0.0,0.0,1.0,0.0,0.0,0.0,1.0,-0.983155517578,-3.41769287109,9.06993896484,0.1,0.0,0.0,0.0,0.1,0.0,0.0,0.0,0.1
1446040899433747310,2865,1446040899429950952,robocape,-13.9732095433,27.194247221,6.43794234306,0.0,10.0,0.0,0.0,0.0,10.0,0.0,0.0,0.0,10.0,-0.00732369299772,0.015313176268,0.00292947719909,1.0,0.0,0.0,0.0,1.0,0.0,0.0,0.0,1.0,-1.12685668945,-3.32189208984,9.13699951172,0.1,0.0,0.0,0.0,0.1,0.0,0.0,0.0,0.1
1446040899468490602,2866,1446040899464482069,robocape,-14.0660273675,27.186106558,6.62337323877,0.0,10.0,0.0,0.0,0.0,10.0,0.0,0.0,0.0,10.0,-0.117445404072,0.016644756813,0.0982706442239,1.0,0.0,0.0,0.0,1.0,0.0,0.0,0.0,1.0,-1.38791381836,-3.24405395508,9.07712402344,0.1,0.0,0.0,0.0,0.1,0.0,0.0,0.0,0.1
1446040899503556185,2867,1446040899500442981,robocape,-14.2008965295,27.1780971437,6.92159248312,0.0,10.0,0.0,0.0,0.0,10.0,0.0,0.0,0.0,10.0,-0.168045464784,0.00572579634367,0.150468601589,1.0,0.0,0.0,0.0,1.0,0.0,0.0,0.0,1.0,-1.14362182617,-3.18657348633,9.14178955078,0.1,0.0,0.0,0.0,0.1,0.0,0.0,0.0,0.1
1446040899540215602,2868,1446040899536772012,robocape,-14.2468082111,27.1636721141,7.07819070228,0.0,10.0,0.0,0.0,0.0,10.0,0.0,0.0,0.0,10.0,-0.0858869451551,0.0154463343225,0.084821680719,1.0,0.0,0.0,0.0,1.0,0.0,0.0,0.0,1.0,-1.90284301758,-3.65240478516,9.08071655273,0.1,0.0,0.0,0.0,0.1,0.0,0.0,0.0,0.1
1446040899575150685,2869,1446040899572146892,robocape,-14.1301912977,27.1122073597,6.94511156476,0.0,10.0,0.0,0.0,0.0,10.0,0.0,0.0,0.0,10.0,0.0729706138682,0.0226368692657,-0.0536626959651,1.0,0.0,0.0,0.0,1.0,0.0,0.0,0.0,1.0,-1.83218994141,-3.51588867188,9.15376464844,0.1,0.0,0.0,0.0,0.1,0.0,0.0,0.0,0.1
1446040899607850560,2870,1446040899604574918,robocape,-13.9867782317,27.0624968721,6.79033957233,0.0,10.0,0.0,0.0,0.0,10.0,0.0,0.0,0.0,10.0,0.0928111639893,0.0250337142467,-0.0637827081074,1.0,0.0,0.0,0.0,1.0,0.0,0.0,0.0,1.0,-1.09452392578,-3.62366455078,8.966953125,0.1,0.0,0.0,0.0,0.1,0.0,0.0,0.0,0.1
1446040899639859185,2871,1446040899635932922,robocape,-13.8362497379,27.0134726924,6.66345574978,0.0,10.0,0.0,0.0,0.0,10.0,0.0,0.0,0.0,10.0,0.0900148448447,0.0221042370477,-0.051265850984,1.0,0.0,0.0,0.0,1.0,0.0,0.0,0.0,1.0,-1.19990478516,-3.3302746582,9.10825927734,0.1,0.0,0.0,0.0,0.1,0.0,0.0,0.0,0.1
1446040899671625393,2872,1446040899668289899,robocape,-13.6894844536,26.959206821,6.52701276054,0.0,10.0,0.0,0.0,0.0,10.0,0.0,0.0,0.0,10.0,0.0906806351172,0.0199737081756,-0.0565921731642,1.0,0.0,0.0,0.0,1.0,0.0,0.0,0.0,1.0,-1.456171875,-3.15184570313,9.13819702148,0.1,0.0,0.0,0.0,0.1,0.0,0.0,0.0,0.1
1446040899701497268,2873,1446040899698249101,robocape,-13.5901077695,26.938608156,6.38265818001,0.0,10.0,0.0,0.0,0.0,10.0,0.0,0.0,0.0,10.0,0.0669785014155,0.0394147841332,-0.0556600667827,1.0,0.0,0.0,0.0,1.0,0.0,0.0,0.0,1.0,-1.36037109375,-3.21291870117,9.05437133789,0.1,0.0,0.0,0.0,0.1,0.0,0.0,0.0,0.1
1446040899737196560,2874,1446040899734066963,robocape,-13.5266685315,26.9274288853,6.30565193023,0.0,10.0,0.0,0.0,0.0,10.0,0.0,0.0,0.0,10.0,0.0314253008629,0.0382163616426,-0.0235689756472,1.0,0.0,0.0,0.0,1.0,0.0,0.0,0.0,1.0,-1.21307739258,-3.30273193359,9.02443359375,0.1,0.0,0.0,0.0,0.1,0.0,0.0,0.0,0.1
1446040899766205352,2875,1446040899763243913,robocape,-13.4737351623,26.9036611185,6.31261383346,0.0,10.0,0.0,0.0,0.0,10.0,0.0,0.0,0.0,10.0,0.00572579634367,0.0231695014837,0.0131826473959,1.0,0.0,0.0,0.0,1.0,0.0,0.0,0.0,1.0,-1.16158447266,-3.39613769531,9.02563110352,0.1,0.0,0.0,0.0,0.1,0.0,0.0,0.0,0.1
1446040899798934227,2876,1446040899795874118,robocape,-13.4291751865,26.8733897838,6.35736296285,0.0,10.0,0.0,0.0,0.0,10.0,0.0,0.0,0.0,10.0,-0.00772316716123,0.0159789665405,0.0296942461544,1.0,0.0,0.0,0.0,1.0,0.0,0.0,0.0,1.0,-1.32444580078,-3.33266967773,9.15615966797,0.1,0.0,0.0,0.0,0.1,0.0,0.0,0.0,0.1
1446040899831725060,2877,1446040899828152894,robocape,-13.384823543,26.8490736301,6.36375045521,0.0,10.0,0.0,0.0,0.0,10.0,0.0,0.0,0.0,10.0,0.00146473859954,0.0229031853747,0.0129163312869,1.0,0.0,0.0,0.0,1.0,0.0,0.0,0.0,1.0,-1.47173950195,-3.32189208984,9.13819702148,0.1,0.0,0.0,0.0,0.1,0.0,0.0,0.0,0.1
1446040899865275227,2878,1446040899862207889,robocape,-13.3529832899,26.8333339093,6.31276564212,0.0,10.0,0.0,0.0,0.0,10.0,0.0,0.0,0.0,10.0,0.00865527354276,0.033289513626,-0.0122505410144,1.0,0.0,0.0,0.0,1.0,0.0,0.0,0.0,1.0,-1.34959350586,-3.28836181641,9.11424682617,0.1,0.0,0.0,0.0,0.1,0.0,0.0,0.0,0.1
1446040899902708977,2879,1446040899899456977,robocape,-13.4298577806,26.8374267606,6.39465596153,0.0,10.0,0.0,0.0,0.0,10.0,0.0,0.0,0.0,10.0,-0.0818922035199,0.0326237233535,0.0519316412565,1.0,0.0,0.0,0.0,1.0,0.0,0.0,0.0,1.0,-1.19870727539,-3.38895263672,9.05916137695,0.1,0.0,0.0,0.0,0.1,0.0,0.0,0.0,0.1
1446040899936979769,2880,1446040899933840990,robocape,-13.4179812564,26.7960743228,6.52286035202,0.0,10.0,0.0,0.0,0.0,10.0,0.0,0.0,0.0,10.0,-0.0451405804768,0.00213052887206,0.066845343361,1.0,0.0,0.0,0.0,1.0,0.0,0.0,0.0,1.0,-0.947230224609,-3.3757800293,9.04958129883,0.1,0.0,0.0,0.0,0.1,0.0,0.0,0.0,0.1
1446040899972369685,2881,1446040899969294071,robocape,-13.3634615709,26.7616062146,6.61382862858,0.0,10.0,0.0,0.0,0.0,10.0,0.0,0.0,0.0,10.0,-0.0134489635049,0.00878843159726,0.0506000607115,1.0,0.0,0.0,0.0,1.0,0.0,0.0,0.0,1.0,-1.69447631836,-3.40092773438,9.01844604492,0.1,0.0,0.0,0.0,0.1,0.0,0.0,0.0,0.1
1446040900007983769,2882,1446040900004728078,robocape,-13.3193284196,26.7494013074,6.51300195414,0.0,10.0,0.0,0.0,0.0,10.0,0.0,0.0,0.0,10.0,0.0271642431188,0.0396811002422,-0.0344879361165,1.0,0.0,0.0,0.0,1.0,0.0,0.0,0.0,1.0,-1.62262573242,-3.27997924805,9.13819702148,0.1,0.0,0.0,0.0,0.1,0.0,0.0,0.0,0.1
1446040900042687060,2883,1446040900039494037,robocape,-13.3575881791,26.7623305446,6.55427803137,0.0,10.0,0.0,0.0,0.0,10.0,0.0,0.0,0.0,10.0,-0.051532167093,0.0406132066237,0.0344879361165,1.0,0.0,0.0,0.0,1.0,0.0,0.0,0.0,1.0,-1.02506835938,-3.26800415039,9.0088659668,0.1,0.0,0.0,0.0,0.1,0.0,0.0,0.0,0.1
1446040900077351810,2884,1446040900074153900,robocape,-13.3959102621,26.7602429707,6.76033963627,0.0,10.0,0.0,0.0,0.0,10.0,0.0,0.0,0.0,10.0,-0.0913464253897,0.016378440704,0.108390656366,1.0,0.0,0.0,0.0,1.0,0.0,0.0,0.0,1.0,-0.869392089844,-3.75778564453,9.03401367187,0.1,0.0,0.0,0.0,0.1,0.0,0.0,0.0,0.1
1446040900111808644,2885,1446040900108803987,robocape,-13.3582607366,26.7232680782,6.73932022579,0.0,10.0,0.0,0.0,0.0,10.0,0.0,0.0,0.0,10.0,0.00466053190764,0.0186421276306,-0.000798948327024,1.0,0.0,0.0,0.0,1.0,0.0,0.0,0.0,1.0,-2.00822387695,-3.74221801758,9.06514892578,0.1,0.0,0.0,0.0,0.1,0.0,0.0,0.0,0.1
1446040900148500394,2886,1446040900144706010,robocape,-13.3288532159,26.6940757164,6.63883632099,0.0,10.0,0.0,0.0,0.0,10.0,0.0,0.0,0.0,10.0,0.0194410759576,0.0306263525359,-0.0363521488796,1.0,0.0,0.0,0.0,1.0,0.0,0.0,0.0,1.0,-1.42383911133,-3.1386730957,9.24118286133,0.1,0.0,0.0,0.0,0.1,0.0,0.0,0.0,0.1
1446040900180543894,2887,1446040900176935911,robocape,-13.3281930911,26.6817965167,6.68454547518,0.0,10.0,0.0,0.0,0.0,10.0,0.0,0.0,0.0,10.0,-0.0314253008629,0.0258326625738,0.0331563555715,1.0,0.0,0.0,0.0,1.0,0.0,0.0,0.0,1.0,-0.750838623047,-3.50271606445,9.06634643555,0.1,0.0,0.0,0.0,0.1,0.0,0.0,0.0,0.1
1446040900217808394,2888,1446040900214514970,robocape,-13.3822395605,26.6710740611,6.75962612744,0.0,10.0,0.0,0.0,0.0,10.0,0.0,0.0,0.0,10.0,-0.0677774497425,0.0246342400832,0.0472711093489,1.0,0.0,0.0,0.0,1.0,0.0,0.0,0.0,1.0,-1.51125732422,-3.57815917969,9.04838378906,0.1,0.0,0.0,0.0,0.1,0.0,0.0,0.0,0.1
1446040900252447894,2889,1446040900249490976,robocape,-13.2841246225,26.6304045848,6.65553554824,0.0,10.0,0.0,0.0,0.0,10.0,0.0,0.0,0.0,10.0,0.0571248053822,0.0235689756472,-0.0399474163512,1.0,0.0,0.0,0.0,1.0,0.0,0.0,0.0,1.0,-1.62621826172,-3.34224975586,9.13220947266,0.1,0.0,0.0,0.0,0.1,0.0,0.0,0.0,0.1
1446040900296052602,2890,1446040900292707920,robocape,-13.2399543608,26.6234973109,6.66357833703,0.0,10.0,0.0,0.0,0.0,10.0,0.0,0.0,0.0,10.0,0.000932106381528,0.0315584589174,0.0162452826495,1.0,0.0,0.0,0.0,1.0,0.0,0.0,0.0,1.0,-0.896934814453,-3.40571777344,9.08071655273,0.1,0.0,0.0,0.0,0.1,0.0,0.0,0.0,0.1
1446040900332373394,2891,1446040900329345941,robocape,-13.1306615225,26.6122465577,6.67225447154,0.0,10.0,0.0,0.0,0.0,10.0,0.0,0.0,0.0,10.0,0.0356863586071,0.0280963495003,0.015579492377,1.0,0.0,0.0,0.0,1.0,0.0,0.0,0.0,1.0,-1.38432128906,-3.28716430664,9.00287841797,0.1,0.0,0.0,0.0,0.1,0.0,0.0,0.0,0.1
1446040900364570394,2892,1446040900361501932,robocape,-13.1087918924,26.5886003698,6.63863556452,0.0,10.0,0.0,0.0,0.0,10.0,0.0,0.0,0.0,10.0,-0.000399474163512,0.0267647689553,-0.00506000607115,1.0,0.0,0.0,0.0,1.0,0.0,0.0,0.0,1.0,-1.65495849609,-3.59612182617,8.95378051758,0.1,0.0,0.0,0.0,0.1,0.0,0.0,0.0,0.1
1446040900394533602,2893,1446040900391504049,robocape,-13.1118082038,26.5700957783,6.64269691199,0.0,10.0,0.0,0.0,0.0,10.0,0.0,0.0,0.0,10.0,-0.0227700273202,0.0262321367373,0.0130494893414,1.0,0.0,0.0,0.0,1.0,0.0,0.0,0.0,1.0,-1.04542602539,-3.32428710938,9.04598876953,0.1,0.0,0.0,0.0,0.1,0.0,0.0,0.0,0.1
1446040900427506102,2894,1446040900424520969,robocape,-13.0797272644,26.5608053941,6.68416016353,0.0,10.0,0.0,0.0,0.0,10.0,0.0,0.0,0.0,10.0,-0.0131826473959,0.0270310850643,0.0312921428084,1.0,0.0,0.0,0.0,1.0,0.0,0.0,0.0,1.0,-1.36995117188,-3.35901489258,9.06155639648,0.1,0.0,0.0,0.0,0.1,0.0,0.0,0.0,0.1
1446040900461279144,2895,1446040900458007097,robocape,-13.0408488028,26.5462841032,6.66702834122,0.0,10.0,0.0,0.0,0.0,10.0,0.0,0.0,0.0,10.0,0.00466053190764,0.0296942461544,0.00359526747161,1.0,0.0,0.0,0.0,1.0,0.0,0.0,0.0,1.0,-1.4980847168,-3.43206298828,9.01844604492,0.1,0.0,0.0,0.0,0.1,0.0,0.0,0.0,0.1
1446040900499098936,2896,1446040900495806932,robocape,-12.9897839331,26.5263229771,6.64994519387,0.0,10.0,0.0,0.0,0.0,10.0,0.0,0.0,0.0,10.0,0.0113184346328,0.0264984528463,0.00279631914458,1.0,0.0,0.0,0.0,1.0,0.0,0.0,0.0,1.0,-1.19032470703,-3.42727294922,9.02084106445,0.1,0.0,0.0,0.0,0.1,0.0,0.0,0.0,0.1
1446040900534939019,2897,1446040900531733989,robocape,-12.9376740688,26.5113625531,6.65468049749,0.0,10.0,0.0,0.0,0.0,10.0,0.0,0.0,0.0,10.0,0.0066579027252,0.0270310850643,0.0134489635049,1.0,0.0,0.0,0.0,1.0,0.0,0.0,0.0,1.0,-1.34600097656,-3.49433349609,9.0471862793,0.1,0.0,0.0,0.0,0.1,0.0,0.0,0.0,0.1
1446040900571319936,2898,1446040900567167043,robocape,-12.8899290033,26.4933325507,6.63920144893,0.0,10.0,0.0,0.0,0.0,10.0,0.0,0.0,0.0,10.0,0.00932106381528,0.0272974011733,0.00372842552611,1.0,0.0,0.0,0.0,1.0,0.0,0.0,0.0,1.0,-1.40587646484,-3.37817504883,9.05317382813,0.1,0.0,0.0,0.0,0.1,0.0,0.0,0.0,0.1
1446040900602253269,2899,1446040900599294900,robocape,-12.843404078,26.4754715291,6.626941746,0.0,10.0,0.0,0.0,0.0,10.0,0.0,0.0,0.0,10.0,0.00798948327024,0.0270310850643,0.00519316412565,1.0,0.0,0.0,0.0,1.0,0.0,0.0,0.0,1.0,-1.27534790039,-3.44643310547,9.03281616211,0.1,0.0,0.0,0.0,0.1,0.0,0.0,0.0,0.1
1446040900633774852,2900,1446040900630628108,robocape,-12.7965597515,26.4589940926,6.61901355571,0.0,10.0,0.0,0.0,0.0,10.0,0.0,0.0,0.0,10.0,0.00719053494321,0.0272974011733,0.00732369299772,1.0,0.0,0.0,0.0,1.0,0.0,0.0,0.0,1.0,-1.36516113281,-3.40571777344,9.04239624023,0.1,0.0,0.0,0.0,0.1,0.0,0.0,0.0,0.1
1446040900666531811,2901,1446040900663589000,robocape,-12.7503814836,26.4415237271,6.60336222189,0.0,10.0,0.0,0.0,0.0,10.0,0.0,0.0,0.0,10.0,0.00878843159726,0.0274305592278,0.00359526747161,1.0,0.0,0.0,0.0,1.0,0.0,0.0,0.0,1.0,-1.35797607422,-3.45002563477,9.02203857422,0.1,0.0,0.0,0.0,0.1,0.0,0.0,0.0,0.1
1446040900699563477,2902,1446040900696542024,robocape,-12.7040880072,26.4247679772,6.59108127768,0.0,10.0,0.0,0.0,0.0,10.0,0.0,0.0,0.0,10.0,0.00812264132474,0.0274305592278,0.00519316412565,1.0,0.0,0.0,0.0,1.0,0.0,0.0,0.0,1.0,-1.302890625,-3.41529785156,9.05796386719,0.1,0.0,0.0,0.0,0.1,0.0,0.0,0.0,0.1
1446040900731431311,2903,1446040900728399991,robocape,-12.6579539812,26.4087544329,6.58099570065,0.0,10.0,0.0,0.0,0.0,10.0,0.0,0.0,0.0,10.0,0.00759000910673,0.0275637172823,0.00625842856169,1.0,0.0,0.0,0.0,1.0,0.0,0.0,0.0,1.0,-1.35079101563,-3.45840820313,9.07951904297,0.1,0.0,0.0,0.0,0.1,0.0,0.0,0.0,0.1
1446040900767781061,2904,1446040900764520883,robocape,-12.5529822405,26.3950601326,6.62604670414,0.0,10.0,0.0,0.0,0.0,10.0,0.0,0.0,0.0,10.0,0.0258326625738,0.0227700273202,0.0316916169719,1.0,0.0,0.0,0.0,1.0,0.0,0.0,0.0,1.0,-1.25259521484,-3.47996337891,9.0400012207,0.1,0.0,0.0,0.0,0.1,0.0,0.0,0.0,0.1
1446040900802430352,2905,1446040900799343109,robocape,-12.4322642326,26.3648310773,6.53723421607,0.0,10.0,0.0,0.0,0.0,10.0,0.0,0.0,0.0,10.0,0.066579027252,0.0258326625738,-0.0323574072445,1.0,0.0,0.0,0.0,1.0,0.0,0.0,0.0,1.0,-1.44778930664,-3.38655761719,8.94899047852,0.1,0.0,0.0,0.0,0.1,0.0,0.0,0.0,0.1
1446040900832260769,2906,1446040900829268932,robocape,-12.3779497923,26.3580369403,6.5496859324,0.0,10.0,0.0,0.0,0.0,10.0,0.0,0.0,0.0,10.0,0.00692421883421,0.0300937203179,0.0175768631945,1.0,0.0,0.0,0.0,1.0,0.0,0.0,0.0,1.0,-1.23104003906,-3.41649536133,9.07233398437,0.1,0.0,0.0,0.0,0.1,0.0,0.0,0.0,0.1
1446040900865545477,2907,1446040900862545967,robocape,-12.3832088191,26.3544743676,6.60231233055,0.0,10.0,0.0,0.0,0.0,10.0,0.0,0.0,0.0,10.0,-0.034354778062,0.0290284558819,0.0368847810976,1.0,0.0,0.0,0.0,1.0,0.0,0.0,0.0,1.0,-1.2226574707,-3.67036743164,9.04838378906,0.1,0.0,0.0,0.0,0.1,0.0,0.0,0.0,0.1
1446040900897912102,2908,1446040900894809961,robocape,-12.3759375933,26.3352779524,6.60672923458,0.0,10.0,0.0,0.0,0.0,10.0,0.0,0.0,0.0,10.0,-0.0159789665405,0.0247673981377,0.0126500151779,1.0,0.0,0.0,0.0,1.0,0.0,0.0,0.0,1.0,-1.4525793457,-3.42727294922,9.10706176758,0.1,0.0,0.0,0.0,0.1,0.0,0.0,0.0,0.1
1446040900928850561,2909,1446040900925892114,robocape,-12.3379116576,26.3186887674,6.5904039553,0.0,10.0,0.0,0.0,0.0,10.0,0.0,0.0,0.0,10.0,0.00532632218016,0.0275637172823,0.0031957933081,1.0,0.0,0.0,0.0,1.0,0.0,0.0,0.0,1.0,-1.38671630859,-3.38536010742,9.06874145508,0.1,0.0,0.0,0.0,0.1,0.0,0.0,0.0,0.1
1446040900966163061,2910,1446040900962893009,robocape,-12.2880595365,26.3026408895,6.58796520586,0.0,10.0,0.0,0.0,0.0,10.0,0.0,0.0,0.0,10.0,0.00838895743375,0.0263652947918,0.00958737992429,1.0,0.0,0.0,0.0,1.0,0.0,0.0,0.0,1.0,-1.26337280273,-3.49672851563,9.19088745117,0.1,0.0,0.0,0.0,0.1,0.0,0.0,0.0,0.1
1446040901000306311,2911,1446040900996485948,robocape,-12.2233700074,26.2807582956,6.57694568621,0.0,10.0,0.0,0.0,0.0,10.0,0.0,0.0,0.0,10.0,0.0185089695761,0.0237021337017,0.00479368996214,1.0,0.0,0.0,0.0,1.0,0.0,0.0,0.0,1.0,-1.39509887695,-3.46798828125,9.03521118164,0.1,0.0,0.0,0.0,0.1,0.0,0.0,0.0,0.1
1446040901031471311,2912,1446040901028471946,robocape,-12.0967469163,26.2542678469,6.4852010618,0.0,10.0,0.0,0.0,0.0,10.0,0.0,0.0,0.0,10.0,0.0708400849961,0.0274305592278,-0.033555829735,1.0,0.0,0.0,0.0,1.0,0.0,0.0,0.0,1.0,-1.41066650391,-3.34105224609,9.03880371094,0.1,0.0,0.0,0.0,0.1,0.0,0.0,0.0,0.1
1446040901065679102,2913,1446040901062516927,robocape,-11.9309058694,26.2105291873,6.40704727189,0.0,10.0,0.0,0.0,0.0,10.0,0.0,0.0,0.0,10.0,0.0889495804086,0.016112124595,-0.0296942461544,1.0,0.0,0.0,0.0,1.0,0.0,0.0,0.0,1.0,-1.19271972656,-3.58055419922,9.00287841797,0.1,0.0,0.0,0.0,0.1,0.0,0.0,0.0,0.1
1446040901096144061,2914,1446040901093106985,robocape,-11.7804180159,26.1665676316,6.2430680537,0.0,10.0,0.0,0.0,0.0,10.0,0.0,0.0,0.0,10.0,0.101333279478,0.0234358175927,-0.0696416625056,1.0,0.0,0.0,0.0,1.0,0.0,0.0,0.0,1.0,-1.48850463867,-3.34703979492,9.18609741211,0.1,0.0,0.0,0.0,0.1,0.0,0.0,0.0,0.1
1446040901130916603,2915,1446040901127381086,robocape,-11.6635210386,26.1350315574,6.06792720944,0.0,10.0,0.0,0.0,0.0,10.0,0.0,0.0,0.0,10.0,0.0861532612641,0.0312921428084,-0.0735032460862,1.0,0.0,0.0,0.0,1.0,0.0,0.0,0.0,1.0,-1.50886230469,-3.21291870117,9.06514892578,0.1,0.0,0.0,0.0,0.1,0.0,0.0,0.0,0.1
1446040901166708811,2916,1446040901163620948,robocape,-11.5875104548,26.1298201833,5.93262296563,0.0,10.0,0.0,0.0,0.0,10.0,0.0,0.0,0.0,10.0,0.0548611184556,0.0424774193868,-0.052064799311,1.0,0.0,0.0,0.0,1.0,0.0,0.0,0.0,1.0,-1.14122680664,-3.21651123047,8.9322253418,0.1,0.0,0.0,0.0,0.1,0.0,0.0,0.0,0.1
1446040901198378853,2917,1446040901195278882,robocape,-11.5332514367,26.1151996404,5.93145061614,0.0,10.0,0.0,0.0,0.0,10.0,0.0,0.0,0.0,10.0,0.0119842249054,0.0260989786828,0.00905474770627,1.0,0.0,0.0,0.0,1.0,0.0,0.0,0.0,1.0,-1.04901855469,-3.21411621094,9.06993896484,0.1,0.0,0.0,0.0,0.1,0.0,0.0,0.0,0.1
1446040901229099519,2918,1446040901226150035,robocape,-11.6009781392,26.1087162391,6.0658220796,0.0,10.0,0.0,0.0,0.0,10.0,0.0,0.0,0.0,10.0,-0.084821680719,0.0205063403936,0.0735032460862,1.0,0.0,0.0,0.0,1.0,0.0,0.0,0.0,1.0,-1.21666992188,-3.32308959961,9.12262939453,0.1,0.0,0.0,0.0,0.1,0.0,0.0,0.0,0.1
1446040901273145728,2919,1446040901267222881,robocape,-11.7616204159,26.0987435058,6.39558171921,0.0,10.0,0.0,0.0,0.0,10.0,0.0,0.0,0.0,10.0,-0.180429163853,0.00292947719909,0.164583355367,1.0,0.0,0.0,0.0,1.0,0.0,0.0,0.0,1.0,-1.00111816406,-3.31470703125,8.96815063477,0.1,0.0,0.0,0.0,0.1,0.0,0.0,0.0,0.1
1446040901312585769,2920,1446040901309531927,robocape,-11.7754764196,26.0686672978,6.40012240144,0.0,10.0,0.0,0.0,0.0,10.0,0.0,0.0,0.0,10.0,-0.0258326625738,0.018242653467,0.0109189604693,1.0,0.0,0.0,0.0,1.0,0.0,0.0,0.0,1.0,-1.95553344727,-3.22489379883,9.04598876953,0.1,0.0,0.0,0.0,0.1,0.0,0.0,0.0,0.1
1446040901350495769,2921,1446040901347150087,robocape,-11.6155818858,26.039648607,6.2280612646,0.0,10.0,0.0,0.0,0.0,10.0,0.0,0.0,0.0,10.0,0.108124340257,0.0315584589174,-0.0719053494321,1.0,0.0,0.0,0.0,1.0,0.0,0.0,0.0,1.0,-1.71124145508,-3.03688476562,9.03880371094,0.1,0.0,0.0,0.0,0.1,0.0,0.0,0.0,0.1
1446040901385519519,2922,1446040901382308959,robocape,-11.5188562922,26.0385267048,6.21056576624,0.0,10.0,0.0,0.0,0.0,10.0,0.0,0.0,0.0,10.0,0.0380832035881,0.034088461953,0.0031957933081,1.0,0.0,0.0,0.0,1.0,0.0,0.0,0.0,1.0,-0.821491699219,-3.48595092773,8.88911499023,0.1,0.0,0.0,0.0,0.1,0.0,0.0,0.0,0.1
1446040901420497853,2923,1446040901417510986,robocape,-11.4710258323,26.0375780957,6.3663651223,0.0,10.0,0.0,0.0,0.0,10.0,0.0,0.0,0.0,10.0,-0.0284958236638,0.0201068662301,0.084022732392,1.0,0.0,0.0,0.0,1.0,0.0,0.0,0.0,1.0,-0.907712402344,-3.76856323242,8.98491577148,0.1,0.0,0.0,0.0,0.1,0.0,0.0,0.0,0.1
1446040901452881394,2924,1446040901449302911,robocape,-11.449289168,26.020792975,6.37799795402,0.0,10.0,0.0,0.0,0.0,10.0,0.0,0.0,0.0,10.0,-0.00825579937925,0.0241016078652,0.0154463343225,1.0,0.0,0.0,0.0,1.0,0.0,0.0,0.0,1.0,-2.07528442383,-3.53145629883,9.00407592773,0.1,0.0,0.0,0.0,0.1,0.0,0.0,0.0,0.1
1446040901489306394,2925,1446040901486350059,robocape,-11.4475503648,25.9946693831,6.31163693938,0.0,10.0,0.0,0.0,0.0,10.0,0.0,0.0,0.0,10.0,-0.000399474163512,0.0258326625738,-0.0218379209386,1.0,0.0,0.0,0.0,1.0,0.0,0.0,0.0,1.0,-1.09931396484,-3.36021240234,9.13819702148,0.1,0.0,0.0,0.0,0.1,0.0,0.0,0.0,0.1
1446040901524188311,2926,1446040901521189928,robocape,-11.4177861,25.990244554,6.37173231681,0.0,10.0,0.0,0.0,0.0,10.0,0.0,0.0,0.0,10.0,-0.0154463343225,0.0264984528463,0.0392816260787,1.0,0.0,0.0,0.0,1.0,0.0,0.0,0.0,1.0,-0.974772949219,-3.30392944336,9.06993896484,0.1,0.0,0.0,0.0,0.1,0.0,0.0,0.0,0.1
1446040901561658436,2927,1446040901557781934,robocape,-11.3978112793,25.9799605269,6.40669328862,0.0,10.0,0.0,0.0,0.0,10.0,0.0,0.0,0.0,10.0,-0.0146473859954,0.0255663464648,0.0270310850643,1.0,0.0,0.0,0.0,1.0,0.0,0.0,0.0,1.0,-1.6058605957,-3.59372680664,9.04598876953,0.1,0.0,0.0,0.0,0.1,0.0,0.0,0.0,0.1
1446040901592439978,2928,1446040901589010000,robocape,-11.3664578079,25.9554608212,6.35710790808,0.0,10.0,0.0,0.0,0.0,10.0,0.0,0.0,0.0,10.0,0.0114515926873,0.0247673981377,-0.0139815957229,1.0,0.0,0.0,0.0,1.0,0.0,0.0,0.0,1.0,-1.41545654297,-3.51469116211,9.03760620117,0.1,0.0,0.0,0.0,0.1,0.0,0.0,0.0,0.1
1446040901627228936,2929,1446040901623882055,robocape,-11.2511176608,25.9321920373,6.28967039357,0.0,10.0,0.0,0.0,0.0,10.0,0.0,0.0,0.0,10.0,0.0603205986903,0.0256995045193,-0.0226368692657,1.0,0.0,0.0,0.0,1.0,0.0,0.0,0.0,1.0,-1.14362182617,-3.43086547852,9.04598876953,0.1,0.0,0.0,0.0,0.1,0.0,0.0,0.0,0.1
1446040901660901269,2930,1446040901657804965,robocape,-11.1391469818,25.8919724593,6.2385494643,0.0,10.0,0.0,0.0,0.0,10.0,0.0,0.0,0.0,10.0,0.0551274345646,0.0150468601589,-0.0170442309765,1.0,0.0,0.0,0.0,1.0,0.0,0.0,0.0,1.0,-1.4178515625,-3.3302746582,8.97294067383,0.1,0.0,0.0,0.0,0.1,0.0,0.0,0.0,0.1
1446040901690766728,2931,1446040901687689065,robocape,-11.1346988033,25.884712609,6.25019275411,0.0,10.0,0.0,0.0,0.0,10.0,0.0,0.0,0.0,10.0,-0.016911072922,0.0290284558819,0.0162452826495,1.0,0.0,0.0,0.0,1.0,0.0,0.0,0.0,1.0,-1.25259521484,-3.15424072266,9.17651733398,0.1,0.0,0.0,0.0,0.1,0.0,0.0,0.0,0.1
1446040901726781728,2932,1446040901723529100,robocape,-11.1537864118,25.8841586509,6.32421577096,0.0,10.0,0.0,0.0,0.0,10.0,0.0,0.0,0.0,10.0,-0.0440753160408,0.0278300333913,0.0462058449129,1.0,0.0,0.0,0.0,1.0,0.0,0.0,0.0,1.0,-1.21547241211,-3.35302734375,9.01245849609,0.1,0.0,0.0,0.0,0.1,0.0,0.0,0.0,0.1
1446040901757753686,2933,1446040901754326105,robocape,-11.0986565517,25.8739373191,6.32450793785,0.0,10.0,0.0,0.0,0.0,10.0,0.0,0.0,0.0,10.0,0.0126500151779,0.0276968753368,0.0105194863058,1.0,0.0,0.0,0.0,1.0,0.0,0.0,0.0,1.0,-1.25020019531,-3.49193847656,8.96934814453,0.1,0.0,0.0,0.0,0.1,0.0,0.0,0.0,0.1
1446040901795640103,2934,1446040901792411088,robocape,-10.9712918544,25.850802652,6.23299471003,0.0,10.0,0.0,0.0,0.0,10.0,0.0,0.0,0.0,10.0,0.0727042977592,0.0271642431188,-0.034088461953,1.0,0.0,0.0,0.0,1.0,0.0,0.0,0.0,1.0,-1.41186401367,-3.49912353516,9.06035888672,0.1,0.0,0.0,0.0,0.1,0.0,0.0,0.0,0.1
1446040901829858270,2935,1446040901826836109,robocape,-10.9313869041,25.8417039526,6.18853900617,0.0,10.0,0.0,0.0,0.0,10.0,0.0,0.0,0.0,10.0,0.015313176268,0.031957933081,-0.0103863282513,1.0,0.0,0.0,0.0,1.0,0.0,0.0,0.0,1.0,-1.22864501953,-3.33506469727,9.02682861328,0.1,0.0,0.0,0.0,0.1,0.0,0.0,0.0,0.1
1446040901859998061,2936,1446040901856684923,robocape,-10.9933403525,25.830953297,6.26549228751,0.0,10.0,0.0,0.0,0.0,10.0,0.0,0.0,0.0,10.0,-0.0669785014155,0.0225037112112,0.0464721610219,1.0,0.0,0.0,0.0,1.0,0.0,0.0,0.0,1.0,-1.16038696289,-3.5673815918,9.02563110352,0.1,0.0,0.0,0.0,0.1,0.0,0.0,0.0,0.1
1446040901896706436,2937,1446040901893249988,robocape,-11.0088334566,25.8200809387,6.31296406203,0.0,10.0,0.0,0.0,0.0,10.0,0.0,0.0,0.0,10.0,-0.0355532005526,0.0242347659197,0.0326237233535,1.0,0.0,0.0,0.0,1.0,0.0,0.0,0.0,1.0,-1.52323242188,-3.40332275391,9.12861694336,0.1,0.0,0.0,0.0,0.1,0.0,0.0,0.0,0.1
1446040901931704353,2938,1446040901928613901,robocape,-10.9223034264,25.8001599496,6.25215247241,0.0,10.0,0.0,0.0,0.0,10.0,0.0,0.0,0.0,10.0,0.0439421579863,0.0267647689553,-0.0193079179031,1.0,0.0,0.0,0.0,1.0,0.0,0.0,0.0,1.0,-1.56634277344,-3.34224975586,9.07951904297,0.1,0.0,0.0,0.0,0.1,0.0,0.0,0.0,0.1
1446040901962661103,2939,1446040901959322929,robocape,-10.7858777367,25.7769472573,6.15604826335,0.0,10.0,0.0,0.0,0.0,10.0,0.0,0.0,0.0,10.0,0.0788295682663,0.0270310850643,-0.0364853069341,1.0,0.0,0.0,0.0,1.0,0.0,0.0,0.0,1.0,-1.30768066406,-3.46918579102,9.0400012207,0.1,0.0,0.0,0.0,0.1,0.0,0.0,0.0,0.1
1446040901994926853,2940,1446040901991935014,robocape,-10.6443045167,25.7512819051,6.05324415432,0.0,10.0,0.0,0.0,0.0,10.0,0.0,0.0,0.0,10.0,0.0833569421195,0.0259658206283,-0.0400805744057,1.0,0.0,0.0,0.0,1.0,0.0,0.0,0.0,1.0,-1.25139770508,-3.45122314453,9.0471862793,0.1,0.0,0.0,0.0,0.1,0.0,0.0,0.0,0.1
1446040902029586895,2941,1446040902026546001,robocape,-10.5075154026,25.7240301144,5.92040005987,0.0,10.0,0.0,0.0,0.0,10.0,0.0,0.0,0.0,10.0,0.0880174740271,0.0272974011733,-0.0544616442921,1.0,0.0,0.0,0.0,1.0,0.0,0.0,0.0,1.0,-1.48131958008,-3.38775512695,9.1585546875,0.1,0.0,0.0,0.0,0.1,0.0,0.0,0.0,0.1
1446040902066951228,2942,1446040902063133001,robocape,-10.4540790108,25.7231246589,5.79740531349,0.0,10.0,0.0,0.0,0.0,10.0,0.0,0.0,0.0,10.0,0.0414121549507,0.0416784710597,-0.0470047932399,1.0,0.0,0.0,0.0,1.0,0.0,0.0,0.0,1.0,-1.24780517578,-3.38536010742,9.20645507812,0.1,0.0,0.0,0.0,0.1,0.0,0.0,0.0,0.1
1446040902100640520,2943,1446040902097660064,robocape,-10.483887305,25.7230795571,5.88717270203,0.0,10.0,0.0,0.0,0.0,10.0,0.0,0.0,0.0,10.0,-0.0519316412565,0.0266316109008,0.0527305895836,1.0,0.0,0.0,0.0,1.0,0.0,0.0,0.0,1.0,-0.899329833984,-3.66557739258,8.72745117187,0.1,0.0,0.0,0.0,0.1,0.0,0.0,0.0,0.1
1446040902131862853,2944,1446040902128221035,robocape,-10.450688323,25.6851981282,6.01148381871,0.0,10.0,0.0,0.0,0.0,10.0,0.0,0.0,0.0,10.0,-0.0260989786828,0.00266316109008,0.0648479725434,1.0,0.0,0.0,0.0,1.0,0.0,0.0,0.0,1.0,-1.19271972656,-3.47756835938,9.09508666992,0.1,0.0,0.0,0.0,0.1,0.0,0.0,0.0,0.1
1446040902166084103,2945,1446040902162817955,robocape,-10.406872838,25.6518727104,6.08640717583,0.0,10.0,0.0,0.0,0.0,10.0,0.0,0.0,0.0,10.0,-0.00905474770627,0.00878843159726,0.0423442613323,1.0,0.0,0.0,0.0,1.0,0.0,0.0,0.0,1.0,-1.63579833984,-3.36260742188,9.33219360352,0.1,0.0,0.0,0.0,0.1,0.0,0.0,0.0,0.1
1446040902199069436,2946,1446040902195872068,robocape,-10.3540835987,25.6433177728,5.97173161608,0.0,10.0,0.0,0.0,0.0,10.0,0.0,0.0,0.0,10.0,0.0392816260787,0.0366184649886,-0.0438089999318,1.0,0.0,0.0,0.0,1.0,0.0,0.0,0.0,1.0,-1.59508300781,-3.38775512695,9.28788574219,0.1,0.0,0.0,0.0,0.1,0.0,0.0,0.0,0.1
1446040902236783853,2947,1446040902233807086,robocape,-10.4202118734,25.6650158313,5.93506969689,0.0,10.0,0.0,0.0,0.0,10.0,0.0,0.0,0.0,10.0,-0.0420779452233,0.0484695318394,-0.00386158358061,1.0,0.0,0.0,0.0,1.0,0.0,0.0,0.0,1.0,-1.09691894531,-3.56498657227,9.14777709961,0.1,0.0,0.0,0.0,0.1,0.0,0.0,0.0,0.1
1446040902275709353,2948,1446040902267379045,robocape,-10.3943778172,25.6369355412,5.98673545957,0.0,10.0,0.0,0.0,0.0,10.0,0.0,0.0,0.0,10.0,-0.0131826473959,0.0135821215594,0.031957933081,1.0,0.0,0.0,0.0,1.0,0.0,0.0,0.0,1.0,-0.807121582031,-3.45002563477,9.14418457031,0.1,0.0,0.0,0.0,0.1,0.0,0.0,0.0,0.1
1446040902315062686,2949,1446040902312067985,robocape,-10.3500253941,25.6026230143,6.04974346434,0.0,10.0,0.0,0.0,0.0,10.0,0.0,0.0,0.0,10.0,-0.00585895439817,0.00905474770627,0.0366184649886,1.0,0.0,0.0,0.0,1.0,0.0,0.0,0.0,1.0,-1.39270385742,-3.39733520508,9.26034301758,0.1,0.0,0.0,0.0,0.1,0.0,0.0,0.0,0.1
1446040902345735353,2950,1446040902342467069,robocape,-10.2517722918,25.5869816862,5.92191055324,0.0,10.0,0.0,0.0,0.0,10.0,0.0,0.0,0.0,10.0,0.066579027252,0.033023197517,-0.050999534875,1.0,0.0,0.0,0.0,1.0,0.0,0.0,0.0,1.0,-1.66573608398,-3.42008789063,9.22082519531,0.1,0.0,0.0,0.0,0.1,0.0,0.0,0.0,0.1
1446040902379827395,2951,1446040902376610994,robocape,-10.1508162571,25.5951406506,5.69985292234,0.0,10.0,0.0,0.0,0.0,10.0,0.0,0.0,0.0,10.0,0.0896153706812,0.0528637476381,-0.0929443220438,1.0,0.0,0.0,0.0,1.0,0.0,0.0,0.0,1.0,-1.40587646484,-3.3374597168,9.15136962891,0.1,0.0,0.0,0.0,0.1,0.0,0.0,0.0,0.1
1446040902414174895,2952,1446040902411036968,robocape,-10.0894266063,25.5998564157,5.551404279,0.0,10.0,0.0,0.0,0.0,10.0,0.0,0.0,0.0,10.0,0.0519316412565,0.0458063707494,-0.0589890181453,1.0,0.0,0.0,0.0,1.0,0.0,0.0,0.0,1.0,-1.16278198242,-3.36739746094,8.9322253418,0.1,0.0,0.0,0.0,0.1,0.0,0.0,0.0,0.1
1446040902446238020,2953,1446040902442802906,robocape,-10.0502223222,25.5838875125,5.54723398629,0.0,10.0,0.0,0.0,0.0,10.0,0.0,0.0,0.0,10.0,0.00732369299772,0.0239684498107,0.00639158661619,1.0,0.0,0.0,0.0,1.0,0.0,0.0,0.0,1.0,-0.999920654297,-3.30632446289,8.99210083008,0.1,0.0,0.0,0.0,0.1,0.0,0.0,0.0,0.1
