%time,field.header.seq,field.header.stamp,field.header.frame_id,field.orientation.x,field.orientation.y,field.orientation.z,field.orientation.w,field.orientation_covariance0,field.orientation_covariance1,field.orientation_covariance2,field.orientation_covariance3,field.orientation_covariance4,field.orientation_covariance5,field.orientation_covariance6,field.orientation_covariance7,field.orientation_covariance8,field.angular_velocity.x,field.angular_velocity.y,field.angular_velocity.z,field.angular_velocity_covariance0,field.angular_velocity_covariance1,field.angular_velocity_covariance2,field.angular_velocity_covariance3,field.angular_velocity_covariance4,field.angular_velocity_covariance5,field.angular_velocity_covariance6,field.angular_velocity_covariance7,field.angular_velocity_covariance8,field.linear_acceleration.x,field.linear_acceleration.y,field.linear_acceleration.z,field.linear_acceleration_covariance0,field.linear_acceleration_covariance1,field.linear_acceleration_covariance2,field.linear_acceleration_covariance3,field.linear_acceleration_covariance4,field.linear_acceleration_covariance5,field.linear_acceleration_covariance6,field.linear_acceleration_covariance7,field.linear_acceleration_covariance8
1446040559775347690,1293,1446040559664463996,robocape,15.884952992,22.4166706309,19.6364767653,0.0,10.0,0.0,0.0,0.0,10.0,0.0,0.0,0.0,10.0,-0.0316916169719,-0.0428768935503,0.123836990689,1.0,0.0,0.0,0.0,1.0,0.0,0.0,0.0,1.0,-1.91481811523,1.12565917969,11.0494226074,0.1,0.0,0.0,0.0,0.1,0.0,0.0,0.0,0.1
1446040559791895773,1294,1446040559706790924,robocape,15.7394443679,22.1282184972,19.5611032545,0.0,10.0,0.0,0.0,0.0,10.0,0.0,0.0,0.0,10.0,-0.0484695318394,-0.128364364542,0.0238352917562,1.0,0.0,0.0,0.0,1.0,0.0,0.0,0.0,1.0,-2.78421020508,0.419128417969,6.11208984375,0.1,0.0,0.0,0.0,0.1,0.0,0.0,0.0,0.1
1446040559799395023,1295,1446040559745759963,robocape,15.674245178,22.0095530291,19.5211438691,0.0,10.0,0.0,0.0,0.0,10.0,0.0,0.0,0.0,10.0,-0.0113184346328,-0.0336889877895,0.0190416017941,1.0,0.0,0.0,0.0,1.0,0.0,0.0,0.0,1.0,0.981958007813,-0.184416503906,9.61360839844,0.1,0.0,0.0,0.0,0.1,0.0,0.0,0.0,0.1
1446040559804680023,1296,1446040559783036947,robocape,15.7513814926,21.745129611,19.6129539082,0.0,10.0,0.0,0.0,0.0,10.0,0.0,0.0,0.0,10.0,0.0379500455336,-0.0892158965177,0.102132227805,1.0,0.0,0.0,0.0,1.0,0.0,0.0,0.0,1.0,-2.58422607422,1.08015380859,8.98970581055,0.1,0.0,0.0,0.0,0.1,0.0,0.0,0.0,0.1
1446040559832994565,1297,1446040559829737901,robocape,15.7061436815,21.4194618457,19.5449602928,0.0,10.0,0.0,0.0,0.0,10.0,0.0,0.0,0.0,10.0,0.00239684498107,-0.146740176063,0.032490565299,1.0,0.0,0.0,0.0,1.0,0.0,0.0,0.0,1.0,-2.59620117188,1.27894042969,9.89622070313,0.1,0.0,0.0,0.0,0.1,0.0,0.0,0.0,0.1
1446040559868993940,1298,1446040559865684032,robocape,15.6410996692,21.2743095251,19.4747331492,0.0,10.0,0.0,0.0,0.0,10.0,0.0,0.0,0.0,10.0,-0.00625842856169,-0.0533963798561,0.00759000910673,1.0,0.0,0.0,0.0,1.0,0.0,0.0,0.0,1.0,-1.17834960938,1.71243896484,6.91561889648,0.1,0.0,0.0,0.0,0.1,0.0,0.0,0.0,0.1
1446040559911020398,1299,1446040559897227048,robocape,15.6338746703,21.7673429878,19.6427139437,0.0,10.0,0.0,0.0,0.0,10.0,0.0,0.0,0.0,10.0,-0.0138484376684,0.316516695556,0.0402137324602,1.0,0.0,0.0,0.0,1.0,0.0,0.0,0.0,1.0,3.40332275391,3.33985473633,13.7019067383,0.1,0.0,0.0,0.0,0.1,0.0,0.0,0.0,0.1
1446040559942181440,1300,1446040559939094066,robocape,15.051971925,21.8676493818,19.6602778219,0.0,10.0,0.0,0.0,0.0,10.0,0.0,0.0,0.0,10.0,-0.294412458508,0.082957467956,0.0146473859954,1.0,0.0,0.0,0.0,1.0,0.0,0.0,0.0,1.0,-2.66326171875,0.86220703125,13.5342553711,0.1,0.0,0.0,0.0,0.1,0.0,0.0,0.0,0.1
1446040559975316398,1301,1446040559972208976,robocape,14.8490886299,20.5041113932,19.3104632601,0.0,10.0,0.0,0.0,0.0,10.0,0.0,0.0,0.0,10.0,-0.0399474163512,-0.733700880317,0.0193079179031,1.0,0.0,0.0,0.0,1.0,0.0,0.0,0.0,1.0,-1.55556518555,1.32684082031,8.7753515625,0.1,0.0,0.0,0.0,0.1,0.0,0.0,0.0,0.1
1446040560009864523,1302,1446040560006002902,robocape,14.6418308991,20.5389799502,19.4500973281,0.0,10.0,0.0,0.0,0.0,10.0,0.0,0.0,0.0,10.0,-0.118910142672,0.0669785014155,0.0846885226645,1.0,0.0,0.0,0.0,1.0,0.0,0.0,0.0,1.0,-10.9536218262,-0.444276123047,8.78972167969,0.1,0.0,0.0,0.0,0.1,0.0,0.0,0.0,0.1
1446040560043796232,1303,1446040560040604114,robocape,14.1446118701,21.5357012938,19.4287582178,0.0,10.0,0.0,0.0,0.0,10.0,0.0,0.0,0.0,10.0,-0.236755020908,0.547412762066,-0.109189604693,1.0,0.0,0.0,0.0,1.0,0.0,0.0,0.0,1.0,-15.6059472656,0.314945068359,13.5282678223,0.1,0.0,0.0,0.0,0.1,0.0,0.0,0.0,0.1
1446040560077764565,1304,1446040560074580907,robocape,13.7486843435,20.5336098846,19.2461604201,0.0,10.0,0.0,0.0,0.0,10.0,0.0,0.0,0.0,10.0,-0.169909677547,-0.523710628364,0.0450074224223,1.0,0.0,0.0,0.0,1.0,0.0,0.0,0.0,1.0,14.9353417969,3.82364868164,9.89382568359,0.1,0.0,0.0,0.0,0.1,0.0,0.0,0.0,0.1
1446040560113313148,1305,1446040560109812974,robocape,13.6365192945,21.4253112105,19.5043422034,0.0,10.0,0.0,0.0,0.0,10.0,0.0,0.0,0.0,10.0,-0.0858869451551,0.534096956615,0.0478037415669,1.0,0.0,0.0,0.0,1.0,0.0,0.0,0.0,1.0,6.10969482422,0.866997070313,2.38663696289,0.1,0.0,0.0,0.0,0.1,0.0,0.0,0.0,0.1
1446040560147370482,1306,1446040560144287109,robocape,13.3890903688,23.4893706642,19.5275729625,0.0,10.0,0.0,0.0,0.0,10.0,0.0,0.0,0.0,10.0,-0.106393285549,1.12811503776,-0.194011285412,1.0,0.0,0.0,0.0,1.0,0.0,0.0,0.0,1.0,6.24501342773,1.20589233398,11.4793286133,0.1,0.0,0.0,0.0,0.1,0.0,0.0,0.0,0.1
1446040560176574940,1307,1446040560173486948,robocape,13.2844112559,23.7718458515,19.4051777761,0.0,10.0,0.0,0.0,0.0,10.0,0.0,0.0,0.0,10.0,-0.0149137021044,0.170708625874,-0.0656469208705,1.0,0.0,0.0,0.0,1.0,0.0,0.0,0.0,1.0,5.56842041016,3.35781738281,15.9640026855,0.1,0.0,0.0,0.0,0.1,0.0,0.0,0.0,0.1
1446040560208820190,1308,1446040560205478906,robocape,13.2449801529,23.9765160428,19.4874391332,0.0,10.0,0.0,0.0,0.0,10.0,0.0,0.0,0.0,10.0,-0.0231695014837,0.156727030151,0.0411458388417,1.0,0.0,0.0,0.0,1.0,0.0,0.0,0.0,1.0,4.55891967773,4.33857788086,14.3006616211,0.1,0.0,0.0,0.0,0.1,0.0,0.0,0.0,0.1
1446040560242946523,1309,1446040560239851951,robocape,13.8346041694,24.7937376016,19.651558797,0.0,10.0,0.0,0.0,0.0,10.0,0.0,0.0,0.0,10.0,0.296942461544,0.501739549371,0.017177389031,1.0,0.0,0.0,0.0,1.0,0.0,0.0,0.0,1.0,13.3067285156,5.29898071289,14.5952490234,0.1,0.0,0.0,0.0,0.1,0.0,0.0,0.0,0.1
1446040560274082732,1310,1446040560270817995,robocape,14.4400150083,24.0753292894,19.7566106768,0.0,10.0,0.0,0.0,0.0,10.0,0.0,0.0,0.0,10.0,0.305464577032,-0.322641966063,0.159390191241,1.0,0.0,0.0,0.0,1.0,0.0,0.0,0.0,1.0,2.27407104492,1.14242431641,13.02890625,0.1,0.0,0.0,0.0,0.1,0.0,0.0,0.0,0.1
1446040560308305232,1311,1446040560305121898,robocape,14.718165168,22.8588101686,19.8958096169,0.0,10.0,0.0,0.0,0.0,10.0,0.0,0.0,0.0,10.0,0.122904884307,-0.584164385109,0.235423440363,1.0,0.0,0.0,0.0,1.0,0.0,0.0,0.0,1.0,-11.0494226074,1.84775756836,6.73359741211,0.1,0.0,0.0,0.0,0.1,0.0,0.0,0.0,0.1
1446040560340405982,1312,1446040560337176084,robocape,14.3952068922,21.4921813027,19.7693008175,0.0,10.0,0.0,0.0,0.0,10.0,0.0,0.0,0.0,10.0,-0.143278066646,-0.706137163035,0.121839619871,1.0,0.0,0.0,0.0,1.0,0.0,0.0,0.0,1.0,10.9691894531,1.43222167969,11.4206506348,0.1,0.0,0.0,0.0,0.1,0.0,0.0,0.0,0.1
1446040560377240815,1313,1446040560373764991,robocape,14.0062598921,21.692076491,19.9871384212,0.0,10.0,0.0,0.0,0.0,10.0,0.0,0.0,0.0,10.0,-0.230230276237,0.164450197312,0.103330650295,1.0,0.0,0.0,0.0,1.0,0.0,0.0,0.0,1.0,2.30760131836,2.11959228516,1.58191040039,0.1,0.0,0.0,0.0,0.1,0.0,0.0,0.0,0.1
1446040560412684357,1314,1446040560409353017,robocape,13.7802216507,23.0495509314,20.3997313798,0.0,10.0,0.0,0.0,0.0,10.0,0.0,0.0,0.0,10.0,-0.174836525564,0.805739387803,0.0692421883421,1.0,0.0,0.0,0.0,1.0,0.0,0.0,0.0,1.0,6.33482666016,6.33602416992,19.3194250488,0.1,0.0,0.0,0.0,0.1,0.0,0.0,0.0,0.1
1446040560443791315,1315,1446040560440711975,robocape,13.0718229094,22.7177170616,20.6724629511,0.0,10.0,0.0,0.0,0.0,10.0,0.0,0.0,0.0,10.0,-0.417051026706,-0.111186975511,0.187619698796,1.0,0.0,0.0,0.0,1.0,0.0,0.0,0.0,1.0,5.12773681641,1.75075927734,5.95042602539,0.1,0.0,0.0,0.0,0.1,0.0,0.0,0.0,0.1
1446040560475379857,1316,1446040560471909046,robocape,12.2922191362,23.4665231309,20.8031428128,0.0,10.0,0.0,0.0,0.0,10.0,0.0,0.0,0.0,10.0,-0.42011366196,0.444614743989,0.00892158965177,1.0,0.0,0.0,0.0,1.0,0.0,0.0,0.0,1.0,10.3955822754,2.24652832031,13.0780041504,0.1,0.0,0.0,0.0,0.1,0.0,0.0,0.0,0.1
1446040560509962232,1317,1446040560506627082,robocape,11.2269187191,23.0365454189,20.2953174724,0.0,10.0,0.0,0.0,0.0,10.0,0.0,0.0,0.0,10.0,-0.450340540332,-0.261256102937,-0.186953908524,1.0,0.0,0.0,0.0,1.0,0.0,0.0,0.0,1.0,0.159268798828,1.29091552734,10.3033740234,0.1,0.0,0.0,0.0,0.1,0.0,0.0,0.0,0.1
1446040560544618482,1318,1446040560541486978,robocape,10.2051765581,23.3258566746,19.3257056827,0.0,10.0,0.0,0.0,0.0,10.0,0.0,0.0,0.0,10.0,-0.330897765442,0.0788295682663,-0.475374254579,1.0,0.0,0.0,0.0,1.0,0.0,0.0,0.0,1.0,4.19008666992,0.999920654297,8.24964477539,0.1,0.0,0.0,0.0,0.1,0.0,0.0,0.0,0.1
1446040560573973815,1319,1446040560570753097,robocape,10.1103901094,22.1905932873,17.8646942823,0.0,10.0,0.0,0.0,0.0,10.0,0.0,0.0,0.0,10.0,0.241948185034,-0.725311922883,-0.600276509704,1.0,0.0,0.0,0.0,1.0,0.0,0.0,0.0,1.0,8.18857177734,-2.88719604492,7.26648925781,0.1,0.0,0.0,0.0,0.1,0.0,0.0,0.0,0.1
1446040560603714398,1320,1446040560600558042,robocape,11.2498803613,22.1504240434,16.3456036559,0.0,10.0,0.0,0.0,0.0,10.0,0.0,0.0,0.0,10.0,0.901746345101,-0.143278066646,-0.711463485215,1.0,0.0,0.0,0.0,1.0,0.0,0.0,0.0,1.0,-1.74357421875,-0.495769042969,5.77319458008,0.1,0.0,0.0,0.0,0.1,0.0,0.0,0.0,0.1
1446040560639277857,1321,1446040560636202096,robocape,13.9969559118,23.1025923957,15.8954395599,0.0,10.0,0.0,0.0,0.0,10.0,0.0,0.0,0.0,10.0,1.55874818602,0.505601132952,-0.284958236638,1.0,0.0,0.0,0.0,1.0,0.0,0.0,0.0,1.0,6.25938354492,-0.725690917969,10.750045166,0.1,0.0,0.0,0.0,0.1,0.0,0.0,0.0,0.1
1446040560673604107,1322,1446040560670439958,robocape,17.5957549578,23.2665093852,16.3354683711,0.0,10.0,0.0,0.0,0.0,10.0,0.0,0.0,0.0,10.0,1.84051062935,0.223838689621,0.224371321839,1.0,0.0,0.0,0.0,1.0,0.0,0.0,0.0,1.0,2.27287353516,1.36516113281,6.09412719727,0.1,0.0,0.0,0.0,0.1,0.0,0.0,0.0,0.1
1446040560707324399,1323,1446040560704031944,robocape,20.6704796249,23.0477165694,18.6351456624,0.0,10.0,0.0,0.0,0.0,10.0,0.0,0.0,0.0,10.0,1.20601249964,0.366717282104,1.14635769122,1.0,0.0,0.0,0.0,1.0,0.0,0.0,0.0,1.0,0.840651855469,5.80073730469,9.1932824707,0.1,0.0,0.0,0.0,0.1,0.0,0.0,0.0,0.1
1446040560745230565,1324,1446040560742048978,robocape,21.794339116,21.9728990167,22.5446313731,0.0,10.0,0.0,0.0,0.0,10.0,0.0,0.0,0.0,10.0,-0.133024896449,0.262055051264,2.03572033726,1.0,0.0,0.0,0.0,1.0,0.0,0.0,0.0,1.0,7.94787231445,8.43286376953,9.68905151367,0.1,0.0,0.0,0.0,0.1,0.0,0.0,0.0,0.1
1446040560783293940,1325,1446040560780075073,robocape,19.3372984113,20.4608354696,25.9086709254,0.0,10.0,0.0,0.0,0.0,10.0,0.0,0.0,0.0,10.0,-1.90748913077,-0.13156015785,1.84437221293,1.0,0.0,0.0,0.0,1.0,0.0,0.0,0.0,1.0,-2.069296875,5.67859130859,8.11432617187,0.1,0.0,0.0,0.0,0.1,0.0,0.0,0.0,0.1
1446040560818746357,1326,1446040560815556049,robocape,14.4410025296,19.8492555115,27.0590982506,0.0,10.0,0.0,0.0,0.0,10.0,0.0,0.0,0.0,10.0,-2.77940807166,-0.158591242914,0.619051795389,1.0,0.0,0.0,0.0,1.0,0.0,0.0,0.0,1.0,1.17954711914,2.00942138672,8.70350097656,0.1,0.0,0.0,0.0,0.1,0.0,0.0,0.0,0.1
1446040560848616607,1327,1446040560845480918,robocape,8.09621675558,21.420309314,25.8383841022,0.0,10.0,0.0,0.0,0.0,10.0,0.0,0.0,0.0,10.0,-3.10298214411,0.668320275555,-0.769786713087,1.0,0.0,0.0,0.0,1.0,0.0,0.0,0.0,1.0,19.6194012451,2.03576660156,13.0995593262,0.1,0.0,0.0,0.0,0.1,0.0,0.0,0.0,0.1
1446040560883142982,1328,1446040560880034923,robocape,2.28093739787,20.6674034185,21.6362422817,0.0,10.0,0.0,0.0,0.0,10.0,0.0,0.0,0.0,10.0,-2.25103691139,-0.664192375866,-2.09124724598,1.0,0.0,0.0,0.0,1.0,0.0,0.0,0.0,1.0,1.53221374512,-3.77814331055,8.80169677734,0.1,0.0,0.0,0.0,0.1,0.0,0.0,0.0,0.1
1446040560914227024,1329,1446040560910851955,robocape,-1.57026804894,21.8086378608,14.471695146,0.0,10.0,0.0,0.0,0.0,10.0,0.0,0.0,0.0,10.0,-0.646082880453,0.500674284935,-3.5537221586,1.0,0.0,0.0,0.0,1.0,0.0,0.0,0.0,1.0,-3.05604492188,-6.29411132813,9.5034375,0.1,0.0,0.0,0.0,0.1,0.0,0.0,0.0,0.1
1446040560945682940,1330,1446040560942390918,robocape,0.356392215503,23.1260023632,7.25245798039,0.0,10.0,0.0,0.0,0.0,10.0,0.0,0.0,0.0,10.0,2.45570084116,0.672714491354,-3.51151105532,1.0,0.0,0.0,0.0,1.0,0.0,0.0,0.0,1.0,3.24644897461,-3.68473754883,14.6491369629,0.1,0.0,0.0,0.0,0.1,0.0,0.0,0.0,0.1
1446040560977017607,1331,1446040560973670005,robocape,6.47788291978,24.1707972691,2.1589042573,0.0,10.0,0.0,0.0,0.0,10.0,0.0,0.0,0.0,10.0,4.28369461339,0.40413469542,-2.47860402654,1.0,0.0,0.0,0.0,1.0,0.0,0.0,0.0,1.0,-3.79969848633,-5.86899536133,5.23192016602,0.1,0.0,0.0,0.0,0.1,0.0,0.0,0.0,0.1
1446040561012171399,1332,1446040561008430004,robocape,14.1578915293,24.522563182,0.822758565337,0.0,10.0,0.0,0.0,0.0,10.0,0.0,0.0,0.0,10.0,4.36318997193,0.147272808281,-0.663393427539,1.0,0.0,0.0,0.0,1.0,0.0,0.0,0.0,1.0,-1.39629638672,2.81175292969,4.87625976562,0.1,0.0,0.0,0.0,0.1,0.0,0.0,0.0,0.1
1446040561045798524,1333,1446040561042684078,robocape,23.5944033465,24.9587605679,4.19567280634,0.0,10.0,0.0,0.0,0.0,10.0,0.0,0.0,0.0,10.0,4.36318997193,0.921853211331,1.45115647798,1.0,0.0,0.0,0.0,1.0,0.0,0.0,0.0,1.0,8.57536743164,6.26177856445,6.9707043457,0.1,0.0,0.0,0.0,0.1,0.0,0.0,0.0,0.1
1446040561079794690,1334,1446040561076253890,robocape,33.5125735707,24.3651304159,13.9107163121,0.0,10.0,0.0,0.0,0.0,10.0,0.0,0.0,0.0,10.0,3.37435825918,2.25995850104,4.29554568024,1.0,0.0,0.0,0.0,1.0,0.0,0.0,0.0,1.0,10.7524401855,12.2385498047,12.2636975098,0.1,0.0,0.0,0.0,0.1,0.0,0.0,0.0,0.1
1446040561115466565,1335,1446040561111886024,robocape,36.0194897829,25.3018103545,25.4396980571,0.0,10.0,0.0,0.0,0.0,10.0,0.0,0.0,0.0,10.0,-0.972186955933,3.85159672653,4.36318997193,1.0,0.0,0.0,0.0,1.0,0.0,0.0,0.0,1.0,10.003996582,19.2691296387,17.2142028809,0.1,0.0,0.0,0.0,0.1,0.0,0.0,0.0,0.1
1446040561145569774,1336,1446040561142534017,robocape,31.7194517891,24.0448130314,35.3295180107,0.0,10.0,0.0,0.0,0.0,10.0,0.0,0.0,0.0,10.0,-4.36332312999,2.19111578686,4.36318997193,1.0,0.0,0.0,0.0,1.0,0.0,0.0,0.0,1.0,0.615520019531,15.8717944336,10.4889880371,0.1,0.0,0.0,0.0,0.1,0.0,0.0,0.0,0.1
1446040561175946649,1337,1446040561172888040,robocape,25.2518862919,20.085158355,40.1936873412,0.0,10.0,0.0,0.0,0.0,10.0,0.0,0.0,0.0,10.0,-4.36332312999,-0.721184023193,3.04891997398,1.0,0.0,0.0,0.0,1.0,0.0,0.0,0.0,1.0,-9.48547485352,7.04375244141,-1.08135131836,0.1,0.0,0.0,0.0,0.1,0.0,0.0,0.0,0.1
1446040561204415024,1338,1446040561201360940,robocape,17.717197251,16.4217759214,42.606809347,0.0,10.0,0.0,0.0,0.0,10.0,0.0,0.0,0.0,10.0,-4.36332312999,-1.38937114069,1.76407790607,1.0,0.0,0.0,0.0,1.0,0.0,0.0,0.0,1.0,-3.27039916992,2.97820678711,-7.76824584961,0.1,0.0,0.0,0.0,0.1,0.0,0.0,0.0,0.1
1446040561240813524,1339,1446040561237591028,robocape,9.32288285205,19.0545209492,42.3475111655,0.0,10.0,0.0,0.0,0.0,10.0,0.0,0.0,0.0,10.0,-4.36332312999,1.29829103141,-0.473776357925,1.0,0.0,0.0,0.0,1.0,0.0,0.0,0.0,1.0,17.0136199951,2.14473999023,5.48938476563,0.1,0.0,0.0,0.0,0.1,0.0,0.0,0.0,0.1
1446040561272450857,1340,1446040561269331932,robocape,-1.32683046753,17.9554846838,35.4288221992,0.0,10.0,0.0,0.0,0.0,10.0,0.0,0.0,0.0,10.0,-4.36332312999,-1.04049703789,-3.78262085429,1.0,0.0,0.0,0.0,1.0,0.0,0.0,0.0,1.0,7.95625488281,-19.62,-5.6678137207,0.1,0.0,0.0,0.0,0.1,0.0,0.0,0.0,0.1
1446040561301868774,1341,1446040561298424959,robocape,-2.33362339747,26.2446033106,26.457058173,0.0,10.0,0.0,0.0,0.0,10.0,0.0,0.0,0.0,10.0,1.2699283658,4.36318997193,-4.36332312999,1.0,0.0,0.0,0.0,1.0,0.0,0.0,0.0,1.0,19.599642334,-19.62,19.6194012451,0.1,0.0,0.0,0.0,0.1,0.0,0.0,0.0,0.1
1446040561336420815,1342,1446040561332266092,robocape,0.319745594274,34.4102491904,16.7488941136,0.0,10.0,0.0,0.0,0.0,10.0,0.0,0.0,0.0,10.0,3.97423529473,4.32111202671,-4.36332312999,1.0,0.0,0.0,0.0,1.0,0.0,0.0,0.0,1.0,-1.17595458984,-7.19703369141,6.68928955078,0.1,0.0,0.0,0.0,0.1,0.0,0.0,0.0,0.1
1446040561371338482,1343,1446040561368115901,robocape,2.37310948351,40.0771404373,6.45165341242,0.0,10.0,0.0,0.0,0.0,10.0,0.0,0.0,0.0,10.0,4.36318997193,2.96463092548,-4.36332312999,1.0,0.0,0.0,0.0,1.0,0.0,0.0,0.0,1.0,-9.76688964844,-8.52387451172,1.67411865234,0.1,0.0,0.0,0.0,0.1,0.0,0.0,0.0,0.1
1446040561400207066,1344,1446040561397041082,robocape,3.49510808054,42.0432939698,-4.421339628,0.0,10.0,0.0,0.0,0.0,10.0,0.0,0.0,0.0,10.0,4.36318997193,0.921853211331,-4.36332312999,1.0,0.0,0.0,0.0,1.0,0.0,0.0,0.0,1.0,-11.516451416,-10.1093774414,-5.25108032227,0.1,0.0,0.0,0.0,0.1,0.0,0.0,0.0,0.1
1446040561432125441,1345,1446040561429110050,robocape,5.03913592188,41.656833678,-14.4163976825,0.0,10.0,0.0,0.0,0.0,10.0,0.0,0.0,0.0,10.0,4.36318997193,-0.330631449333,-3.93561945892,1.0,0.0,0.0,0.0,1.0,0.0,0.0,0.0,1.0,-7.86045410156,-1.77590698242,-13.4983300781,0.1,0.0,0.0,0.0,0.1,0.0,0.0,0.0,0.1
1446040561461261732,1346,1446040561458075046,robocape,8.2868618216,40.4027254791,-21.8146679717,0.0,10.0,0.0,0.0,0.0,10.0,0.0,0.0,0.0,10.0,4.36318997193,-0.750212479075,-2.96423145131,1.0,0.0,0.0,0.0,1.0,0.0,0.0,0.0,1.0,-7.34312988281,7.86883666992,-14.3916723633,0.1,0.0,0.0,0.0,0.1,0.0,0.0,0.0,0.1
1446040561494684316,1347,1446040561491375923,robocape,20.4754204422,36.2358958967,-15.7654538384,0.0,10.0,0.0,0.0,0.0,10.0,0.0,0.0,0.0,10.0,4.36318997193,-1.59110559327,3.00697518681,1.0,0.0,0.0,0.0,1.0,0.0,0.0,0.0,1.0,-8.12450500488,19.6194012451,-3.3721875,0.1,0.0,0.0,0.0,0.1,0.0,0.0,0.0,0.1
1446040561529278316,1348,1446040561526109933,robocape,33.2569775881,32.8597201545,-7.46945774249,0.0,10.0,0.0,0.0,0.0,10.0,0.0,0.0,0.0,10.0,4.36318997193,0.177233370545,3.94600578717,1.0,0.0,0.0,0.0,1.0,0.0,0.0,0.0,1.0,3.25483154297,1.78309204102,6.94795166016,0.1,0.0,0.0,0.0,0.1,0.0,0.0,0.0,0.1
1446040561563347691,1349,1446040561560122013,robocape,46.1873802432,30.7184830699,3.2662364355,0.0,10.0,0.0,0.0,0.0,10.0,0.0,0.0,0.0,10.0,4.36318997193,2.65716897763,4.28928725168,1.0,0.0,0.0,0.0,1.0,0.0,0.0,0.0,1.0,8.660390625,4.7481262207,-9.426796875,0.1,0.0,0.0,0.0,0.1,0.0,0.0,0.0,0.1
1446040561592439024,1350,1446040561589349985,robocape,53.5117767551,30.8640710158,4.74490342001,0.0,10.0,0.0,0.0,0.0,10.0,0.0,0.0,0.0,10.0,4.36318997193,1.13117767301,0.211854464716,1.0,0.0,0.0,0.0,1.0,0.0,0.0,0.0,1.0,19.6194012451,-6.30728393555,-14.6850622559,0.1,0.0,0.0,0.0,0.1,0.0,0.0,0.0,0.1
1446040561627853982,1351,1446040561624752044,robocape,60.2017267056,29.6918611331,5.56502322592,0.0,10.0,0.0,0.0,0.0,10.0,0.0,0.0,0.0,10.0,4.36318997193,0.555934877554,0.549809607047,1.0,0.0,0.0,0.0,1.0,0.0,0.0,0.0,1.0,8.3885559082,7.94308227539,-15.1305358887,0.1,0.0,0.0,0.0,0.1,0.0,0.0,0.0,0.1
1446040561662040191,1352,1446040561658854007,robocape,66.4999418507,29.1942644303,6.78807927382,0.0,10.0,0.0,0.0,0.0,10.0,0.0,0.0,0.0,10.0,4.36318997193,1.05128284031,0.267115057335,1.0,0.0,0.0,0.0,1.0,0.0,0.0,0.0,1.0,3.10873535156,2.54949829102,-12.6900109863,0.1,0.0,0.0,0.0,0.1,0.0,0.0,0.0,0.1
1446040561692222232,1353,1446040561689191102,robocape,71.8828977486,28.9487696212,6.95265336009,0.0,10.0,0.0,0.0,0.0,10.0,0.0,0.0,0.0,10.0,4.36318997193,0.716124017122,-0.104262756677,1.0,0.0,0.0,0.0,1.0,0.0,0.0,0.0,1.0,19.6194012451,19.6194012451,-19.62,0.1,0.0,0.0,0.0,0.1,0.0,0.0,0.0,0.1
1446040561722526816,1354,1446040561719404935,robocape,78.5343049462,29.5612548589,11.8403819707,0.0,10.0,0.0,0.0,0.0,10.0,0.0,0.0,0.0,10.0,4.36318997193,3.21297069713,-0.0876179998636,1.0,0.0,0.0,0.0,1.0,0.0,0.0,0.0,1.0,1.97948364258,4.42479858398,-8.89749755859,0.1,0.0,0.0,0.0,0.1,0.0,0.0,0.0,0.1
1446040561764964399,1355,1446040561761660099,robocape,84.2944573706,30.5103065815,15.7834634711,0.0,10.0,0.0,0.0,0.0,10.0,0.0,0.0,0.0,10.0,4.36318997193,2.94079563372,-0.559130670862,1.0,0.0,0.0,0.0,1.0,0.0,0.0,0.0,1.0,0.294587402344,1.08254882812,-5.48100219727,0.1,0.0,0.0,0.0,0.1,0.0,0.0,0.0,0.1
1446040561793652566,1356,1446040561790600061,robocape,89.2316737381,31.371218653,18.585632134,0.0,10.0,0.0,0.0,0.0,10.0,0.0,0.0,0.0,10.0,4.36318997193,2.46661980163,-0.702408737508,1.0,0.0,0.0,0.0,1.0,0.0,0.0,0.0,1.0,4.88464233398,-1.27175537109,-10.8506359863,0.1,0.0,0.0,0.0,0.1,0.0,0.0,0.0,0.1
1446040561822789357,1357,1446040561819731950,robocape,93.9433474635,30.8551921992,21.7002985131,0.0,10.0,0.0,0.0,0.0,10.0,0.0,0.0,0.0,10.0,4.36318997193,2.72294905655,-0.0777643038303,1.0,0.0,0.0,0.0,1.0,0.0,0.0,0.0,1.0,16.9555407715,-10.9847570801,-16.1675793457,0.1,0.0,0.0,0.0,0.1,0.0,0.0,0.0,0.1
1446040561855454274,1358,1446040561852296113,robocape,98.8980259484,28.4005149435,27.2130124386,0.0,10.0,0.0,0.0,0.0,10.0,0.0,0.0,0.0,10.0,4.36318997193,4.26332143105,0.730505087009,1.0,0.0,0.0,0.0,1.0,0.0,0.0,0.0,1.0,12.967833252,-6.38152954102,-14.0994799805,0.1,0.0,0.0,0.0,0.1,0.0,0.0,0.0,0.1
1446040561888477691,1359,1446040561885257959,robocape,102.965983097,26.3838574255,32.2156427122,0.0,10.0,0.0,0.0,0.0,10.0,0.0,0.0,0.0,10.0,4.36318997193,4.26092458607,0.463656345783,1.0,0.0,0.0,0.0,1.0,0.0,0.0,0.0,1.0,5.93725341797,-1.91002807617,-13.4168994141,0.1,0.0,0.0,0.0,0.1,0.0,0.0,0.0,0.1
1446040561919952607,1360,1446040561916728019,robocape,105.589216103,26.0366798263,32.2337354866,0.0,10.0,0.0,0.0,0.0,10.0,0.0,0.0,0.0,10.0,4.36318997193,1.52878762376,0.167779148675,1.0,0.0,0.0,0.0,1.0,0.0,0.0,0.0,1.0,19.6194012451,13.8599780273,-0.204774169922,0.1,0.0,0.0,0.0,0.1,0.0,0.0,0.0,0.1
1446040561952574732,1361,1446040561949357986,robocape,107.072429361,24.5047679106,27.7131141607,0.0,10.0,0.0,0.0,0.0,10.0,0.0,0.0,0.0,10.0,4.36318997193,-0.668852907773,1.3911021954,1.0,0.0,0.0,0.0,1.0,0.0,0.0,0.0,1.0,7.94427978516,2.39621704102,-7.54670654297,0.1,0.0,0.0,0.0,0.1,0.0,0.0,0.0,0.1
1446040561983012816,1362,1446040561979581117,robocape,108.710611124,22.8635475305,25.1769860584,0.0,10.0,0.0,0.0,0.0,10.0,0.0,0.0,0.0,10.0,4.36318997193,0.306529841468,1.13370767605,1.0,0.0,0.0,0.0,1.0,0.0,0.0,0.0,1.0,2.85366577148,2.16030761719,-6.7060546875,0.1,0.0,0.0,0.0,0.1,0.0,0.0,0.0,0.1
1446040562018206899,1363,1446040562014899015,robocape,110.36673831,21.3357251432,23.7864571622,0.0,10.0,0.0,0.0,0.0,10.0,0.0,0.0,0.0,10.0,4.36318997193,0.824647831543,0.882571585252,1.0,0.0,0.0,0.0,1.0,0.0,0.0,0.0,1.0,0.974772949219,1.27894042969,-7.17188598633,0.1,0.0,0.0,0.0,0.1,0.0,0.0,0.0,0.1
1446040562049556899,1364,1446040562046418905,robocape,111.980053505,20.2012847482,23.1237854927,0.0,10.0,0.0,0.0,0.0,10.0,0.0,0.0,0.0,10.0,4.36318997193,1.08670288281,0.555002771173,1.0,0.0,0.0,0.0,1.0,0.0,0.0,0.0,1.0,0.773591308594,1.38072875977,-7.32516723633,0.1,0.0,0.0,0.0,0.1,0.0,0.0,0.0,0.1
1446040562078957732,1365,1446040562075953960,robocape,113.515725013,19.5007172964,22.883452687,0.0,10.0,0.0,0.0,0.0,10.0,0.0,0.0,0.0,10.0,4.36318997193,1.1929630103,0.257261361302,1.0,0.0,0.0,0.0,1.0,0.0,0.0,0.0,1.0,19.6194012451,-19.62,-18.7446203613,0.1,0.0,0.0,0.0,0.1,0.0,0.0,0.0,0.1
1446040562113066816,1366,1446040562109420061,robocape,115.12072465,28.9572608245,20.7252609659,0.0,10.0,0.0,0.0,0.0,10.0,0.0,0.0,0.0,10.0,4.36318997193,-2.12187359852,-4.36332312999,1.0,0.0,0.0,0.0,1.0,0.0,0.0,0.0,1.0,-19.62,-19.62,-19.62,0.1,0.0,0.0,0.0,0.1,0.0,0.0,0.0,0.1
1446040562149163483,1367,1446040562146080017,robocape,115.32728896,38.4728509483,16.7683657861,0.0,10.0,0.0,0.0,0.0,10.0,0.0,0.0,0.0,10.0,4.36318997193,-2.73280275258,-4.36332312999,1.0,0.0,0.0,0.0,1.0,0.0,0.0,0.0,1.0,-19.62,1.39629638672,-19.62,0.1,0.0,0.0,0.0,0.1,0.0,0.0,0.0,0.1
1446040562178868899,1368,1446040562175832986,robocape,112.27238477,47.0431656783,8.11034074889,0.0,10.0,0.0,0.0,0.0,10.0,0.0,0.0,0.0,10.0,4.36318997193,-3.95639211542,-3.59912905519,1.0,0.0,0.0,0.0,1.0,0.0,0.0,0.0,1.0,-16.2717626953,2.62973144531,-19.62,0.1,0.0,0.0,0.0,0.1,0.0,0.0,0.0,0.1
1446040562212721858,1369,1446040562209404945,robocape,107.888413457,46.4236550556,-3.4990585291,0.0,10.0,0.0,0.0,0.0,10.0,0.0,0.0,0.0,10.0,4.36318997193,-3.10191687967,0.922785317712,1.0,0.0,0.0,0.0,1.0,0.0,0.0,0.0,1.0,15.2586694336,4.23199951172,-19.62,0.1,0.0,0.0,0.0,0.1,0.0,0.0,0.0,0.1
1446040562248449816,1370,1446040562245325088,robocape,109.066190837,38.6490194403,-7.57903231929,0.0,10.0,0.0,0.0,0.0,10.0,0.0,0.0,0.0,10.0,4.36318997193,0.415453130052,3.48181680917,1.0,0.0,0.0,0.0,1.0,0.0,0.0,0.0,1.0,19.6194012451,-8.83762207031,-19.62,0.1,0.0,0.0,0.0,0.1,0.0,0.0,0.0,0.1
1446040562281381941,1371,1446040562278237104,robocape,111.198474574,36.7759787163,-6.43037192347,0.0,10.0,0.0,0.0,0.0,10.0,0.0,0.0,0.0,10.0,4.36318997193,1.46354017705,-0.615057053754,1.0,0.0,0.0,0.0,1.0,0.0,0.0,0.0,1.0,-19.62,19.6194012451,-19.62,0.1,0.0,0.0,0.0,0.1,0.0,0.0,0.0,0.1
1446040562317876733,1372,1446040562314670085,robocape,107.770789514,38.9434021634,-15.3640763351,0.0,10.0,0.0,0.0,0.0,10.0,0.0,0.0,0.0,10.0,4.36318997193,-3.45225572107,-1.01786016863,1.0,0.0,0.0,0.0,1.0,0.0,0.0,0.0,1.0,-1.51484985352,9.40763671875,-19.62,0.1,0.0,0.0,0.0,0.1,0.0,0.0,0.0,0.1
1446040562351610274,1373,1446040562348481893,robocape,107.43892136,33.9529983258,-21.3883288473,0.0,10.0,0.0,0.0,0.0,10.0,0.0,0.0,0.0,10.0,4.36318997193,-1.36833216808,2.21388581418,1.0,0.0,0.0,0.0,1.0,0.0,0.0,0.0,1.0,9.68066894531,7.62095214844,-19.62,0.1,0.0,0.0,0.0,0.1,0.0,0.0,0.0,0.1
1446040562379021524,1374,1446040562375802040,robocape,111.753387676,23.1947454283,-20.56842475,0.0,10.0,0.0,0.0,0.0,10.0,0.0,0.0,0.0,10.0,4.36318997193,2.38432812395,4.36318997193,1.0,0.0,0.0,0.0,1.0,0.0,0.0,0.0,1.0,-8.99689086914,19.6194012451,-19.62,0.1,0.0,0.0,0.0,0.1,0.0,0.0,0.0,0.1
1446040562412927149,1375,1446040562409662961,robocape,105.153530111,26.9962221347,-28.9481782583,0.0,10.0,0.0,0.0,0.0,10.0,0.0,0.0,0.0,10.0,-2.09111408793,-4.36332312999,-0.462058449129,1.0,0.0,0.0,0.0,1.0,0.0,0.0,0.0,1.0,5.66062866211,5.78157714844,-19.62,0.1,0.0,0.0,0.0,0.1,0.0,0.0,0.0,0.1
1446040562449889899,1376,1446040562446759939,robocape,95.1080111459,34.1015635303,-37.4905208613,0.0,10.0,0.0,0.0,0.0,10.0,0.0,0.0,0.0,10.0,-3.78328664457,-4.36332312999,-2.61415892602,1.0,0.0,0.0,0.0,1.0,0.0,0.0,0.0,1.0,3.63444213867,3.32069458008,-5.58638305664,0.1,0.0,0.0,0.0,0.1,0.0,0.0,0.0,0.1
1446040562479048983,1377,1446040562476011037,robocape,82.1490608031,40.4522743881,-48.174555666,0.0,10.0,0.0,0.0,0.0,10.0,0.0,0.0,0.0,10.0,-3.62762487885,-4.36332312999,-3.28394394018,1.0,0.0,0.0,0.0,1.0,0.0,0.0,0.0,1.0,3.64162719727,0.755628662109,-4.28229492188,0.1,0.0,0.0,0.0,0.1,0.0,0.0,0.0,0.1
1446040562514729233,1378,1446040562511418104,robocape,67.3187062884,44.2123977615,-61.0724534348,0.0,10.0,0.0,0.0,0.0,10.0,0.0,0.0,0.0,10.0,-2.62174893513,-4.36332312999,-3.69739969941,1.0,0.0,0.0,0.0,1.0,0.0,0.0,0.0,1.0,2.27526855469,-0.573607177734,-3.0692175293,0.1,0.0,0.0,0.0,0.1,0.0,0.0,0.0,0.1
1446040562545914649,1379,1446040562542716979,robocape,63.2224365541,41.3124498954,-67.8603008872,0.0,10.0,0.0,0.0,0.0,10.0,0.0,0.0,0.0,10.0,1.70934994567,-3.05198260923,-1.06899286156,1.0,0.0,0.0,0.0,1.0,0.0,0.0,0.0,1.0,-19.62,-19.523001709,-8.1274987793,0.1,0.0,0.0,0.0,0.1,0.0,0.0,0.0,0.1
1446040562581053733,1380,1446040562576471090,robocape,66.8357011569,37.9908037986,-65.9654844313,0.0,10.0,0.0,0.0,0.0,10.0,0.0,0.0,0.0,10.0,1.92533231007,-0.0699079786146,1.23996780354,1.0,0.0,0.0,0.0,1.0,0.0,0.0,0.0,1.0,-6.22465576172,1.47892456055,3.20932617188,0.1,0.0,0.0,0.0,0.1,0.0,0.0,0.0,0.1
1446040562620073191,1381,1446040562613945960,robocape,70.7333023456,34.5893715646,-63.6595973657,0.0,10.0,0.0,0.0,0.0,10.0,0.0,0.0,0.0,10.0,1.98591922487,0.204397613664,1.39349904038,1.0,0.0,0.0,0.0,1.0,0.0,0.0,0.0,1.0,1.68729125977,-0.0886157226563,0.0969982910156,0.1,0.0,0.0,0.0,0.1,0.0,0.0,0.0,0.1
1446040562650279024,1382,1446040562647156000,robocape,74.8613625182,31.2488683602,-60.962026934,0.0,10.0,0.0,0.0,0.0,10.0,0.0,0.0,0.0,10.0,2.15436416382,0.51678640953,1.35288583376,1.0,0.0,0.0,0.0,1.0,0.0,0.0,0.0,1.0,-0.0203576660156,-0.850231933594,-0.226329345703,0.1,0.0,0.0,0.0,0.1,0.0,0.0,0.0,0.1
1446040562681163024,1383,1446040562678056001,robocape,79.5871469438,25.9462346,-55.1073843654,0.0,10.0,0.0,0.0,0.0,10.0,0.0,0.0,0.0,10.0,-0.0957406411883,2.18006366834,4.18435870473,1.0,0.0,0.0,0.0,1.0,0.0,0.0,0.0,1.0,1.36755615234,19.6194012451,-7.52634887695,0.1,0.0,0.0,0.0,0.1,0.0,0.0,0.0,0.1
1446040562712430566,1384,1446040562709304094,robocape,90.0444833937,17.9967376219,-45.2638439516,0.0,10.0,0.0,0.0,0.0,10.0,0.0,0.0,0.0,10.0,3.89886783588,4.36318997193,4.36318997193,1.0,0.0,0.0,0.0,1.0,0.0,0.0,0.0,1.0,-4.69304077148,8.77654907227,-19.62,0.1,0.0,0.0,0.0,0.1,0.0,0.0,0.0,0.1
1446040562754495649,1385,1446040562751182079,robocape,88.5506578834,17.345513236,-47.3269163248,0.0,10.0,0.0,0.0,0.0,10.0,0.0,0.0,0.0,10.0,0.403602063202,-1.25607992814,-0.133291212558,1.0,0.0,0.0,0.0,1.0,0.0,0.0,0.0,1.0,-14.827565918,15.7759936523,-8.87953491211,0.1,0.0,0.0,0.0,0.1,0.0,0.0,0.0,0.1
1446040562786229399,1386,1446040562782363891,robocape,90.4418664825,16.3940937885,-45.2591856359,0.0,10.0,0.0,0.0,0.0,10.0,0.0,0.0,0.0,10.0,2.15516311215,0.668320275555,-0.306529841468,1.0,0.0,0.0,0.0,1.0,0.0,0.0,0.0,1.0,1.82380737305,4.2882824707,-4.41162597656,0.1,0.0,0.0,0.0,0.1,0.0,0.0,0.0,0.1
1446040562822235316,1387,1446040562818821907,robocape,87.5560480789,17.8952805065,-44.0892785182,0.0,10.0,0.0,0.0,0.0,10.0,0.0,0.0,0.0,10.0,-2.17740050725,0.723580868175,-0.508397452096,1.0,0.0,0.0,0.0,1.0,0.0,0.0,0.0,1.0,1.93158325195,14.7640979004,-6.89765625,0.1,0.0,0.0,0.0,0.1,0.0,0.0,0.0,0.1
1446040562851745233,1388,1446040562848615884,robocape,85.2037268954,19.4706278,-41.8066475199,0.0,10.0,0.0,0.0,0.0,10.0,0.0,0.0,0.0,10.0,-2.11201990249,1.28843733538,-0.468982667963,1.0,0.0,0.0,0.0,1.0,0.0,0.0,0.0,1.0,3.6057019043,15.2742370605,-16.4082788086,0.1,0.0,0.0,0.0,0.1,0.0,0.0,0.0,0.1
1446040562879565066,1389,1446040562876368999,robocape,82.5918861106,19.3398016741,-42.2536217091,0.0,10.0,0.0,0.0,0.0,10.0,0.0,0.0,0.0,10.0,-1.56380819209,-0.174836525564,0.197606552884,1.0,0.0,0.0,0.0,1.0,0.0,0.0,0.0,1.0,-2.33514404297,-0.221539306641,-2.97341674805,0.1,0.0,0.0,0.0,0.1,0.0,0.0,0.0,0.1
1446040562917024733,1390,1446040562912765979,robocape,83.2612530903,16.4917449667,-41.2336715639,0.0,10.0,0.0,0.0,0.0,10.0,0.0,0.0,0.0,10.0,0.446878430915,0.275637172823,1.40188799782,1.0,0.0,0.0,0.0,1.0,0.0,0.0,0.0,1.0,-1.24660766602,15.0814379883,-3.20453613281,0.1,0.0,0.0,0.0,0.1,0.0,0.0,0.0,0.1
1446040562947355983,1391,1446040562944058895,robocape,82.6672206903,14.4309993425,-40.7518883001,0.0,10.0,0.0,0.0,0.0,10.0,0.0,0.0,0.0,10.0,-0.37577202981,0.108656972475,1.09948605604,1.0,0.0,0.0,0.0,1.0,0.0,0.0,0.0,1.0,0.886157226563,10.0782421875,-3.57336914063,0.1,0.0,0.0,0.0,0.1,0.0,0.0,0.0,0.1
1446040562984189441,1392,1446040562980788946,robocape,81.5673435028,13.0170420723,-40.1545468578,0.0,10.0,0.0,0.0,0.0,10.0,0.0,0.0,0.0,10.0,-0.756737223746,0.222373951022,0.829840995669,1.0,0.0,0.0,0.0,1.0,0.0,0.0,0.0,1.0,1.17954711914,11.1631860352,-3.77814331055,0.1,0.0,0.0,0.0,0.1,0.0,0.0,0.0,0.1
1446040563016843358,1393,1446040563013397932,robocape,79.940870082,12.0431508837,-39.9620920772,0.0,10.0,0.0,0.0,0.0,10.0,0.0,0.0,0.0,10.0,-1.02345280692,0.0490021640575,0.595882293905,1.0,0.0,0.0,0.0,1.0,0.0,0.0,0.0,1.0,-0.923280029297,10.0375268555,-3.92064697266,0.1,0.0,0.0,0.0,0.1,0.0,0.0,0.0,0.1
1446040563053137150,1394,1446040563049907922,robocape,77.80505734,11.7266814839,-40.143647463,0.0,10.0,0.0,0.0,0.0,10.0,0.0,0.0,0.0,10.0,-1.24702518043,-0.0885501062451,0.222240792967,1.0,0.0,0.0,0.0,1.0,0.0,0.0,0.0,1.0,1.92320068359,11.0182873535,-2.20222045898,0.1,0.0,0.0,0.0,0.1,0.0,0.0,0.0,0.1
1446040563084162233,1395,1446040563081088066,robocape,75.6135688424,11.8219040318,-40.5647307195,0.0,10.0,0.0,0.0,0.0,10.0,0.0,0.0,0.0,10.0,-1.14129768515,-0.189483911559,-0.0770985135578,1.0,0.0,0.0,0.0,1.0,0.0,0.0,0.0,1.0,0.996328125,9.1549621582,-0.912502441406,0.1,0.0,0.0,0.0,0.1,0.0,0.0,0.0,0.1
1446040563115073691,1396,1446040563111455917,robocape,74.1688154738,11.8657944173,-40.7767402789,0.0,10.0,0.0,0.0,0.0,10.0,0.0,0.0,0.0,10.0,-0.550342239265,-0.141147537774,-0.153531236843,1.0,0.0,0.0,0.0,1.0,0.0,0.0,0.0,1.0,0.549656982422,9.14897460938,-0.570014648438,0.1,0.0,0.0,0.0,0.1,0.0,0.0,0.0,0.1
1446040563146590900,1397,1446040563143409013,robocape,73.9553428327,11.5648785713,-40.3620200851,0.0,10.0,0.0,0.0,0.0,10.0,0.0,0.0,0.0,10.0,0.268313479825,0.0677774497425,-0.0294279300454,1.0,0.0,0.0,0.0,1.0,0.0,0.0,0.0,1.0,0.349672851562,8.95378051758,-0.896934814453,0.1,0.0,0.0,0.0,0.1,0.0,0.0,0.0,0.1
1446040563178988233,1398,1446040563175946950,robocape,74.430594618,11.1314945802,-39.6802433068,0.0,10.0,0.0,0.0,0.0,10.0,0.0,0.0,0.0,10.0,0.76512618118,0.148471230772,-0.0107858024148,1.0,0.0,0.0,0.0,1.0,0.0,0.0,0.0,1.0,0.607137451172,9.90699829102,-1.46934448242,0.1,0.0,0.0,0.0,0.1,0.0,0.0,0.0,0.1
1446040563212357900,1399,1446040563209256887,robocape,75.0193805053,10.8324573434,-39.0110851008,0.0,10.0,0.0,0.0,0.0,10.0,0.0,0.0,0.0,10.0,0.899882132338,0.148870704935,-0.113583820492,1.0,0.0,0.0,0.0,1.0,0.0,0.0,0.0,1.0,0.613125,10.9176965332,-2.39262451172,0.1,0.0,0.0,0.0,0.1,0.0,0.0,0.0,0.1
1446040563246783816,1400,1446040563242976903,robocape,75.2723864828,10.7765757338,-38.587860786,0.0,10.0,0.0,0.0,0.0,10.0,0.0,0.0,0.0,10.0,0.723580868175,0.0659132369795,-0.251402406903,1.0,0.0,0.0,0.0,1.0,0.0,0.0,0.0,1.0,0.24908203125,10.9536218262,-3.04167480469,0.1,0.0,0.0,0.0,0.1,0.0,0.0,0.0,0.1
1446040563279027108,1401,1446040563275918006,robocape,75.2370775687,10.7235725211,-38.3018437149,0.0,10.0,0.0,0.0,0.0,10.0,0.0,0.0,0.0,10.0,0.510261664859,0.0150468601589,-0.227966589311,1.0,0.0,0.0,0.0,1.0,0.0,0.0,0.0,1.0,-0.152083740234,10.6243066406,-3.21651123047,0.1,0.0,0.0,0.0,0.1,0.0,0.0,0.0,0.1
1446040563312294983,1402,1446040563309192895,robocape,74.8717381333,10.5946448627,-38.0723162617,0.0,10.0,0.0,0.0,0.0,10.0,0.0,0.0,0.0,10.0,0.218911841605,0.00359526747161,-0.130361735359,1.0,0.0,0.0,0.0,1.0,0.0,0.0,0.0,1.0,-0.0993933105469,10.9176965332,-3.47637084961,0.1,0.0,0.0,0.0,0.1,0.0,0.0,0.0,0.1
1446040563346246066,1403,1446040563342921972,robocape,74.2705379701,10.3448140967,-37.8873259115,0.0,10.0,0.0,0.0,0.0,10.0,0.0,0.0,0.0,10.0,-0.00253000303558,-0.0139815957229,-0.0207726565026,1.0,0.0,0.0,0.0,1.0,0.0,0.0,0.0,1.0,-0.176033935547,10.6781945801,-3.41889038086,0.1,0.0,0.0,0.0,0.1,0.0,0.0,0.0,0.1
1446040563378938941,1404,1446040563375870943,robocape,73.4487518367,10.0040809721,-37.6959821638,0.0,10.0,0.0,0.0,0.0,10.0,0.0,0.0,0.0,10.0,-0.218645525496,-0.00439421579863,0.0788295682663,1.0,0.0,0.0,0.0,1.0,0.0,0.0,0.0,1.0,-0.0586779785156,10.7308850098,-3.30512695313,0.1,0.0,0.0,0.0,0.1,0.0,0.0,0.0,0.1
1446040563412983108,1405,1446040563409862995,robocape,72.479289128,9.52453495577,-37.4428548346,0.0,10.0,0.0,0.0,0.0,10.0,0.0,0.0,0.0,10.0,-0.389753625533,0.0209058145571,0.204797087827,1.0,0.0,0.0,0.0,1.0,0.0,0.0,0.0,1.0,-0.0550854492188,10.7344775391,-3.16142578125,0.1,0.0,0.0,0.0,0.1,0.0,0.0,0.0,0.1
1446040563446347566,1406,1446040563443098068,robocape,71.4191145459,8.90593931086,-37.0668305016,0.0,10.0,0.0,0.0,0.0,10.0,0.0,0.0,0.0,10.0,-0.521846415601,0.0703074527781,0.334226716805,1.0,0.0,0.0,0.0,1.0,0.0,0.0,0.0,1.0,0.0754431152344,10.3764221191,-2.85725830078,0.1,0.0,0.0,0.0,0.1,0.0,0.0,0.0,0.1
1446040563479035441,1407,1446040563476006984,robocape,70.1553359206,8.48633718628,-36.929530127,0.0,10.0,0.0,0.0,0.0,10.0,0.0,0.0,0.0,10.0,-0.612127576555,-0.0186421276306,0.198938133429,1.0,0.0,0.0,0.0,1.0,0.0,0.0,0.0,1.0,0.775986328125,10.6087390137,-2.30640380859,0.1,0.0,0.0,0.0,0.1,0.0,0.0,0.0,0.1
1446040563512262317,1408,1446040563509234905,robocape,69.0383225129,8.229560242,-36.8247381468,0.0,10.0,0.0,0.0,0.0,10.0,0.0,0.0,0.0,10.0,-0.472977409598,-0.0227700273202,0.0808269390839,1.0,0.0,0.0,0.0,1.0,0.0,0.0,0.0,1.0,0.731678466797,10.1177600098,-1.63220581055,0.1,0.0,0.0,0.0,0.1,0.0,0.0,0.0,0.1
1446040563545799983,1409,1446040563542547941,robocape,68.3344961011,8.06009795307,-36.674251065,0.0,10.0,0.0,0.0,0.0,10.0,0.0,0.0,0.0,10.0,-0.15166702408,-0.0101200121423,-0.0119842249054,1.0,0.0,0.0,0.0,1.0,0.0,0.0,0.0,1.0,0.578397216797,9.8447277832,-1.30887817383,0.1,0.0,0.0,0.0,0.1,0.0,0.0,0.0,0.1
1446040563579653900,1410,1446040563575978040,robocape,68.0862088012,7.94783029404,-36.42152271,0.0,10.0,0.0,0.0,0.0,10.0,0.0,0.0,0.0,10.0,0.185489169924,0.0268979270098,-0.0769653555033,1.0,0.0,0.0,0.0,1.0,0.0,0.0,0.0,1.0,0.549656982422,10.2303259277,-1.61544067383,0.1,0.0,0.0,0.0,0.1,0.0,0.0,0.0,0.1
1446040563612891358,1411,1446040563609548091,robocape,68.0760610286,7.86900147417,-36.1169504087,0.0,10.0,0.0,0.0,0.0,10.0,0.0,0.0,0.0,10.0,0.361923592142,0.0471379512944,-0.11145329162,1.0,0.0,0.0,0.0,1.0,0.0,0.0,0.0,1.0,0.438288574219,10.5105432129,-2.06450683594,0.1,0.0,0.0,0.0,0.1,0.0,0.0,0.0,0.1
1446040563646239775,1412,1446040563643022060,robocape,68.0656156836,7.8307902953,-35.8413860149,0.0,10.0,0.0,0.0,0.0,10.0,0.0,0.0,0.0,10.0,0.370578865685,0.0403468905147,-0.138750692793,1.0,0.0,0.0,0.0,1.0,0.0,0.0,0.0,1.0,0.258662109375,10.6231091309,-2.43573486328,0.1,0.0,0.0,0.0,0.1,0.0,0.0,0.0,0.1
1446040563679417525,1413,1446040563676278114,robocape,67.9877683393,7.73166455079,-35.5453535856,0.0,10.0,0.0,0.0,0.0,10.0,0.0,0.0,0.0,10.0,0.30479878676,0.0451405804768,-0.0880174740271,1.0,0.0,0.0,0.0,1.0,0.0,0.0,0.0,1.0,0.123343505859,10.7524401855,-2.79259277344,0.1,0.0,0.0,0.0,0.1,0.0,0.0,0.0,0.1
1446040563712402942,1414,1446040563709309101,robocape,67.684754748,7.56872243162,-35.2136194628,0.0,10.0,0.0,0.0,0.0,10.0,0.0,0.0,0.0,10.0,0.110254869129,0.0655137628159,-0.00932106381528,1.0,0.0,0.0,0.0,1.0,0.0,0.0,0.0,1.0,0.0730480957031,10.8614135742,-2.93389892578,0.1,0.0,0.0,0.0,0.1,0.0,0.0,0.0,0.1
1446040563750745942,1415,1446040563747231960,robocape,67.2118452715,7.27334580346,-34.8648848966,0.0,10.0,0.0,0.0,0.0,10.0,0.0,0.0,0.0,10.0,-0.0448742643678,0.0601874406358,0.0942759025888,1.0,0.0,0.0,0.0,1.0,0.0,0.0,0.0,1.0,0.129331054688,10.8590185547,-2.95186157227,0.1,0.0,0.0,0.0,0.1,0.0,0.0,0.0,0.1
1446040563781167233,1416,1446040563777923107,robocape,66.4942962906,6.99403147319,-34.6472026017,0.0,10.0,0.0,0.0,0.0,10.0,0.0,0.0,0.0,10.0,-0.213319203315,0.00892158965177,0.0869522095911,1.0,0.0,0.0,0.0,1.0,0.0,0.0,0.0,1.0,0.217946777344,10.6781945801,-2.63571899414,0.1,0.0,0.0,0.0,0.1,0.0,0.0,0.0,0.1
1446040563812281233,1417,1446040563809185028,robocape,65.71871794,6.71657557132,-34.4606580513,0.0,10.0,0.0,0.0,0.0,10.0,0.0,0.0,0.0,10.0,-0.258459783792,-0.00426105774413,0.0888164223541,1.0,0.0,0.0,0.0,1.0,0.0,0.0,0.0,1.0,0.367635498047,10.4183349609,-2.27167602539,0.1,0.0,0.0,0.0,0.1,0.0,0.0,0.0,0.1
1446040563845911150,1418,1446040563842739105,robocape,65.0547648554,6.43271913977,-34.2023049859,0.0,10.0,0.0,0.0,0.0,10.0,0.0,0.0,0.0,10.0,-0.193878127358,0.0241016078652,0.102398543914,1.0,0.0,0.0,0.0,1.0,0.0,0.0,0.0,1.0,0.433498535156,10.4267175293,-2.13036987305,0.1,0.0,0.0,0.0,0.1,0.0,0.0,0.0,0.1
1446040563879061442,1419,1446040563876002073,robocape,64.4769565929,6.25698517063,-34.01479657,0.0,10.0,0.0,0.0,0.0,10.0,0.0,0.0,0.0,10.0,-0.113051188274,0.00612527050718,0.0195742340121,1.0,0.0,0.0,0.0,1.0,0.0,0.0,0.0,1.0,0.407153320313,10.4614453125,-2.07408691406,0.1,0.0,0.0,0.0,0.1,0.0,0.0,0.0,0.1
1446040563912528275,1420,1446040563909436941,robocape,64.1302874137,6.12226489867,-33.7836322101,0.0,10.0,0.0,0.0,0.0,10.0,0.0,0.0,0.0,10.0,0.0500674284935,0.0258326625738,-0.0127831732324,1.0,0.0,0.0,0.0,1.0,0.0,0.0,0.0,1.0,0.391585693359,10.3524719238,-2.00942138672,0.1,0.0,0.0,0.0,0.1,0.0,0.0,0.0,0.1
1446040563945813400,1421,1446040563942612886,robocape,63.8935745426,6.02911736987,-33.5430768865,0.0,10.0,0.0,0.0,0.0,10.0,0.0,0.0,0.0,10.0,0.129429628978,0.03488741028,-0.0410126807872,1.0,0.0,0.0,0.0,1.0,0.0,0.0,0.0,1.0,0.358055419922,10.5488635254,-2.24413330078,0.1,0.0,0.0,0.0,0.1,0.0,0.0,0.0,0.1
1446040563979540483,1422,1446040563976492881,robocape,63.6545639996,5.96306781519,-33.3341447894,0.0,10.0,0.0,0.0,0.0,10.0,0.0,0.0,0.0,10.0,0.13156015785,0.0259658206283,-0.0609863889628,1.0,0.0,0.0,0.0,1.0,0.0,0.0,0.0,1.0,0.256267089844,10.6087390137,-2.40699462891,0.1,0.0,0.0,0.0,0.1,0.0,0.0,0.0,0.1
1446040564012531025,1423,1446040564009345054,robocape,63.4028141365,5.8572998531,-33.0902045498,0.0,10.0,0.0,0.0,0.0,10.0,0.0,0.0,0.0,10.0,0.109455920802,0.0359526747161,-0.0262321367373,1.0,0.0,0.0,0.0,1.0,0.0,0.0,0.0,1.0,0.234711914063,10.6434667969,-2.51596801758,0.1,0.0,0.0,0.0,0.1,0.0,0.0,0.0,0.1
1446040564051835317,1424,1446040564047606945,robocape,63.0629759586,5.71380140324,-32.8639139653,0.0,10.0,0.0,0.0,0.0,10.0,0.0,0.0,0.0,10.0,0.0404800485692,0.0234358175927,0.00066579027252,1.0,0.0,0.0,0.0,1.0,0.0,0.0,0.0,1.0,0.237106933594,10.7153173828,-2.60338623047,0.1,0.0,0.0,0.0,0.1,0.0,0.0,0.0,0.1
1446040564087681650,1425,1446040564084495067,robocape,62.6307353076,5.54173786496,-32.6322616067,0.0,10.0,0.0,0.0,0.0,10.0,0.0,0.0,0.0,10.0,-0.03488741028,0.0239684498107,0.0299605622634,1.0,0.0,0.0,0.0,1.0,0.0,0.0,0.0,1.0,0.275427246094,10.6003564453,-2.44651245117,0.1,0.0,0.0,0.0,0.1,0.0,0.0,0.0,0.1
1446040564127399192,1426,1446040564123828887,robocape,62.164157618,5.36420687825,-32.4050479623,0.0,10.0,0.0,0.0,0.0,10.0,0.0,0.0,0.0,10.0,-0.0644484983799,0.0221042370477,0.0383495196971,1.0,0.0,0.0,0.0,1.0,0.0,0.0,0.0,1.0,0.28740234375,10.6087390137,-2.3794519043,0.1,0.0,0.0,0.0,0.1,0.0,0.0,0.0,0.1
1446040564165005108,1427,1446040564161899089,robocape,61.7209439266,5.2022307217,-32.1899546197,0.0,10.0,0.0,0.0,0.0,10.0,0.0,0.0,0.0,10.0,-0.0492684801665,0.0189084437396,0.0276968753368,1.0,0.0,0.0,0.0,1.0,0.0,0.0,0.0,1.0,0.305364990234,10.5021606445,-2.26808349609,0.1,0.0,0.0,0.0,0.1,0.0,0.0,0.0,0.1
1446040564202774984,1428,1446040564199430942,robocape,61.3466491818,5.06668255978,-31.966835002,0.0,10.0,0.0,0.0,0.0,10.0,0.0,0.0,0.0,10.0,-0.0033289513626,0.0263652947918,0.0129163312869,1.0,0.0,0.0,0.0,1.0,0.0,0.0,0.0,1.0,0.358055419922,10.499765625,-2.26808349609,0.1,0.0,0.0,0.0,0.1,0.0,0.0,0.0,0.1
1446040564239033317,1429,1446040564235949993,robocape,61.0078718276,4.95672913699,-31.7635819154,0.0,10.0,0.0,0.0,0.0,10.0,0.0,0.0,0.0,10.0,0.0227700273202,0.0218379209386,-0.00652474467069,1.0,0.0,0.0,0.0,1.0,0.0,0.0,0.0,1.0,0.340092773437,10.5285058594,-2.28724365234,0.1,0.0,0.0,0.0,0.1,0.0,0.0,0.0,0.1
1446040564277952525,1430,1446040564274044036,robocape,60.6846090964,4.84691623771,-31.5541300748,0.0,10.0,0.0,0.0,0.0,10.0,0.0,0.0,0.0,10.0,0.0291616139364,0.0246342400832,-0.00359526747161,1.0,0.0,0.0,0.0,1.0,0.0,0.0,0.0,1.0,0.293389892578,10.6027514648,-2.39501953125,0.1,0.0,0.0,0.0,0.1,0.0,0.0,0.0,0.1
1446040564321141234,1431,1446040564316546916,robocape,60.3296539469,4.72574337708,-31.3424121702,0.0,10.0,0.0,0.0,0.0,10.0,0.0,0.0,0.0,10.0,0.00173105470855,0.0245010820287,0.00838895743375,1.0,0.0,0.0,0.0,1.0,0.0,0.0,0.0,1.0,0.289797363281,10.591973877,-2.40459960937,0.1,0.0,0.0,0.0,0.1,0.0,0.0,0.0,0.1
1446040564356298234,1432,1446040564353019952,robocape,59.9625467706,4.59970372586,-31.1249064445,0.0,10.0,0.0,0.0,0.0,10.0,0.0,0.0,0.0,10.0,-0.0118510668509,0.0267647689553,0.016378440704,1.0,0.0,0.0,0.0,1.0,0.0,0.0,0.0,1.0,0.305364990234,10.5656286621,-2.34592163086,0.1,0.0,0.0,0.0,0.1,0.0,0.0,0.0,0.1
1446040564395831775,1433,1446040564392707109,robocape,59.6109091626,4.48613517513,-30.9186767827,0.0,10.0,0.0,0.0,0.0,10.0,0.0,0.0,0.0,10.0,-0.00239684498107,0.0242347659197,0.00798948327024,1.0,0.0,0.0,0.0,1.0,0.0,0.0,0.0,1.0,0.322130126953,10.5392834473,-2.29323120117,0.1,0.0,0.0,0.0,0.1,0.0,0.0,0.0,0.1
1446040564431488775,1434,1446040564427956104,robocape,59.2854378207,4.3837481744,-30.7170851032,0.0,10.0,0.0,0.0,0.0,10.0,0.0,0.0,0.0,10.0,0.0137152796139,0.0242347659197,0.00119842249054,1.0,0.0,0.0,0.0,1.0,0.0,0.0,0.0,1.0,0.318537597656,10.5776037598,-2.32915649414,0.1,0.0,0.0,0.0,0.1,0.0,0.0,0.0,0.1
1446040564469600525,1435,1446040564466345071,robocape,58.9623569214,4.28306436979,-30.5180500834,0.0,10.0,0.0,0.0,0.0,10.0,0.0,0.0,0.0,10.0,0.0123836990689,0.0237021337017,0.00173105470855,1.0,0.0,0.0,0.0,1.0,0.0,0.0,0.0,1.0,0.305364990234,10.617121582,-2.37825439453,0.1,0.0,0.0,0.0,0.1,0.0,0.0,0.0,0.1
1446040564505037942,1436,1446040564501935005,robocape,58.6269091907,4.17562928219,-30.3110918574,0.0,10.0,0.0,0.0,0.0,10.0,0.0,0.0,0.0,10.0,-0.00106526443603,0.0263652947918,0.0109189604693,1.0,0.0,0.0,0.0,1.0,0.0,0.0,0.0,1.0,0.298179931641,10.596763916,-2.36627929688,0.1,0.0,0.0,0.0,0.1,0.0,0.0,0.0,0.1
1446040564545608192,1437,1446040564541434049,robocape,58.2882657879,4.06869915682,-30.1083089139,0.0,10.0,0.0,0.0,0.0,10.0,0.0,0.0,0.0,10.0,-0.00612527050718,0.0249005561922,0.0119842249054,1.0,0.0,0.0,0.0,1.0,0.0,0.0,0.0,1.0,0.161663818359,10.5632336426,-2.34352661133,0.1,0.0,0.0,0.0,0.1,0.0,0.0,0.0,0.1
1446040564579536150,1438,1446040564576359033,robocape,57.9685927189,3.97124637909,-29.9109448066,0.0,10.0,0.0,0.0,0.0,10.0,0.0,0.0,0.0,10.0,0.00492684801665,0.0245010820287,0.00639158661619,1.0,0.0,0.0,0.0,1.0,0.0,0.0,0.0,1.0,0.318537597656,10.5620361328,-2.31478637695,0.1,0.0,0.0,0.0,0.1,0.0,0.0,0.0,0.1
1446040564620812317,1439,1446040564616411924,robocape,57.6623618583,3.88261148152,-29.7183165099,0.0,10.0,0.0,0.0,0.0,10.0,0.0,0.0,0.0,10.0,0.0121173829599,0.0245010820287,0.00173105470855,1.0,0.0,0.0,0.0,1.0,0.0,0.0,0.0,1.0,0.320932617188,10.5716162109,-2.34592163086,0.1,0.0,0.0,0.0,0.1,0.0,0.0,0.0,0.1
1446040564659066234,1440,1446040564653173923,robocape,57.3516147411,3.79106310576,-29.5240129133,0.0,10.0,0.0,0.0,0.0,10.0,0.0,0.0,0.0,10.0,0.00559263828917,0.0249005561922,0.00612527050718,1.0,0.0,0.0,0.0,1.0,0.0,0.0,0.0,1.0,0.288599853516,10.5955664063,-2.36627929688,0.1,0.0,0.0,0.0,0.1,0.0,0.0,0.0,0.1
1446040564698450609,1441,1446040564695251941,robocape,57.0347672238,3.69619109129,-29.3269184407,0.0,10.0,0.0,0.0,0.0,10.0,0.0,0.0,0.0,10.0,-0.00213052887206,0.0256995045193,0.0111852765783,1.0,0.0,0.0,0.0,1.0,0.0,0.0,0.0,1.0,0.314945068359,10.5835913086,-2.35190917969,0.1,0.0,0.0,0.0,0.1,0.0,0.0,0.0,0.1
1446040564740368775,1442,1446040564728924989,robocape,56.7235906193,3.60663113854,-29.1337026332,0.0,10.0,0.0,0.0,0.0,10.0,0.0,0.0,0.0,10.0,-0.000532632218016,0.0254331884103,0.00905474770627,1.0,0.0,0.0,0.0,1.0,0.0,0.0,0.0,1.0,0.318537597656,10.5656286621,-2.30760131836,0.1,0.0,0.0,0.0,0.1,0.0,0.0,0.0,0.1
1446040564782335359,1443,1446040564778707027,robocape,56.4314526313,3.5261397926,-28.9461508677,0.0,10.0,0.0,0.0,0.0,10.0,0.0,0.0,0.0,10.0,0.0106526443603,0.0250337142467,0.0034621094171,1.0,0.0,0.0,0.0,1.0,0.0,0.0,0.0,1.0,0.32572265625,10.5704187012,-2.32915649414,0.1,0.0,0.0,0.0,0.1,0.0,0.0,0.0,0.1
1446040564821908984,1444,1446040564817842960,robocape,56.1404062357,3.44604840468,-28.7587320019,0.0,10.0,0.0,0.0,0.0,10.0,0.0,0.0,0.0,10.0,0.00865527354276,0.0253000303558,0.00506000607115,1.0,0.0,0.0,0.0,1.0,0.0,0.0,0.0,1.0,0.310155029297,10.4303100586,-2.35071166992,0.1,0.0,0.0,0.0,0.1,0.0,0.0,0.0,0.1
1446040564859387109,1445,1446040564853933095,robocape,55.8422171161,3.3624093183,-28.5703466273,0.0,10.0,0.0,0.0,0.0,10.0,0.0,0.0,0.0,10.0,0.000798948327024,0.0251668723012,0.00945422186978,1.0,0.0,0.0,0.0,1.0,0.0,0.0,0.0,1.0,0.298179931641,10.596763916,-2.36029174805,0.1,0.0,0.0,0.0,0.1,0.0,0.0,0.0,0.1
1446040564896567984,1446,1446040564893248081,robocape,55.544068682,3.28213241518,-28.3845481719,0.0,10.0,0.0,0.0,0.0,10.0,0.0,0.0,0.0,10.0,-0.00146473859954,0.0251668723012,0.00892158965177,1.0,0.0,0.0,0.0,1.0,0.0,0.0,0.0,1.0,0.313747558594,10.5692211914,-2.32556396484,0.1,0.0,0.0,0.0,0.1,0.0,0.0,0.0,0.1
1446040564933245442,1447,1446040564929991960,robocape,55.2585403661,3.20674810062,-28.2030440067,0.0,10.0,0.0,0.0,0.0,10.0,0.0,0.0,0.0,10.0,0.00506000607115,0.0245010820287,0.00612527050718,1.0,0.0,0.0,0.0,1.0,0.0,0.0,0.0,1.0,0.317340087891,10.5728137207,-2.31837890625,0.1,0.0,0.0,0.0,0.1,0.0,0.0,0.0,0.1
1446040564971851734,1448,1446040564968424081,robocape,54.9813806831,3.13435089009,-28.0240356607,0.0,10.0,0.0,0.0,0.0,10.0,0.0,0.0,0.0,10.0,0.00852211548825,0.0242347659197,0.00506000607115,1.0,0.0,0.0,0.0,1.0,0.0,0.0,0.0,1.0,0.313747558594,10.5835913086,-2.3339465332,0.1,0.0,0.0,0.0,0.1,0.0,0.0,0.0,0.1
1446040565006361901,1449,1446040565003216028,robocape,54.7036552457,3.0621144326,-27.8456391502,0.0,10.0,0.0,0.0,0.0,10.0,0.0,0.0,0.0,10.0,0.00572579634367,0.0242347659197,0.00652474467069,1.0,0.0,0.0,0.0,1.0,0.0,0.0,0.0,1.0,0.313747558594,10.5716162109,-2.3339465332,0.1,0.0,0.0,0.0,0.1,0.0,0.0,0.0,0.1
1446040565046191984,1450,1446040565042186975,robocape,54.4228310729,2.99041892476,-27.6670321999,0.0,10.0,0.0,0.0,0.0,10.0,0.0,0.0,0.0,10.0,0.00119842249054,0.0247673981377,0.00825579937925,1.0,0.0,0.0,0.0,1.0,0.0,0.0,0.0,1.0,0.312550048828,10.5740112305,-2.31119384766,0.1,0.0,0.0,0.0,0.1,0.0,0.0,0.0,0.1
1446040565085721942,1451,1446040565082372903,robocape,54.1466358534,2.92219888749,-27.4897105582,0.0,10.0,0.0,0.0,0.0,10.0,0.0,0.0,0.0,10.0,0.00213052887206,0.0253000303558,0.00759000910673,1.0,0.0,0.0,0.0,1.0,0.0,0.0,0.0,1.0,0.312550048828,10.5776037598,-2.34592163086,0.1,0.0,0.0,0.0,0.1,0.0,0.0,0.0,0.1
1446040565130311317,1452,1446040565122553110,robocape,53.8749556165,2.85591468115,-27.3159981513,0.0,10.0,0.0,0.0,0.0,10.0,0.0,0.0,0.0,10.0,0.0031957933081,0.0243679239742,0.0067910607797,1.0,0.0,0.0,0.0,1.0,0.0,0.0,0.0,1.0,0.302969970703,10.5823937988,-2.32556396484,0.1,0.0,0.0,0.0,0.1,0.0,0.0,0.0,0.1
1446040565173691484,1453,1446040565170597076,robocape,53.6070173239,2.79097097655,-27.1412810464,0.0,10.0,0.0,0.0,0.0,10.0,0.0,0.0,0.0,10.0,0.0033289513626,0.0253000303558,0.00785632521573,1.0,0.0,0.0,0.0,1.0,0.0,0.0,0.0,1.0,0.154478759766,10.5728137207,-2.35669921875,0.1,0.0,0.0,0.0,0.1,0.0,0.0,0.0,0.1
1446040565198420817,1454,1446040565195008993,robocape,53.3428715717,2.72925427932,-26.9696283003,0.0,10.0,0.0,0.0,0.0,10.0,0.0,0.0,0.0,10.0,0.00399474163512,0.0250337142467,0.0066579027252,1.0,0.0,0.0,0.0,1.0,0.0,0.0,0.0,1.0,0.320932617188,10.5823937988,-2.30879882813,0.1,0.0,0.0,0.0,0.1,0.0,0.0,0.0,0.1
1446040565222396651,1455,1446040565219358921,robocape,53.0812714186,2.67008093604,-26.7997429651,0.0,10.0,0.0,0.0,0.0,10.0,0.0,0.0,0.0,10.0,0.00372842552611,0.0251668723012,0.00625842856169,1.0,0.0,0.0,0.0,1.0,0.0,0.0,0.0,1.0,0.313747558594,10.591973877,-2.31957641602,0.1,0.0,0.0,0.0,0.1,0.0,0.0,0.0,0.1
1446040565249095401,1456,1446040565245937108,robocape,52.8230672347,2.61174950998,-26.6316101344,0.0,10.0,0.0,0.0,0.0,10.0,0.0,0.0,0.0,10.0,0.00399474163512,0.0247673981377,0.00652474467069,1.0,0.0,0.0,0.0,1.0,0.0,0.0,0.0,1.0,0.308957519531,10.5859863281,-2.32915649414,0.1,0.0,0.0,0.0,0.1,0.0,0.0,0.0,0.1
1446040565282368651,1457,1446040565279417037,robocape,52.568168284,2.5539067395,-26.4655953679,0.0,10.0,0.0,0.0,0.0,10.0,0.0,0.0,0.0,10.0,0.00426105774413,0.0241016078652,0.0067910607797,1.0,0.0,0.0,0.0,1.0,0.0,0.0,0.0,1.0,0.323327636719,10.5799987793,-2.31478637695,0.1,0.0,0.0,0.0,0.1,0.0,0.0,0.0,0.1
1446040565315725651,1458,1446040565312707901,robocape,52.3142497385,2.49753757932,-26.3000587548,0.0,10.0,0.0,0.0,0.0,10.0,0.0,0.0,0.0,10.0,0.00292947719909,0.0245010820287,0.00732369299772,1.0,0.0,0.0,0.0,1.0,0.0,0.0,0.0,1.0,0.316142578125,10.5895788574,-2.31598388672,0.1,0.0,0.0,0.0,0.1,0.0,0.0,0.0,0.1
1446040565349315401,1459,1446040565346100091,robocape,52.0628999239,2.44321376457,-26.1347119143,0.0,10.0,0.0,0.0,0.0,10.0,0.0,0.0,0.0,10.0,0.00266316109008,0.0251668723012,0.00759000910673,1.0,0.0,0.0,0.0,1.0,0.0,0.0,0.0,1.0,0.319735107422,10.5907763672,-2.31957641602,0.1,0.0,0.0,0.0,0.1,0.0,0.0,0.0,0.1
1446040565382535442,1460,1446040565379451990,robocape,51.8140791385,2.39084278868,-25.9726270878,0.0,10.0,0.0,0.0,0.0,10.0,0.0,0.0,0.0,10.0,0.00266316109008,0.0245010820287,0.0067910607797,1.0,0.0,0.0,0.0,1.0,0.0,0.0,0.0,1.0,0.311352539063,10.5895788574,-2.30999633789,0.1,0.0,0.0,0.0,0.1,0.0,0.0,0.0,0.1
1446040565415811067,1461,1446040565412705898,robocape,51.5680259433,2.33930354051,-25.8120235743,0.0,10.0,0.0,0.0,0.0,10.0,0.0,0.0,0.0,10.0,0.00266316109008,0.0242347659197,0.00705737688871,1.0,0.0,0.0,0.0,1.0,0.0,0.0,0.0,1.0,0.322130126953,10.5835913086,-2.32676147461,0.1,0.0,0.0,0.0,0.1,0.0,0.0,0.0,0.1
1446040565450181901,1462,1446040565446717023,robocape,51.3237723799,2.288369509,-25.6521478253,0.0,10.0,0.0,0.0,0.0,10.0,0.0,0.0,0.0,10.0,0.00199737081756,0.0242347659197,0.00772316716123,1.0,0.0,0.0,0.0,1.0,0.0,0.0,0.0,1.0,0.318537597656,10.5799987793,-2.33035400391,0.1,0.0,0.0,0.0,0.1,0.0,0.0,0.0,0.1
1446040565482726692,1463,1446040565479353904,robocape,51.0813414145,2.2403408976,-25.4931763459,0.0,10.0,0.0,0.0,0.0,10.0,0.0,0.0,0.0,10.0,0.00146473859954,0.0249005561922,0.00732369299772,1.0,0.0,0.0,0.0,1.0,0.0,0.0,0.0,1.0,0.311352539063,10.5859863281,-2.31119384766,0.1,0.0,0.0,0.0,0.1,0.0,0.0,0.0,0.1
1446040565516511651,1464,1446040565512868881,robocape,50.8418646815,2.19430118919,-25.3359522911,0.0,10.0,0.0,0.0,0.0,10.0,0.0,0.0,0.0,10.0,0.00173105470855,0.0249005561922,0.00692421883421,1.0,0.0,0.0,0.0,1.0,0.0,0.0,0.0,1.0,0.316142578125,10.5752087402,-2.30041625977,0.1,0.0,0.0,0.0,0.1,0.0,0.0,0.0,0.1
1446040565550311026,1465,1446040565546392917,robocape,50.605282089,2.15004698654,-25.1806552878,0.0,10.0,0.0,0.0,0.0,10.0,0.0,0.0,0.0,10.0,0.00199737081756,0.0247673981377,0.00652474467069,1.0,0.0,0.0,0.0,1.0,0.0,0.0,0.0,1.0,0.324525146484,10.57640625,-2.29442871094,0.1,0.0,0.0,0.0,0.1,0.0,0.0,0.0,0.1
1446040565583796151,1466,1446040565580493927,robocape,50.3724651336,2.10640441007,-25.0269681818,0.0,10.0,0.0,0.0,0.0,10.0,0.0,0.0,0.0,10.0,0.00279631914458,0.0243679239742,0.0066579027252,1.0,0.0,0.0,0.0,1.0,0.0,0.0,0.0,1.0,0.328117675781,10.5811962891,-2.31478637695,0.1,0.0,0.0,0.0,0.1,0.0,0.0,0.0,0.1
1446040565616808068,1467,1446040565613641023,robocape,50.1416877979,2.06343347021,-24.8750244565,0.0,10.0,0.0,0.0,0.0,10.0,0.0,0.0,0.0,10.0,0.00253000303558,0.0239684498107,0.0067910607797,1.0,0.0,0.0,0.0,1.0,0.0,0.0,0.0,1.0,0.329315185547,10.5871838379,-2.32077392578,0.1,0.0,0.0,0.0,0.1,0.0,0.0,0.0,0.1
1446040565649252401,1468,1446040565645963907,robocape,49.9142207981,2.02245532887,-24.7219545755,0.0,10.0,0.0,0.0,0.0,10.0,0.0,0.0,0.0,10.0,0.00292947719909,0.0251668723012,0.00732369299772,1.0,0.0,0.0,0.0,1.0,0.0,0.0,0.0,1.0,0.305364990234,10.5799987793,-2.32556396484,0.1,0.0,0.0,0.0,0.1,0.0,0.0,0.0,0.1
1446040565682420151,1469,1446040565679395914,robocape,49.6865213668,1.98322856865,-24.5729209834,0.0,10.0,0.0,0.0,0.0,10.0,0.0,0.0,0.0,10.0,0.00146473859954,0.0242347659197,0.00625842856169,1.0,0.0,0.0,0.0,1.0,0.0,0.0,0.0,1.0,0.318537597656,10.591973877,-2.28484863281,0.1,0.0,0.0,0.0,0.1,0.0,0.0,0.0,0.1
1446040565715452359,1470,1446040565712459087,robocape,49.4609455741,1.94527203599,-24.425486838,0.0,10.0,0.0,0.0,0.0,10.0,0.0,0.0,0.0,10.0,0.00133158054504,0.0241016078652,0.00612527050718,1.0,0.0,0.0,0.0,1.0,0.0,0.0,0.0,1.0,0.324525146484,10.5871838379,-2.30879882813,0.1,0.0,0.0,0.0,0.1,0.0,0.0,0.0,0.1
1446040565756416818,1471,1446040565752850055,robocape,49.2381384603,1.90718344327,-24.2778178816,0.0,10.0,0.0,0.0,0.0,10.0,0.0,0.0,0.0,10.0,0.00146473859954,0.0242347659197,0.00719053494321,1.0,0.0,0.0,0.0,1.0,0.0,0.0,0.0,1.0,0.323327636719,10.5847888184,-2.3028112793,0.1,0.0,0.0,0.0,0.1,0.0,0.0,0.0,0.1
1446040565791137193,1472,1446040565787657976,robocape,49.0169061142,1.87123493506,-24.1318470708,0.0,10.0,0.0,0.0,0.0,10.0,0.0,0.0,0.0,10.0,0.00106526443603,0.0243679239742,0.0066579027252,1.0,0.0,0.0,0.0,1.0,0.0,0.0,0.0,1.0,0.314945068359,10.5799987793,-2.31239135742,0.1,0.0,0.0,0.0,0.1,0.0,0.0,0.0,0.1
1446040565826375901,1473,1446040565822875022,robocape,48.795072821,1.83716246945,-23.9881300363,0.0,10.0,0.0,0.0,0.0,10.0,0.0,0.0,0.0,10.0,-0.00066579027252,0.0242347659197,0.00612527050718,1.0,0.0,0.0,0.0,1.0,0.0,0.0,0.0,1.0,0.331710205078,10.6075415039,-2.43573486328,0.1,0.0,0.0,0.0,0.1,0.0,0.0,0.0,0.1
1446040565869973943,1474,1446040565862258911,robocape,48.5712972745,1.80223683153,-23.8444303494,0.0,10.0,0.0,0.0,0.0,10.0,0.0,0.0,0.0,10.0,-0.0034621094171,0.0241016078652,0.00759000910673,1.0,0.0,0.0,0.0,1.0,0.0,0.0,0.0,1.0,0.3065625,10.4267175293,-2.28963867188,0.1,0.0,0.0,0.0,0.1,0.0,0.0,0.0,0.1
1446040565904216734,1475,1446040565900671005,robocape,48.349439358,1.76772639623,-23.7012944454,0.0,10.0,0.0,0.0,0.0,10.0,0.0,0.0,0.0,10.0,-0.00372842552611,0.0241016078652,0.00812264132474,1.0,0.0,0.0,0.0,1.0,0.0,0.0,0.0,1.0,0.312550048828,10.5752087402,-2.28724365234,0.1,0.0,0.0,0.0,0.1,0.0,0.0,0.0,0.1
1446040565937692901,1476,1446040565934417963,robocape,48.1298952327,1.73513065931,-23.5619833106,0.0,10.0,0.0,0.0,0.0,10.0,0.0,0.0,0.0,10.0,-0.0034621094171,0.0233026595382,0.0067910607797,1.0,0.0,0.0,0.0,1.0,0.0,0.0,0.0,1.0,0.317340087891,10.5740112305,-2.31239135742,0.1,0.0,0.0,0.0,0.1,0.0,0.0,0.0,0.1
1446040565974176068,1477,1446040565970910072,robocape,47.9161502874,1.70448694874,-23.423068428,0.0,10.0,0.0,0.0,0.0,10.0,0.0,0.0,0.0,10.0,-0.00119842249054,0.0238352917562,0.00652474467069,1.0,0.0,0.0,0.0,1.0,0.0,0.0,0.0,1.0,0.314945068359,10.5692211914,-2.30879882813,0.1,0.0,0.0,0.0,0.1,0.0,0.0,0.0,0.1
1446040565997080859,1478,1446040565993993043,robocape,47.7069835774,1.67497003217,-23.285905749,0.0,10.0,0.0,0.0,0.0,10.0,0.0,0.0,0.0,10.0,0.000399474163512,0.0235689756472,0.00612527050718,1.0,0.0,0.0,0.0,1.0,0.0,0.0,0.0,1.0,0.324525146484,10.596763916,-2.27886108398,0.1,0.0,0.0,0.0,0.1,0.0,0.0,0.0,0.1
1446040566021288151,1479,1446040566017741918,robocape,47.502576405,1.64723615799,-23.1500713973,0.0,10.0,0.0,0.0,0.0,10.0,0.0,0.0,0.0,10.0,0.00213052887206,0.0237021337017,0.00559263828917,1.0,0.0,0.0,0.0,1.0,0.0,0.0,0.0,1.0,0.320932617188,10.5859863281,-2.28963867188,0.1,0.0,0.0,0.0,0.1,0.0,0.0,0.0,0.1
1446040566049229234,1480,1446040566045981884,robocape,47.3020487012,1.62053715393,-23.0136081542,0.0,10.0,0.0,0.0,0.0,10.0,0.0,0.0,0.0,10.0,0.0031957933081,0.0243679239742,0.00612527050718,1.0,0.0,0.0,0.0,1.0,0.0,0.0,0.0,1.0,0.324525146484,10.5883813477,-2.27766357422,0.1,0.0,0.0,0.0,0.1,0.0,0.0,0.0,0.1
1446040566083093568,1481,1446040566079869985,robocape,47.1019903252,1.59486331812,-22.8783433306,0.0,10.0,0.0,0.0,0.0,10.0,0.0,0.0,0.0,10.0,0.00226368692657,0.0243679239742,0.00612527050718,1.0,0.0,0.0,0.0,1.0,0.0,0.0,0.0,1.0,0.32572265625,10.5895788574,-2.28963867188,0.1,0.0,0.0,0.0,0.1,0.0,0.0,0.0,0.1
1446040566115757776,1482,1446040566112746953,robocape,46.9025056061,1.5689355606,-22.7434597374,0.0,10.0,0.0,0.0,0.0,10.0,0.0,0.0,0.0,10.0,0.00133158054504,0.0242347659197,0.00692421883421,1.0,0.0,0.0,0.0,1.0,0.0,0.0,0.0,1.0,0.317340087891,10.5883813477,-2.29203369141,0.1,0.0,0.0,0.0,0.1,0.0,0.0,0.0,0.1
1446040566149417151,1483,1446040566146183013,robocape,46.7030075432,1.54346881066,-22.6079150058,0.0,10.0,0.0,0.0,0.0,10.0,0.0,0.0,0.0,10.0,0.0,0.0247673981377,0.00785632521573,1.0,0.0,0.0,0.0,1.0,0.0,0.0,0.0,1.0,0.319735107422,10.5991589355,-2.28844116211,0.1,0.0,0.0,0.0,0.1,0.0,0.0,0.0,0.1
1446040566183259651,1484,1446040566180002927,robocape,46.5062057891,1.51978851106,-22.4738277306,0.0,10.0,0.0,0.0,0.0,10.0,0.0,0.0,0.0,10.0,0.000532632218016,0.0249005561922,0.00732369299772,1.0,0.0,0.0,0.0,1.0,0.0,0.0,0.0,1.0,0.334105224609,10.5883813477,-2.27526855469,0.1,0.0,0.0,0.0,0.1,0.0,0.0,0.0,0.1
1446040566215893693,1485,1446040566212809085,robocape,46.3124907704,1.49856993329,-22.3431950078,0.0,10.0,0.0,0.0,0.0,10.0,0.0,0.0,0.0,10.0,0.00146473859954,0.0245010820287,0.00572579634367,1.0,0.0,0.0,0.0,1.0,0.0,0.0,0.0,1.0,0.319735107422,10.5799987793,-2.27886108398,0.1,0.0,0.0,0.0,0.1,0.0,0.0,0.0,0.1
1446040566249693193,1486,1446040566246211051,robocape,46.1243079928,1.47734924372,-22.2133155871,0.0,10.0,0.0,0.0,0.0,10.0,0.0,0.0,0.0,10.0,0.00372842552611,0.0242347659197,0.00599211245268,1.0,0.0,0.0,0.0,1.0,0.0,0.0,0.0,1.0,0.320932617188,10.591973877,-2.28724365234,0.1,0.0,0.0,0.0,0.1,0.0,0.0,0.0,0.1
1446040566282994818,1487,1446040566279095888,robocape,45.9399137027,1.45777427667,-22.0833826554,0.0,10.0,0.0,0.0,0.0,10.0,0.0,0.0,0.0,10.0,0.00492684801665,0.0249005561922,0.00599211245268,1.0,0.0,0.0,0.0,1.0,0.0,0.0,0.0,1.0,0.317340087891,10.5907763672,-2.28844116211,0.1,0.0,0.0,0.0,0.1,0.0,0.0,0.0,0.1
1446040566316443151,1488,1446040566313004016,robocape,45.7553443887,1.43785041724,-21.9547985664,0.0,10.0,0.0,0.0,0.0,10.0,0.0,0.0,0.0,10.0,0.00372842552611,0.0243679239742,0.00639158661619,1.0,0.0,0.0,0.0,1.0,0.0,0.0,0.0,1.0,0.312550048828,10.591973877,-2.2644909668,0.1,0.0,0.0,0.0,0.1,0.0,0.0,0.0,0.1
1446040566350038360,1489,1446040566346296072,robocape,45.5718174484,1.4178843235,-21.8257105138,0.0,10.0,0.0,0.0,0.0,10.0,0.0,0.0,0.0,10.0,0.0031957933081,0.0246342400832,0.00732369299772,1.0,0.0,0.0,0.0,1.0,0.0,0.0,0.0,1.0,0.311352539063,10.5871838379,-2.28245361328,0.1,0.0,0.0,0.0,0.1,0.0,0.0,0.0,0.1
1446040566383025860,1490,1446040566379369974,robocape,45.3879917427,1.39932816831,-21.6982435598,0.0,10.0,0.0,0.0,0.0,10.0,0.0,0.0,0.0,10.0,0.00199737081756,0.0246342400832,0.00692421883421,1.0,0.0,0.0,0.0,1.0,0.0,0.0,0.0,1.0,0.314945068359,10.5847888184,-2.27766357422,0.1,0.0,0.0,0.0,0.1,0.0,0.0,0.0,0.1
1446040566416423735,1491,1446040566413017988,robocape,45.2057347231,1.38136576166,-21.5733012865,0.0,10.0,0.0,0.0,0.0,10.0,0.0,0.0,0.0,10.0,0.00199737081756,0.0239684498107,0.00639158661619,1.0,0.0,0.0,0.0,1.0,0.0,0.0,0.0,1.0,0.323327636719,10.5895788574,-2.28125610352,0.1,0.0,0.0,0.0,0.1,0.0,0.0,0.0,0.1
1446040566449689985,1492,1446040566446058988,robocape,45.0251772572,1.36666968852,-21.4482103545,0.0,10.0,0.0,0.0,0.0,10.0,0.0,0.0,0.0,10.0,0.00199737081756,0.0253000303558,0.00585895439817,1.0,0.0,0.0,0.0,1.0,0.0,0.0,0.0,1.0,0.324525146484,10.596763916,-2.27886108398,0.1,0.0,0.0,0.0,0.1,0.0,0.0,0.0,0.1
1446040566482645443,1493,1446040566479187965,robocape,44.8478218088,1.35194784621,-21.3239569886,0.0,10.0,0.0,0.0,0.0,10.0,0.0,0.0,0.0,10.0,0.00292947719909,0.0250337142467,0.00612527050718,1.0,0.0,0.0,0.0,1.0,0.0,0.0,0.0,1.0,0.314945068359,10.5907763672,-2.24054077148,0.1,0.0,0.0,0.0,0.1,0.0,0.0,0.0,0.1
1446040566515598485,1494,1446040566512537002,robocape,44.6713540371,1.33813958724,-21.2015444967,0.0,10.0,0.0,0.0,0.0,10.0,0.0,0.0,0.0,10.0,0.00253000303558,0.0247673981377,0.00572579634367,1.0,0.0,0.0,0.0,1.0,0.0,0.0,0.0,1.0,0.317340087891,10.5835913086,-2.25251586914,0.1,0.0,0.0,0.0,0.1,0.0,0.0,0.0,0.1
1446040566549733776,1495,1446040566545787096,robocape,44.4972466658,1.32414514071,-21.0791297962,0.0,10.0,0.0,0.0,0.0,10.0,0.0,0.0,0.0,10.0,0.00292947719909,0.0247673981377,0.00639158661619,1.0,0.0,0.0,0.0,1.0,0.0,0.0,0.0,1.0,0.310155029297,10.6051464844,-2.26329345703,0.1,0.0,0.0,0.0,0.1,0.0,0.0,0.0,0.1
1446040566582962068,1496,1446040566579633951,robocape,44.324010958,1.31050225755,-20.9583590863,0.0,10.0,0.0,0.0,0.0,10.0,0.0,0.0,0.0,10.0,0.00253000303558,0.0243679239742,0.00625842856169,1.0,0.0,0.0,0.0,1.0,0.0,0.0,0.0,1.0,0.311352539063,10.6003564453,-2.27646606445,0.1,0.0,0.0,0.0,0.1,0.0,0.0,0.0,0.1
1446040566616277110,1497,1446040566613079071,robocape,44.1504956541,1.29675701968,-20.8373906976,0.0,10.0,0.0,0.0,0.0,10.0,0.0,0.0,0.0,10.0,0.00133158054504,0.0245010820287,0.00705737688871,1.0,0.0,0.0,0.0,1.0,0.0,0.0,0.0,1.0,0.317340087891,10.5979614258,-2.26688598633,0.1,0.0,0.0,0.0,0.1,0.0,0.0,0.0,0.1
1446040566652901151,1498,1446040566649585008,robocape,43.978707867,1.28403401743,-20.7176344025,0.0,10.0,0.0,0.0,0.0,10.0,0.0,0.0,0.0,10.0,0.00146473859954,0.0245010820287,0.0067910607797,1.0,0.0,0.0,0.0,1.0,0.0,0.0,0.0,1.0,0.318537597656,10.5979614258,-2.25850341797,0.1,0.0,0.0,0.0,0.1,0.0,0.0,0.0,0.1
1446040566684218318,1499,1446040566679210901,robocape,43.8096717717,1.2724390256,-20.5995297386,0.0,10.0,0.0,0.0,0.0,10.0,0.0,0.0,0.0,10.0,0.00226368692657,0.0243679239742,0.00625842856169,1.0,0.0,0.0,0.0,1.0,0.0,0.0,0.0,1.0,0.316142578125,10.6051464844,-2.27886108398,0.1,0.0,0.0,0.0,0.1,0.0,0.0,0.0,0.1
1446040566715920901,1500,1446040566712651968,robocape,43.6427613794,1.26091528429,-20.4827522424,0.0,10.0,0.0,0.0,0.0,10.0,0.0,0.0,0.0,10.0,0.00266316109008,0.0239684498107,0.00625842856169,1.0,0.0,0.0,0.0,1.0,0.0,0.0,0.0,1.0,0.330512695313,10.5955664063,-2.28724365234,0.1,0.0,0.0,0.0,0.1,0.0,0.0,0.0,0.1
1446040566751245151,1501,1446040566747596979,robocape,43.4780814619,1.25149213262,-20.3650405199,0.0,10.0,0.0,0.0,0.0,10.0,0.0,0.0,0.0,10.0,0.00306263525359,0.0251668723012,0.00639158661619,1.0,0.0,0.0,0.0,1.0,0.0,0.0,0.0,1.0,0.318537597656,10.6039489746,-2.2608984375,0.1,0.0,0.0,0.0,0.1,0.0,0.0,0.0,0.1
1446040566782943818,1502,1446040566779340028,robocape,43.3147538813,1.24246130656,-20.2493893115,0.0,10.0,0.0,0.0,0.0,10.0,0.0,0.0,0.0,10.0,0.00306263525359,0.0246342400832,0.00599211245268,1.0,0.0,0.0,0.0,1.0,0.0,0.0,0.0,1.0,0.32572265625,10.6015539551,-2.26568847656,0.1,0.0,0.0,0.0,0.1,0.0,0.0,0.0,0.1
1446040566816388151,1503,1446040566812974929,robocape,43.1532554228,1.23381894499,-20.1350548002,0.0,10.0,0.0,0.0,0.0,10.0,0.0,0.0,0.0,10.0,0.0033289513626,0.0243679239742,0.00585895439817,1.0,0.0,0.0,0.0,1.0,0.0,0.0,0.0,1.0,0.328117675781,10.6051464844,-2.22138061523,0.1,0.0,0.0,0.0,0.1,0.0,0.0,0.0,0.1
1446040566849828360,1504,1446040566845860004,robocape,42.9941083294,1.22487209575,-20.0209315389,0.0,10.0,0.0,0.0,0.0,10.0,0.0,0.0,0.0,10.0,0.00386158358061,0.0242347659197,0.00639158661619,1.0,0.0,0.0,0.0,1.0,0.0,0.0,0.0,1.0,0.329315185547,10.5979614258,-2.26688598633,0.1,0.0,0.0,0.0,0.1,0.0,0.0,0.0,0.1
1446040566882865318,1505,1446040566879230022,robocape,42.8349786355,1.21688802914,-19.9080534707,0.0,10.0,0.0,0.0,0.0,10.0,0.0,0.0,0.0,10.0,0.00306263525359,0.0242347659197,0.00612527050718,1.0,0.0,0.0,0.0,1.0,0.0,0.0,0.0,1.0,0.317340087891,10.5907763672,-2.27646606445,0.1,0.0,0.0,0.0,0.1,0.0,0.0,0.0,0.1
1446040566916084901,1506,1446040566912780046,robocape,42.6770708652,1.20880487675,-19.7952642283,0.0,10.0,0.0,0.0,0.0,10.0,0.0,0.0,0.0,10.0,0.00292947719909,0.0242347659197,0.0066579027252,1.0,0.0,0.0,0.0,1.0,0.0,0.0,0.0,1.0,0.301772460938,10.5895788574,-2.28604614258,0.1,0.0,0.0,0.0,0.1,0.0,0.0,0.0,0.1
1446040566949728860,1507,1446040566945810079,robocape,42.5185252084,1.20134764736,-19.6833866226,0.0,10.0,0.0,0.0,0.0,10.0,0.0,0.0,0.0,10.0,0.00173105470855,0.0242347659197,0.0066579027252,1.0,0.0,0.0,0.0,1.0,0.0,0.0,0.0,1.0,0.308957519531,10.6039489746,-2.25850341797,0.1,0.0,0.0,0.0,0.1,0.0,0.0,0.0,0.1
1446040566982465651,1508,1446040566979151010,robocape,42.362170954,1.19530065573,-19.572433839,0.0,10.0,0.0,0.0,0.0,10.0,0.0,0.0,0.0,10.0,0.00226368692657,0.0245010820287,0.00625842856169,1.0,0.0,0.0,0.0,1.0,0.0,0.0,0.0,1.0,0.317340087891,10.6063439941,-2.24413330078,0.1,0.0,0.0,0.0,0.1,0.0,0.0,0.0,0.1
1446040567015700277,1509,1446040567012644052,robocape,42.2062614037,1.19000935608,-19.4621381702,0.0,10.0,0.0,0.0,0.0,10.0,0.0,0.0,0.0,10.0,0.00173105470855,0.0246342400832,0.00625842856169,1.0,0.0,0.0,0.0,1.0,0.0,0.0,0.0,1.0,0.311352539063,10.6063439941,-2.25012084961,0.1,0.0,0.0,0.0,0.1,0.0,0.0,0.0,0.1
1446040567049838027,1510,1446040567045979976,robocape,42.0532309996,1.18503681419,-19.3523272965,0.0,10.0,0.0,0.0,0.0,10.0,0.0,0.0,0.0,10.0,0.00266316109008,0.0246342400832,0.00639158661619,1.0,0.0,0.0,0.0,1.0,0.0,0.0,0.0,1.0,0.32572265625,10.6063439941,-2.25251586914,0.1,0.0,0.0,0.0,0.1,0.0,0.0,0.0,0.1
1446040567082536443,1511,1446040567079188108,robocape,41.9000008842,1.18050869952,-19.2424836496,0.0,10.0,0.0,0.0,0.0,10.0,0.0,0.0,0.0,10.0,0.00173105470855,0.0249005561922,0.0067910607797,1.0,0.0,0.0,0.0,1.0,0.0,0.0,0.0,1.0,0.317340087891,10.596763916,-2.24173828125,0.1,0.0,0.0,0.0,0.1,0.0,0.0,0.0,0.1
1446040567115980443,1512,1446040567112782001,robocape,41.7471678605,1.176167285,-19.1334277699,0.0,10.0,0.0,0.0,0.0,10.0,0.0,0.0,0.0,10.0,0.00119842249054,0.0247673981377,0.00692421883421,1.0,0.0,0.0,0.0,1.0,0.0,0.0,0.0,1.0,0.328117675781,10.6075415039,-2.222578125,0.1,0.0,0.0,0.0,0.1,0.0,0.0,0.0,0.1
1446040567149748735,1513,1446040567146426916,robocape,41.5963552219,1.17328046033,-19.0265074345,0.0,10.0,0.0,0.0,0.0,10.0,0.0,0.0,0.0,10.0,0.00173105470855,0.0246342400832,0.00599211245268,1.0,0.0,0.0,0.0,1.0,0.0,0.0,0.0,1.0,0.331710205078,10.5991589355,-2.23335571289,0.1,0.0,0.0,0.0,0.1,0.0,0.0,0.0,0.1
1446040567182856402,1514,1446040567179548978,robocape,41.4481702853,1.17089616082,-18.9195358944,0.0,10.0,0.0,0.0,0.0,10.0,0.0,0.0,0.0,10.0,0.00253000303558,0.0249005561922,0.00625842856169,1.0,0.0,0.0,0.0,1.0,0.0,0.0,0.0,1.0,0.331710205078,10.5979614258,-2.23934326172,0.1,0.0,0.0,0.0,0.1,0.0,0.0,0.0,0.1
1446040567215842735,1515,1446040567212816953,robocape,41.3008531094,1.1683719424,-18.8122259852,0.0,10.0,0.0,0.0,0.0,10.0,0.0,0.0,0.0,10.0,0.00226368692657,0.0250337142467,0.00692421883421,1.0,0.0,0.0,0.0,1.0,0.0,0.0,0.0,1.0,0.323327636719,10.5907763672,-2.26688598633,0.1,0.0,0.0,0.0,0.1,0.0,0.0,0.0,0.1
1446040567250873860,1516,1446040567246593952,robocape,41.1552261792,1.16538064773,-18.7083535697,0.0,10.0,0.0,0.0,0.0,10.0,0.0,0.0,0.0,10.0,0.00266316109008,0.0237021337017,0.00612527050718,1.0,0.0,0.0,0.0,1.0,0.0,0.0,0.0,1.0,0.314945068359,10.6039489746,-2.2573059082,0.1,0.0,0.0,0.0,0.1,0.0,0.0,0.0,0.1
1446040567282405568,1517,1446040567279164075,robocape,41.0106480551,1.16387185525,-18.6036639814,0.0,10.0,0.0,0.0,0.0,10.0,0.0,0.0,0.0,10.0,0.00253000303558,0.0246342400832,0.00639158661619,1.0,0.0,0.0,0.0,1.0,0.0,0.0,0.0,1.0,0.332907714844,10.6075415039,-2.22497314453,0.1,0.0,0.0,0.0,0.1,0.0,0.0,0.0,0.1
1446040567316148568,1518,1446040567312485933,robocape,40.8672383462,1.16336663132,-18.4995269601,0.0,10.0,0.0,0.0,0.0,10.0,0.0,0.0,0.0,10.0,0.00253000303558,0.0249005561922,0.00625842856169,1.0,0.0,0.0,0.0,1.0,0.0,0.0,0.0,1.0,0.322130126953,10.6147265625,-2.22018310547,0.1,0.0,0.0,0.0,0.1,0.0,0.0,0.0,0.1
1446040567349783735,1519,1446040567346383094,robocape,40.723352025,1.16161505532,-18.3976450412,0.0,10.0,0.0,0.0,0.0,10.0,0.0,0.0,0.0,10.0,0.00159789665405,0.0237021337017,0.00625842856169,1.0,0.0,0.0,0.0,1.0,0.0,0.0,0.0,1.0,0.323327636719,10.6087390137,-2.23335571289,0.1,0.0,0.0,0.0,0.1,0.0,0.0,0.0,0.1
1446040567382454527,1520,1446040567379322052,robocape,40.5821109825,1.16064409735,-18.2940955241,0.0,10.0,0.0,0.0,0.0,10.0,0.0,0.0,0.0,10.0,0.00239684498107,0.0246342400832,0.00705737688871,1.0,0.0,0.0,0.0,1.0,0.0,0.0,0.0,1.0,0.319735107422,10.6087390137,-2.24652832031,0.1,0.0,0.0,0.0,0.1,0.0,0.0,0.0,0.1
1446040567416064818,1521,1446040567412966012,robocape,40.440564032,1.16021381113,-18.1925327147,0.0,10.0,0.0,0.0,0.0,10.0,0.0,0.0,0.0,10.0,0.00159789665405,0.0242347659197,0.00652474467069,1.0,0.0,0.0,0.0,1.0,0.0,0.0,0.0,1.0,0.32572265625,10.6063439941,-2.26688598633,0.1,0.0,0.0,0.0,0.1,0.0,0.0,0.0,0.1
1446040567449987527,1522,1446040567446428060,robocape,40.3004078916,1.16081779915,-18.0907828633,0.0,10.0,0.0,0.0,0.0,10.0,0.0,0.0,0.0,10.0,0.00173105470855,0.0247673981377,0.0066579027252,1.0,0.0,0.0,0.0,1.0,0.0,0.0,0.0,1.0,0.317340087891,10.5943688965,-2.25491088867,0.1,0.0,0.0,0.0,0.1,0.0,0.0,0.0,0.1
1446040567482278735,1523,1446040567479160070,robocape,40.1617336459,1.16173098235,-17.9907194594,0.0,10.0,0.0,0.0,0.0,10.0,0.0,0.0,0.0,10.0,0.00199737081756,0.0243679239742,0.00625842856169,1.0,0.0,0.0,0.0,1.0,0.0,0.0,0.0,1.0,0.318537597656,10.5991589355,-2.25012084961,0.1,0.0,0.0,0.0,0.1,0.0,0.0,0.0,0.1
1446040567516032068,1524,1446040567512598991,robocape,40.0248802767,1.16219677386,-17.8906757815,0.0,10.0,0.0,0.0,0.0,10.0,0.0,0.0,0.0,10.0,0.00239684498107,0.0242347659197,0.0067910607797,1.0,0.0,0.0,0.0,1.0,0.0,0.0,0.0,1.0,0.329315185547,10.6063439941,-2.24413330078,0.1,0.0,0.0,0.0,0.1,0.0,0.0,0.0,0.1
1446040567550543027,1525,1446040567546674013,robocape,39.8898872288,1.16436231918,-17.7923849959,0.0,10.0,0.0,0.0,0.0,10.0,0.0,0.0,0.0,10.0,0.00292947719909,0.0243679239742,0.00585895439817,1.0,0.0,0.0,0.0,1.0,0.0,0.0,0.0,1.0,0.319735107422,10.6159240723,-2.24413330078,0.1,0.0,0.0,0.0,0.1,0.0,0.0,0.0,0.1
1446040567582732152,1526,1446040567579034090,robocape,39.7556333154,1.16639175096,-17.692943199,0.0,10.0,0.0,0.0,0.0,10.0,0.0,0.0,0.0,10.0,0.00266316109008,0.0247673981377,0.0067910607797,1.0,0.0,0.0,0.0,1.0,0.0,0.0,0.0,1.0,0.328117675781,10.6075415039,-2.24533081055,0.1,0.0,0.0,0.0,0.1,0.0,0.0,0.0,0.1
1446040567616637818,1527,1446040567612960100,robocape,39.6224051443,1.1689695289,-17.5943223366,0.0,10.0,0.0,0.0,0.0,10.0,0.0,0.0,0.0,10.0,0.00266316109008,0.0247673981377,0.0066579027252,1.0,0.0,0.0,0.0,1.0,0.0,0.0,0.0,1.0,0.317340087891,10.6015539551,-2.21419555664,0.1,0.0,0.0,0.0,0.1,0.0,0.0,0.0,0.1
1446040567649886652,1528,1446040567646454095,robocape,39.489679058,1.17163183088,-17.4975599873,0.0,10.0,0.0,0.0,0.0,10.0,0.0,0.0,0.0,10.0,0.00239684498107,0.0242347659197,0.00625842856169,1.0,0.0,0.0,0.0,1.0,0.0,0.0,0.0,1.0,0.331710205078,10.6075415039,-2.21539306641,0.1,0.0,0.0,0.0,0.1,0.0,0.0,0.0,0.1
1446040567682332319,1529,1446040567679145097,robocape,39.3572979612,1.17412970859,-17.4015741095,0.0,10.0,0.0,0.0,0.0,10.0,0.0,0.0,0.0,10.0,0.00199737081756,0.0239684498107,0.00639158661619,1.0,0.0,0.0,0.0,1.0,0.0,0.0,0.0,1.0,0.323327636719,10.6314916992,-2.21299804688,0.1,0.0,0.0,0.0,0.1,0.0,0.0,0.0,0.1
1446040567715597860,1530,1446040567712549924,robocape,39.2257311026,1.1772350022,-17.3056952078,0.0,10.0,0.0,0.0,0.0,10.0,0.0,0.0,0.0,10.0,0.00186421276306,0.0242347659197,0.00652474467069,1.0,0.0,0.0,0.0,1.0,0.0,0.0,0.0,1.0,0.32572265625,10.6039489746,-2.24533081055,0.1,0.0,0.0,0.0,0.1,0.0,0.0,0.0,0.1
1446040567752850027,1531,1446040567749743938,robocape,39.0967702761,1.18145373384,-17.2097010533,0.0,10.0,0.0,0.0,0.0,10.0,0.0,0.0,0.0,10.0,0.00279631914458,0.0247673981377,0.00652474467069,1.0,0.0,0.0,0.0,1.0,0.0,0.0,0.0,1.0,0.3065625,10.6075415039,-2.22377563477,0.1,0.0,0.0,0.0,0.1,0.0,0.0,0.0,0.1
1446040567782422110,1532,1446040567779387950,robocape,38.9703023798,1.18531599755,-17.1153988029,0.0,10.0,0.0,0.0,0.0,10.0,0.0,0.0,0.0,10.0,0.00372842552611,0.0241016078652,0.00625842856169,1.0,0.0,0.0,0.0,1.0,0.0,0.0,0.0,1.0,0.313747558594,10.6039489746,-2.21299804688,0.1,0.0,0.0,0.0,0.1,0.0,0.0,0.0,0.1
1446040567815964527,1533,1446040567812748908,robocape,38.842854531,1.18992789772,-17.0202241959,0.0,10.0,0.0,0.0,0.0,10.0,0.0,0.0,0.0,10.0,0.00253000303558,0.0247673981377,0.0067910607797,1.0,0.0,0.0,0.0,1.0,0.0,0.0,0.0,1.0,0.312550048828,10.6147265625,-2.22377563477,0.1,0.0,0.0,0.0,0.1,0.0,0.0,0.0,0.1
1446040567849903235,1534,1446040567846502065,robocape,38.7141071813,1.19568527332,-16.925469392,0.0,10.0,0.0,0.0,0.0,10.0,0.0,0.0,0.0,10.0,0.00119842249054,0.0251668723012,0.0066579027252,1.0,0.0,0.0,0.0,1.0,0.0,0.0,0.0,1.0,0.312550048828,10.6027514648,-2.22856567383,0.1,0.0,0.0,0.0,0.1,0.0,0.0,0.0,0.1
1446040567882151110,1535,1446040567879128932,robocape,38.5846593131,1.20018621585,-16.8329852073,0.0,10.0,0.0,0.0,0.0,10.0,0.0,0.0,0.0,10.0,0.000266316109008,0.0239684498107,0.00652474467069,1.0,0.0,0.0,0.0,1.0,0.0,0.0,0.0,1.0,0.324525146484,10.6159240723,-2.22377563477,0.1,0.0,0.0,0.0,0.1,0.0,0.0,0.0,0.1
1446040567915893277,1536,1446040567912774085,robocape,38.4566334063,1.20540979685,-16.7407358278,0.0,10.0,0.0,0.0,0.0,10.0,0.0,0.0,0.0,10.0,0.000532632218016,0.0242347659197,0.00652474467069,1.0,0.0,0.0,0.0,1.0,0.0,0.0,0.0,1.0,0.332907714844,10.6015539551,-2.19982543945,0.1,0.0,0.0,0.0,0.1,0.0,0.0,0.0,0.1
