%time,field.header.seq,field.header.stamp,field.header.frame_id,field.orientation.x,field.orientation.y,field.orientation.z,field.orientation.w,field.orientation_covariance0,field.orientation_covariance1,field.orientation_covariance2,field.orientation_covariance3,field.orientation_covariance4,field.orientation_covariance5,field.orientation_covariance6,field.orientation_covariance7,field.orientation_covariance8,field.angular_velocity.x,field.angular_velocity.y,field.angular_velocity.z,field.angular_velocity_covariance0,field.angular_velocity_covariance1,field.angular_velocity_covariance2,field.angular_velocity_covariance3,field.angular_velocity_covariance4,field.angular_velocity_covariance5,field.angular_velocity_covariance6,field.angular_velocity_covariance7,field.angular_velocity_covariance8,field.linear_acceleration.x,field.linear_acceleration.y,field.linear_acceleration.z,field.linear_acceleration_covariance0,field.linear_acceleration_covariance1,field.linear_acceleration_covariance2,field.linear_acceleration_covariance3,field.linear_acceleration_covariance4,field.linear_acceleration_covariance5,field.linear_acceleration_covariance6,field.linear_acceleration_covariance7,field.linear_acceleration_covariance8
1463935088548401179,215,1463935088257495131,,1.05456733704,0.762504160404,-174.653045654,0.00113700004295,1.0,0.0,0.0,0.0,1.0,0.0,0.0,0.0,1.0,-0.365853667259,15.9146347046,8.10975551605,1.0,0.0,0.0,0.0,1.0,0.0,0.0,0.0,1.0,0.469263525391,0.45489831543,8.97346782227,1.0,0.0,0.0,0.0,1.0,0.0,0.0,0.0,1.0
1463935088548692271,216,1463935088279005664,,1.40231144428,0.774735510349,-174.504211426,0.00119199999608,1.0,0.0,0.0,0.0,1.0,0.0,0.0,0.0,1.0,-13.2926826477,22.1951236725,5.79268312454,1.0,0.0,0.0,0.0,1.0,0.0,0.0,0.0,1.0,0.205901342773,0.828393774414,8.82023891602,1.0,0.0,0.0,0.0,1.0,0.0,0.0,0.0,1.0
1463935088548734146,217,1463935088300631509,,1.83663201332,0.509251713753,-174.426223755,0.00119600002654,1.0,0.0,0.0,0.0,1.0,0.0,0.0,0.0,1.0,-25.0,23.4146347046,2.07317066193,1.0,0.0,0.0,0.0,1.0,0.0,0.0,0.0,1.0,0.105344873047,0.612915625,8.76277807617,1.0,0.0,0.0,0.0,1.0,0.0,0.0,0.0,1.0
1463935088548772427,218,1463935088322902351,,2.27841305733,-0.0338903293014,-174.451278687,0.0014230000088,1.0,0.0,0.0,0.0,1.0,0.0,0.0,0.0,1.0,-33.5365867615,19.8780498505,-2.80487799644,1.0,0.0,0.0,0.0,1.0,0.0,0.0,0.0,1.0,-0.205901342773,0.0718260498047,8.61912656108,1.0,0.0,0.0,0.0,1.0,0.0,0.0,0.0,1.0
1463935088548828989,219,1463935088345370849,,2.62788200378,-0.788582921028,-174.608047485,0.00591399986297,1.0,0.0,0.0,0.0,1.0,0.0,0.0,0.0,1.0,-39.1463432312,12.3170728683,-9.02439117432,1.0,0.0,0.0,0.0,1.0,0.0,0.0,0.0,1.0,-0.531512805087,-0.387860668945,8.79150849609,1.0,0.0,0.0,0.0,1.0,0.0,0.0,0.0,1.0
1463935088548882270,220,1463935088365363940,,2.78995895386,-1.65734398365,-174.875778198,0.00128900003619,1.0,0.0,0.0,0.0,1.0,0.0,0.0,0.0,1.0,-41.8902435303,4.87804889679,-13.2926826477,1.0,0.0,0.0,0.0,1.0,0.0,0.0,0.0,1.0,-0.272938989258,-0.852335791016,9.25119521484,1.0,0.0,0.0,0.0,1.0,0.0,0.0,0.0,1.0
1463935088548922322,221,1463935088385861561,,2.8093457222,-2.57279372215,-175.195449829,0.00117599999066,1.0,0.0,0.0,0.0,1.0,0.0,0.0,0.0,1.0,-41.8292694092,0.0,-14.6951217651,1.0,0.0,0.0,0.0,1.0,0.0,0.0,0.0,1.0,-0.383072265625,-1.43652099609,9.88805285645,1.0,0.0,0.0,0.0,1.0,0.0,0.0,0.0,1.0
1463935088549094144,222,1463935088406930534,,2.736795187,-3.48987841606,-175.511703491,0.00127300003078,1.0,0.0,0.0,0.0,1.0,0.0,0.0,0.0,1.0,-39.3292694092,-5.24390268326,-13.4756097794,1.0,0.0,0.0,0.0,1.0,0.0,0.0,0.0,1.0,-0.560243188477,-1.76213242187,10.4530844482,1.0,0.0,0.0,0.0,1.0,0.0,0.0,0.0,1.0
1463935088549169457,223,1463935088429316584,,2.54693078995,-4.34991025925,-175.777267456,0.00153300003149,1.0,0.0,0.0,0.0,1.0,0.0,0.0,0.0,1.0,-36.8902435303,-9.63414573669,-10.6097564697,1.0,0.0,0.0,0.0,1.0,0.0,0.0,0.0,1.0,-0.268150604204,-1.70945998535,10.4866032715,1.0,0.0,0.0,0.0,1.0,0.0,0.0,0.0,1.0
1463935088549256175,224,1463935088450573264,,2.27567744255,-5.10789680481,-175.960388184,0.00528299994767,1.0,0.0,0.0,0.0,1.0,0.0,0.0,0.0,1.0,-33.4756126404,-13.2317075729,-7.92682981491,1.0,0.0,0.0,0.0,1.0,0.0,0.0,0.0,1.0,-0.483628735352,-1.77649763184,10.6446205811,1.0,0.0,0.0,0.0,1.0,0.0,0.0,0.0,1.0
1463935088549497372,225,1463935088474272902,,1.90612852573,-5.82889461517,-176.088577271,0.00294000003487,1.0,0.0,0.0,0.0,1.0,0.0,0.0,0.0,1.0,-29.6951236725,-17.5000019073,-5.73170757294,1.0,0.0,0.0,0.0,1.0,0.0,0.0,0.0,1.0,-0.349553442383,-1.76213242187,10.7260234375,1.0,0.0,0.0,0.0,1.0,0.0,0.0,0.0,1.0
1463935088550383045,226,1463935088499731647,,1.43910515308,-6.44610309601,-176.142044067,0.00373600004241,1.0,0.0,0.0,0.0,1.0,0.0,0.0,0.0,1.0,-26.0975627899,-17.8658542633,-2.37804889679,1.0,0.0,0.0,0.0,1.0,0.0,0.0,0.0,1.0,0.359130249023,-1.93930334473,11.137826123,1.0,0.0,0.0,0.0,1.0,0.0,0.0,0.0,1.0
1463935088550588044,227,1463935088515837203,,1.08766341209,-6.94685602188,-176.106689453,0.00311599997804,1.0,0.0,0.0,0.0,1.0,0.0,0.0,0.0,1.0,-21.2804889679,-10.7926826477,3.53658556938,1.0,0.0,0.0,0.0,1.0,0.0,0.0,0.0,1.0,0.555454785156,-2.51391174316,11.8129909912,1.0,0.0,0.0,0.0,1.0,0.0,0.0,0.0,1.0
1463935088553672823,228,1463935088537561746,,0.887057483196,-7.34720182419,-175.975738525,0.00234099989757,1.0,0.0,0.0,0.0,1.0,0.0,0.0,0.0,1.0,-11.9512195587,-2.37804889679,7.50000047684,1.0,0.0,0.0,0.0,1.0,0.0,0.0,0.0,1.0,0.665588061523,-3.08373173828,11.5496288086,1.0,0.0,0.0,0.0,1.0,0.0,0.0,0.0,1.0
1463935088578717039,229,1463935088572721127,,0.837797284126,-7.4525513649,-175.71887207,0.0154919996858,1.0,0.0,0.0,0.0,1.0,0.0,0.0,0.0,1.0,6.0365858078,-0.12195122242,8.04878044128,1.0,0.0,0.0,0.0,1.0,0.0,0.0,0.0,1.0,0.359130249023,-2.51391174316,10.8217915039,1.0,0.0,0.0,0.0,1.0,0.0,0.0,0.0,1.0
1463935088622344196,230,1463935088595599362,,0.852626442909,-7.25090694427,-175.544372559,0.00253800000064,1.0,0.0,0.0,0.0,1.0,0.0,0.0,0.0,1.0,14.4512205124,5.85365867615,10.3048782349,1.0,0.0,0.0,0.0,1.0,0.0,0.0,0.0,1.0,0.45489831543,-2.41814367676,11.3868230957,1.0,0.0,0.0,0.0,1.0,0.0,0.0,0.0,1.0
1463935088625008924,231,1463935088616908334,,1.02120435238,-6.84961557388,-175.372497559,0.00293299998157,1.0,0.0,0.0,0.0,1.0,0.0,0.0,0.0,1.0,21.0365848541,4.93902444839,8.41463470459,1.0,0.0,0.0,0.0,1.0,0.0,0.0,0.0,1.0,-0.790086547852,-2.01591779785,10.8505219238,1.0,0.0,0.0,0.0,1.0,0.0,0.0,0.0,1.0
1463935088769667628,232,1463935088639829746,,1.07339847088,-6.31093025208,-175.244949341,0.00260700006038,1.0,0.0,0.0,0.0,1.0,0.0,0.0,0.0,1.0,22.5,-8.5365858078,3.84146332741,1.0,0.0,0.0,0.0,1.0,0.0,0.0,0.0,1.0,-0.804451757813,-1.62805712891,10.285490332,1.0,0.0,0.0,0.0,1.0,0.0,0.0,0.0,1.0
1463935088770511375,233,1463935088660915854,,0.856810867786,-5.82350873947,-175.174499512,0.00144999998156,1.0,0.0,0.0,0.0,1.0,0.0,0.0,0.0,1.0,24.4512195587,-14.0243902206,2.98780488968,1.0,0.0,0.0,0.0,1.0,0.0,0.0,0.0,1.0,-0.359130249023,-2.17393510742,10.3956236084,1.0,0.0,0.0,0.0,1.0,0.0,0.0,0.0,1.0
1463935088770701791,234,1463935088684320181,,0.559335887432,-5.29562616348,-175.028671265,0.00262099993415,1.0,0.0,0.0,0.0,1.0,0.0,0.0,0.0,1.0,28.3536586761,-13.4756097794,9.02439117432,1.0,0.0,0.0,0.0,1.0,0.0,0.0,0.0,1.0,0.0383072265625,-2.25054956055,10.2088758789,1.0,0.0,0.0,0.0,1.0,0.0,0.0,0.0,1.0
1463935088770988665,235,1463935088704679208,,0.332285135984,-4.71214342117,-174.755630493,0.0026750001125,1.0,0.0,0.0,0.0,1.0,0.0,0.0,0.0,1.0,29.2073173523,-8.23170757294,15.3048791885,1.0,0.0,0.0,0.0,1.0,0.0,0.0,0.0,1.0,0.383072265625,-1.43652099609,9.94072529297,1.0,0.0,0.0,0.0,1.0,0.0,0.0,0.0,1.0
1463935088771191893,236,1463935088731412375,,0.254025071859,-4.05907917023,-174.27897644,0.00753200007603,1.0,0.0,0.0,0.0,1.0,0.0,0.0,0.0,1.0,20.4878044128,5.24390268326,25.1219520569,1.0,0.0,0.0,0.0,1.0,0.0,0.0,0.0,1.0,0.435744702148,-0.799663354492,9.32302068013,1.0,0.0,0.0,0.0,1.0,0.0,0.0,0.0,1.0
1463935088771362100,237,1463935088750025577,,0.439607203007,-3.65311551094,-173.705795288,0.00156899995636,1.0,0.0,0.0,0.0,1.0,0.0,0.0,0.0,1.0,16.5853652954,10.0,29.2682933807,1.0,0.0,0.0,0.0,1.0,0.0,0.0,0.0,1.0,0.0861912597656,-1.36469494629,9.2942902602,1.0,0.0,0.0,0.0,1.0,0.0,0.0,0.0,1.0
1463935088840516753,238,1463935088792572687,,0.935621023178,-3.18383479118,-172.656295776,0.0272380001843,1.0,0.0,0.0,0.0,1.0,0.0,0.0,0.0,1.0,2.74390244484,14.2073173523,28.2926845551,1.0,0.0,0.0,0.0,1.0,0.0,0.0,0.0,1.0,0.282515795898,0.0957680664062,8.5999729478,1.0,0.0,0.0,0.0,1.0,0.0,0.0,0.0,1.0
1463935088842369089,239,1463935088810523548,,1.22008132935,-3.08735585213,-172.102813721,0.00167000002693,1.0,0.0,0.0,0.0,1.0,0.0,0.0,0.0,1.0,-7.86585378647,15.9146347046,26.5853652954,1.0,0.0,0.0,0.0,1.0,0.0,0.0,0.0,1.0,0.316034619141,-0.162805712891,8.99740983887,1.0,0.0,0.0,0.0,1.0,0.0,0.0,0.0,1.0
1463935088842444974,240,1463935088830043204,,1.57493364811,-3.29356741905,-171.627349854,0.00127999996766,1.0,0.0,0.0,0.0,1.0,0.0,0.0,0.0,1.0,-15.2439022064,14.7560987473,23.1707324982,1.0,0.0,0.0,0.0,1.0,0.0,0.0,0.0,1.0,-0.292092584273,-1.04866025408,9.49061596538,1.0,0.0,0.0,0.0,1.0,0.0,0.0,0.0,1.0
1463935089044106976,241,1463935088851579362,,1.84446454048,-3.6506857872,-171.226531982,0.00131500000134,1.0,0.0,0.0,0.0,1.0,0.0,0.0,0.0,1.0,-18.2926826477,9.26829242706,18.5975627899,1.0,0.0,0.0,0.0,1.0,0.0,0.0,0.0,1.0,-0.0718260498047,-1.33596452637,9.7827079834,1.0,0.0,0.0,0.0,1.0,0.0,0.0,0.0,1.0
1463935089044429631,242,1463935088873122967,,1.99285292625,-4.08692169189,-170.896392822,0.00161899998784,1.0,0.0,0.0,0.0,1.0,0.0,0.0,0.0,1.0,-20.3658542633,9.26829242706,15.7317075729,1.0,0.0,0.0,0.0,1.0,0.0,0.0,0.0,1.0,0.287304199219,-1.56580788574,10.1083194092,1.0,0.0,0.0,0.0,1.0,0.0,0.0,0.0,1.0
1463935089046967120,243,1463935088893903764,,2.14856553078,-4.52255344391,-170.648483276,0.00125800003298,1.0,0.0,0.0,0.0,1.0,0.0,0.0,0.0,1.0,-22.1951236725,5.54878091812,10.4878053665,1.0,0.0,0.0,0.0,1.0,0.0,0.0,0.0,1.0,-0.397437475586,-1.31681091309,10.1226846191,1.0,0.0,0.0,0.0,1.0,0.0,0.0,0.0,1.0
1463935089047475035,244,1463935088915330912,,2.20161986351,-5.03063964844,-170.538330078,0.00259899999946,1.0,0.0,0.0,0.0,1.0,0.0,0.0,0.0,1.0,-22.3170719147,-3.90243911743,2.62195134163,1.0,0.0,0.0,0.0,1.0,0.0,0.0,0.0,1.0,-0.699106884766,-1.89620771484,10.4818148682,1.0,0.0,0.0,0.0,1.0,0.0,0.0,0.0,1.0
1463935089048081022,245,1463935088936776445,,2.01362037659,-5.53404426575,-170.560272217,0.00135100004263,1.0,0.0,0.0,0.0,1.0,0.0,0.0,0.0,1.0,-21.0365848541,-9.39024448395,-2.80487799644,1.0,0.0,0.0,0.0,1.0,0.0,0.0,0.0,1.0,0.0191536132812,-1.98239897461,10.6206785645,1.0,0.0,0.0,0.0,1.0,0.0,0.0,0.0,1.0
1463935089049627421,246,1463935088958322082,,1.75034236908,-5.99827766418,-170.632171631,0.00133200001437,1.0,0.0,0.0,0.0,1.0,0.0,0.0,0.0,1.0,-20.2439022064,-7.07317113876,-3.84146332741,1.0,0.0,0.0,0.0,1.0,0.0,0.0,0.0,1.0,0.330399829102,-1.98718737793,11.3197854492,1.0,0.0,0.0,0.0,1.0,0.0,0.0,0.0,1.0
1463935089050546063,247,1463935088979903813,,1.55157279968,-6.42579317093,-170.728286743,0.00126100005582,1.0,0.0,0.0,0.0,1.0,0.0,0.0,0.0,1.0,-18.0487823486,-5.73170757294,-4.87804889679,1.0,0.0,0.0,0.0,1.0,0.0,0.0,0.0,1.0,0.277727392578,-1.96803376465,11.0851536865,1.0,0.0,0.0,0.0,1.0,0.0,0.0,0.0,1.0
1463935089051143977,248,1463935089001408617,,1.36938250065,-6.79239225388,-170.845733643,0.00202500005253,1.0,0.0,0.0,0.0,1.0,0.0,0.0,0.0,1.0,-16.8902435303,-0.853658556938,-5.73170757294,1.0,0.0,0.0,0.0,1.0,0.0,0.0,0.0,1.0,0.751779321289,-2.04464821777,10.5344873047,1.0,0.0,0.0,0.0,1.0,0.0,0.0,0.0,1.0
1463935089051208196,249,1463935089023107587,,1.30796957016,-7.19708061218,-171.027908325,0.00181799998973,1.0,0.0,0.0,0.0,1.0,0.0,0.0,0.0,1.0,-8.04878044128,-0.243902444839,-9.08536529541,1.0,0.0,0.0,0.0,1.0,0.0,0.0,0.0,1.0,-0.162805712891,-3.64397492676,10.6541973877,1.0,0.0,0.0,0.0,1.0,0.0,0.0,0.0,1.0
1463935089055367449,250,1463935089044343694,,1.19130051136,-7.36679124832,-171.274414062,0.00155599997379,1.0,0.0,0.0,0.0,1.0,0.0,0.0,0.0,1.0,5.85365867615,-4.14634132385,-12.5,1.0,0.0,0.0,0.0,1.0,0.0,0.0,0.0,1.0,0.0383072265625,-3.44765039062,10.898405957,1.0,0.0,0.0,0.0,1.0,0.0,0.0,0.0,1.0
1463935089456056986,251,1463935089064729544,,1.01126790047,-7.2177863121,-171.578826904,0.00145400001202,1.0,0.0,0.0,0.0,1.0,0.0,0.0,0.0,1.0,14.8170728683,-7.31707334518,-16.5853652954,1.0,0.0,0.0,0.0,1.0,0.0,0.0,0.0,1.0,-0.119710083008,-2.38462499965,10.8648871338,1.0,0.0,0.0,0.0,1.0,0.0,0.0,0.0,1.0
1463935089457255939,252,1463935089086763669,,0.760923683643,-6.86815977097,-172.007537842,0.00185799994506,1.0,0.0,0.0,0.0,1.0,0.0,0.0,0.0,1.0,19.1463432312,-12.0121955872,-22.4390239716,1.0,0.0,0.0,0.0,1.0,0.0,0.0,0.0,1.0,-0.584185168546,-2.26012636719,10.7308118408,1.0,0.0,0.0,0.0,1.0,0.0,0.0,0.0,1.0
1463935089457827759,253,1463935089107707798,,0.410451233387,-6.45974779129,-172.509384155,0.00125800003298,1.0,0.0,0.0,0.0,1.0,0.0,0.0,0.0,1.0,24.3902435303,-15.1829271317,-26.158536911,1.0,0.0,0.0,0.0,1.0,0.0,0.0,0.0,1.0,-0.00478840332031,-2.24097275391,10.5680061279,1.0,0.0,0.0,0.0,1.0,0.0,0.0,0.0,1.0
1463935089458243435,254,1463935089130899626,,0.0225045401603,-5.91860961914,-173.091720581,0.00427199993283,1.0,0.0,0.0,0.0,1.0,0.0,0.0,0.0,1.0,27.9878063202,-11.5853662491,-27.5609760284,1.0,0.0,0.0,0.0,1.0,0.0,0.0,0.0,1.0,0.239420166016,-1.95845695801,9.91678327637,1.0,0.0,0.0,0.0,1.0,0.0,0.0,0.0,1.0
1463935089458581819,255,1463935089151618235,,-0.245089575648,-5.36592340469,-173.646011353,0.0014309999533,1.0,0.0,0.0,0.0,1.0,0.0,0.0,0.0,1.0,29.5731697083,-4.08536577225,-25.8536586761,1.0,0.0,0.0,0.0,1.0,0.0,0.0,0.0,1.0,0.531512805087,-1.89141931152,9.44273076313,1.0,0.0,0.0,0.0,1.0,0.0,0.0,0.0,1.0
1463935089459013223,256,1463935089175418238,,-0.297781467438,-4.71106815338,-174.199127197,0.00285100005567,1.0,0.0,0.0,0.0,1.0,0.0,0.0,0.0,1.0,29.5731697083,7.37804937363,-22.5609760284,1.0,0.0,0.0,0.0,1.0,0.0,0.0,0.0,1.0,0.842758984375,-1.00556469727,9.35175110005,1.0,0.0,0.0,0.0,1.0,0.0,0.0,0.0,1.0
1463935089460629883,257,1463935089195151643,,-0.104166030884,-4.02655649185,-174.664352417,0.00391699979082,1.0,0.0,0.0,0.0,1.0,0.0,0.0,0.0,1.0,21.4024391174,17.134147644,-17.1951217651,1.0,0.0,0.0,0.0,1.0,0.0,0.0,0.0,1.0,0.603338854892,0.0526724365234,9.19852277832,1.0,0.0,0.0,0.0,1.0,0.0,0.0,0.0,1.0
1463935089461068631,258,1463935089218232169,,0.281988203526,-3.55468845367,-174.969345093,0.00227600010112,1.0,0.0,0.0,0.0,1.0,0.0,0.0,0.0,1.0,4.14634132385,26.3414649963,-9.5731716156,1.0,0.0,0.0,0.0,1.0,0.0,0.0,0.0,1.0,0.445321508789,0.833182177734,9.05965908203,1.0,0.0,0.0,0.0,1.0,0.0,0.0,0.0,1.0
1463935089461625816,259,1463935089238677030,,0.862898111343,-3.44440698624,-175.157791138,0.00146399997175,1.0,0.0,0.0,0.0,1.0,0.0,0.0,0.0,1.0,-9.39024448395,32.0731697083,-4.81707286835,1.0,0.0,0.0,0.0,1.0,0.0,0.0,0.0,1.0,0.172382519531,0.215478149414,8.87769975586,1.0,0.0,0.0,0.0,1.0,0.0,0.0,0.0,1.0
1463935089462604770,260,1463935089261029955,,1.54737973213,-3.64528489113,-175.302978516,0.00402100011706,1.0,0.0,0.0,0.0,1.0,0.0,0.0,0.0,1.0,-18.5365848541,30.2439022064,-3.65853667259,1.0,0.0,0.0,0.0,1.0,0.0,0.0,0.0,1.0,-0.191536132812,-0.210689746094,8.37012841938,1.0,0.0,0.0,0.0,1.0,0.0,0.0,0.0,1.0
1463935089464995437,261,1463935089280871589,,2.12518000603,-4.02189826965,-175.441604614,0.00147200003266,1.0,0.0,0.0,0.0,1.0,0.0,0.0,0.0,1.0,-26.5853652954,25.3048782349,-4.14634132385,1.0,0.0,0.0,0.0,1.0,0.0,0.0,0.0,1.0,-0.430956298828,-0.301669427446,8.17380446777,1.0,0.0,0.0,0.0,1.0,0.0,0.0,0.0,1.0
1463935089465447154,262,1463935089302841807,,2.611317873,-4.56020307541,-175.568695068,0.00161499995738,1.0,0.0,0.0,0.0,1.0,0.0,0.0,0.0,1.0,-32.4390220642,15.9146347046,-4.2682929039,1.0,0.0,0.0,0.0,1.0,0.0,0.0,0.0,1.0,-0.708683691406,-1.06781401349,8.53293530132,1.0,0.0,0.0,0.0,1.0,0.0,0.0,0.0,1.0
1463935089465955329,263,1463935089321804747,,2.86420345306,-5.24504184723,-175.699615479,0.00251700007357,1.0,0.0,0.0,0.0,1.0,0.0,0.0,0.0,1.0,-31.9512214661,8.04878044128,-4.20731735229,1.0,0.0,0.0,0.0,1.0,0.0,0.0,0.0,1.0,-0.474051928711,-1.68072956543,9.46667277974,1.0,0.0,0.0,0.0,1.0,0.0,0.0,0.0,1.0
1463935089466300171,264,1463935089344703712,,2.96384811401,-5.95998668671,-175.794204712,0.00256299995817,1.0,0.0,0.0,0.0,1.0,0.0,0.0,0.0,1.0,-29.0243911743,0.548780500889,-1.58536589146,1.0,0.0,0.0,0.0,1.0,0.0,0.0,0.0,1.0,-0.818816967773,-1.73340200195,9.88805285645,1.0,0.0,0.0,0.0,1.0,0.0,0.0,0.0,1.0
1463935089467562041,265,1463935089365542320,,2.91279768944,-6.56241035461,-175.803833008,0.00147300004028,1.0,0.0,0.0,0.0,1.0,0.0,0.0,0.0,1.0,-26.8902454376,-5.91463422775,1.76829278469,1.0,0.0,0.0,0.0,1.0,0.0,0.0,0.0,1.0,-0.555454785156,-1.88184250488,10.1131078125,1.0,0.0,0.0,0.0,1.0,0.0,0.0,0.0,1.0
1463935089468218027,266,1463935089386168691,,2.76338911057,-7.10812139511,-175.724365234,0.00191099999938,1.0,0.0,0.0,0.0,1.0,0.0,0.0,0.0,1.0,-24.9390239716,-9.45121955872,5.36585378647,1.0,0.0,0.0,0.0,1.0,0.0,0.0,0.0,1.0,-0.531512805087,-2.00634099121,10.6254669678,1.0,0.0,0.0,0.0,1.0,0.0,0.0,0.0,1.0
1463935089468637557,267,1463935089407997920,,2.55300116539,-7.58870697021,-175.545013428,0.00140299997292,1.0,0.0,0.0,0.0,1.0,0.0,0.0,0.0,1.0,-23.1097564697,-10.9756097794,10.3048782349,1.0,0.0,0.0,0.0,1.0,0.0,0.0,0.0,1.0,-0.335188232422,-2.00155258789,10.6925046143,1.0,0.0,0.0,0.0,1.0,0.0,0.0,0.0,1.0
1463935089468982972,268,1463935089431002926,,2.35165667534,-8.04304504395,-175.265792847,0.00158699997701,1.0,0.0,0.0,0.0,1.0,0.0,0.0,0.0,1.0,-21.8292694092,-7.50000047684,14.6951217651,1.0,0.0,0.0,0.0,1.0,0.0,0.0,0.0,1.0,-0.0287304199219,-2.02070620117,11.0133276367,1.0,0.0,0.0,0.0,1.0,0.0,0.0,0.0,1.0
1463935089469792864,269,1463935089452321481,,2.23040270805,-8.47409248352,-174.882965088,0.00299199996516,1.0,0.0,0.0,0.0,1.0,0.0,0.0,0.0,1.0,-20.1829280853,-1.40243899822,18.658536911,1.0,0.0,0.0,0.0,1.0,0.0,0.0,0.0,1.0,0.383072265625,-1.88184250488,11.3868230957,1.0,0.0,0.0,0.0,1.0,0.0,0.0,0.0,1.0
1463935089703222127,270,1463935089475626121,,2.29539585114,-8.87097167969,-174.436019897,0.00382099999115,1.0,0.0,0.0,0.0,1.0,0.0,0.0,0.0,1.0,-18.5365848541,5.73170757294,20.9146347046,1.0,0.0,0.0,0.0,1.0,0.0,0.0,0.0,1.0,-0.0239420166016,-2.30322199707,11.0564232666,1.0,0.0,0.0,0.0,1.0,0.0,0.0,0.0,1.0
1463935089703869051,271,1463935089495095777,,2.42816257477,-9.2000541687,-174.071289062,0.00168800004758,1.0,0.0,0.0,0.0,1.0,0.0,0.0,0.0,1.0,-11.5853662491,3.41463422775,18.5365848541,1.0,0.0,0.0,0.0,1.0,0.0,0.0,0.0,1.0,-0.148440512063,-3.06936652832,10.8217915039,1.0,0.0,0.0,0.0,1.0,0.0,0.0,0.0,1.0
1463935089703996967,272,1463935089523261698,,2.57378649712,-9.34989929199,-173.598052979,0.0117539996281,1.0,0.0,0.0,0.0,1.0,0.0,0.0,0.0,1.0,1.09756100178,7.13414621353,19.9390239716,1.0,0.0,0.0,0.0,1.0,0.0,0.0,0.0,1.0,0.162805712891,-3.00232888184,11.5592056152,1.0,0.0,0.0,0.0,1.0,0.0,0.0,0.0,1.0
1463935089704053686,273,1463935089544496035,,2.74087953568,-9.22478675842,-173.223342896,0.00321100000292,1.0,0.0,0.0,0.0,1.0,0.0,0.0,0.0,1.0,5.48780488968,9.26829242706,20.7317085266,1.0,0.0,0.0,0.0,1.0,0.0,0.0,0.0,1.0,0.0143652099609,-2.03028300781,11.6214548584,1.0,0.0,0.0,0.0,1.0,0.0,0.0,0.0,1.0
1463935089704098165,274,1463935089568267652,,2.98324632645,-8.98441696167,-172.757080078,0.00627799984068,1.0,0.0,0.0,0.0,1.0,0.0,0.0,0.0,1.0,6.70731735229,3.47560977936,20.0,1.0,0.0,0.0,0.0,1.0,0.0,0.0,0.0,1.0,-0.890643017578,-2.21224233398,11.1569797363,1.0,0.0,0.0,0.0,1.0,0.0,0.0,0.0,1.0
1463935089706498832,275,1463935089589298603,,3.02812361717,-8.80049800873,-172.375961304,0.00152299995534,1.0,0.0,0.0,0.0,1.0,0.0,0.0,0.0,1.0,12.5,-8.84146404266,17.9878044128,1.0,0.0,0.0,0.0,1.0,0.0,0.0,0.0,1.0,-1.07260241682,-2.97359846191,10.8265799072,1.0,0.0,0.0,0.0,1.0,0.0,0.0,0.0,1.0
1463935089706720445,276,1463935089610913355,,2.79955148697,-8.4783115387,-171.95892334,0.0014609999489,1.0,0.0,0.0,0.0,1.0,0.0,0.0,0.0,1.0,20.1219520569,-18.5365848541,18.5975627899,1.0,0.0,0.0,0.0,1.0,0.0,0.0,0.0,1.0,-0.435744702148,-2.63362182617,10.4291424316,1.0,0.0,0.0,0.0,1.0,0.0,0.0,0.0,1.0
1463935089707537108,277,1463935089633477894,,2.40857076645,-7.97306871414,-171.444015503,0.00216699996963,1.0,0.0,0.0,0.0,1.0,0.0,0.0,0.0,1.0,22.9878044128,-14.9390249252,24.3902435303,1.0,0.0,0.0,0.0,1.0,0.0,0.0,0.0,1.0,0.368707055664,-1.94409174805,9.71567033691,1.0,0.0,0.0,0.0,1.0,0.0,0.0,0.0,1.0
1463935089708697833,278,1463935089654047233,,2.14521694183,-7.475877285,-170.87550354,0.0015419999836,1.0,0.0,0.0,0.0,1.0,0.0,0.0,0.0,1.0,24.5731716156,-9.02439117432,28.1707324982,1.0,0.0,0.0,0.0,1.0,0.0,0.0,0.0,1.0,0.541089611728,-1.95366855469,9.05487067871,1.0,0.0,0.0,0.0,1.0,0.0,0.0,0.0,1.0
1463935089709155851,279,1463935089675103653,,2.01361107826,-6.98146677017,-170.257858276,0.00172199995723,1.0,0.0,0.0,0.0,1.0,0.0,0.0,0.0,1.0,26.4024391174,-2.31707310677,31.341463089,1.0,0.0,0.0,0.0,1.0,0.0,0.0,0.0,1.0,0.181959326172,-2.27927998047,8.89685336914,1.0,0.0,0.0,0.0,1.0,0.0,0.0,0.0,1.0
1463935089709971473,280,1463935089695685596,,2.00717878342,-6.42504358292,-169.599411011,0.00139899994247,1.0,0.0,0.0,0.0,1.0,0.0,0.0,0.0,1.0,28.5365848541,0.18292683363,33.0487823486,1.0,0.0,0.0,0.0,1.0,0.0,0.0,0.0,1.0,0.296881024126,-1.64242233887,8.54251210796,1.0,0.0,0.0,0.0,1.0,0.0,0.0,0.0,1.0
1463935090080962908,281,1463935089718176438,,2.04506111145,-5.77055120468,-168.886779785,0.00179899996147,1.0,0.0,0.0,0.0,1.0,0.0,0.0,0.0,1.0,25.4268302917,9.08536529541,34.0243911743,1.0,0.0,0.0,0.0,1.0,0.0,0.0,0.0,1.0,0.565031591797,-1.03429511719,8.70531723633,1.0,0.0,0.0,0.0,1.0,0.0,0.0,0.0,1.0
1463935090081237490,282,1463935089739301348,,2.24847960472,-5.19249486923,-168.233688354,0.00148400000762,1.0,0.0,0.0,0.0,1.0,0.0,0.0,0.0,1.0,19.2073173523,13.3536586761,31.6463413239,1.0,0.0,0.0,0.0,1.0,0.0,0.0,0.0,1.0,0.239420166016,-0.636857641602,9.08838950195,1.0,0.0,0.0,0.0,1.0,0.0,0.0,0.0,1.0
1463935090081518270,283,1463935089760657037,,2.49839687347,-4.77424192429,-167.652450562,0.00204900000244,1.0,0.0,0.0,0.0,1.0,0.0,0.0,0.0,1.0,11.341463089,13.5975618362,27.4390258789,1.0,0.0,0.0,0.0,1.0,0.0,0.0,0.0,1.0,0.196324536133,-0.986411083984,9.23683000488,1.0,0.0,0.0,0.0,1.0,0.0,0.0,0.0,1.0
1463935090081802748,284,1463935089780780597,,2.74767875671,-4.55255699158,-167.173843384,0.00148099998478,1.0,0.0,0.0,0.0,1.0,0.0,0.0,0.0,1.0,6.64634132385,12.5609760284,22.6219520569,1.0,0.0,0.0,0.0,1.0,0.0,0.0,0.0,1.0,-0.0239420166016,-1.17315874041,9.27034882812,1.0,0.0,0.0,0.0,1.0,0.0,0.0,0.0,1.0
1463935090082069309,285,1463935089802016288,,2.94047904015,-4.45770740509,-166.815490723,0.00213299994357,1.0,0.0,0.0,0.0,1.0,0.0,0.0,0.0,1.0,2.80487799644,12.0121955872,15.3048791885,1.0,0.0,0.0,0.0,1.0,0.0,0.0,0.0,1.0,0.100556469727,-1.70467158203,9.44751916645,1.0,0.0,0.0,0.0,1.0,0.0,0.0,0.0,1.0
1463935090082389412,286,1463935089823201770,,3.10970473289,-4.46081542969,-166.605270386,0.00249200011604,1.0,0.0,0.0,0.0,1.0,0.0,0.0,0.0,1.0,1.58536589146,6.64634132385,8.5365858078,1.0,0.0,0.0,0.0,1.0,0.0,0.0,0.0,1.0,-0.100556469727,-1.98718737793,9.82580361328,1.0,0.0,0.0,0.0,1.0,0.0,0.0,0.0,1.0
1463935090082978055,287,1463935089843378038,,3.14958882332,-4.48044395447,-166.530761719,0.0015419999836,1.0,0.0,0.0,0.0,1.0,0.0,0.0,0.0,1.0,1.34146344662,2.68292689323,2.62195134163,1.0,0.0,0.0,0.0,1.0,0.0,0.0,0.0,1.0,-0.167594116211,-1.84832368164,9.92157167969,1.0,0.0,0.0,0.0,1.0,0.0,0.0,0.0,1.0
1463935090083381804,288,1463935089865106747,,3.09579944611,-4.52084350586,-166.572814941,0.00135399994906,1.0,0.0,0.0,0.0,1.0,0.0,0.0,0.0,1.0,0.670731723309,-2.37804889679,-3.65853667259,1.0,0.0,0.0,0.0,1.0,0.0,0.0,0.0,1.0,-0.181959326172,-1.95845695801,10.2136642822,1.0,0.0,0.0,0.0,1.0,0.0,0.0,0.0,1.0
1463935090083737219,289,1463935089886819936,,2.92356491089,-4.58800268173,-166.733078003,0.00196000002325,1.0,0.0,0.0,0.0,1.0,0.0,0.0,0.0,1.0,0.670731723309,-6.70731735229,-8.59756088257,1.0,0.0,0.0,0.0,1.0,0.0,0.0,0.0,1.0,-0.15801730957,-2.18830031738,10.9606552002,1.0,0.0,0.0,0.0,1.0,0.0,0.0,0.0,1.0
1463935090084109821,290,1463935089907736357,,2.67687916756,-4.63834095001,-166.940551758,0.0014600000577,1.0,0.0,0.0,0.0,1.0,0.0,0.0,0.0,1.0,1.64634156227,-8.41463470459,-9.5731716156,1.0,0.0,0.0,0.0,1.0,0.0,0.0,0.0,1.0,0.210689746094,-2.18830031738,11.0516348633,1.0,0.0,0.0,0.0,1.0,0.0,0.0,0.0,1.0
1463935090084445236,291,1463935089928969495,,2.42824006081,-4.66115045547,-167.137390137,0.00126399996225,1.0,0.0,0.0,0.0,1.0,0.0,0.0,0.0,1.0,0.0,-7.07317113876,-8.59756088257,1.0,0.0,0.0,0.0,1.0,0.0,0.0,0.0,1.0,0.114921679688,-1.69509477539,10.8792523438,1.0,0.0,0.0,0.0,1.0,0.0,0.0,0.0,1.0
1463935090084773308,292,1463935089949234408,,2.22218155861,-4.73946428299,-167.32258606,0.00161499995738,1.0,0.0,0.0,0.0,1.0,0.0,0.0,0.0,1.0,0.548780500889,-7.50000047684,-8.65853691101,1.0,0.0,0.0,0.0,1.0,0.0,0.0,0.0,1.0,-0.263362164351,-2.69587106934,10.8696755371,1.0,0.0,0.0,0.0,1.0,0.0,0.0,0.0,1.0
1463935090085443461,293,1463935089970643796,,1.96402943134,-4.83180189133,-167.534820557,0.00147599994671,1.0,0.0,0.0,0.0,1.0,0.0,0.0,0.0,1.0,8.90243911743,-12.5,-10.3048782349,1.0,0.0,0.0,0.0,1.0,0.0,0.0,0.0,1.0,-0.129286889648,-3.6056677002,10.8313683105,1.0,0.0,0.0,0.0,1.0,0.0,0.0,0.0,1.0
1463935090085774033,294,1463935089992548129,,1.60841488838,-4.71120929718,-167.761154175,0.00165400002152,1.0,0.0,0.0,0.0,1.0,0.0,0.0,0.0,1.0,17.2560977936,-10.3048782349,-10.7317075729,1.0,0.0,0.0,0.0,1.0,0.0,0.0,0.0,1.0,0.756567724609,-2.63362182617,10.9079827637,1.0,0.0,0.0,0.0,1.0,0.0,0.0,0.0,1.0
1463935090086118667,295,1463935090013293353,,1.33670794964,-4.37989091873,-168.000595093,0.00143699999899,1.0,0.0,0.0,0.0,1.0,0.0,0.0,0.0,1.0,16.5243911743,-5.12195110321,-11.9512195587,1.0,0.0,0.0,0.0,1.0,0.0,0.0,0.0,1.0,0.445321508789,-1.32159931641,10.4578728516,1.0,0.0,0.0,0.0,1.0,0.0,0.0,0.0,1.0
1463935090086573248,296,1463935090035802892,,1.18219864368,-4.07003307343,-168.30355835,0.00171700003557,1.0,0.0,0.0,0.0,1.0,0.0,0.0,0.0,1.0,10.9756097794,-2.92682933807,-15.0609760284,1.0,0.0,0.0,0.0,1.0,0.0,0.0,0.0,1.0,0.0861912597656,-1.45567460937,10.4004120117,1.0,0.0,0.0,0.0,1.0,0.0,0.0,0.0,1.0
1463935090086881684,297,1463935090056408586,,1.05386090279,-3.92222952843,-168.682815552,0.00143499998376,1.0,0.0,0.0,0.0,1.0,0.0,0.0,0.0,1.0,11.0365858078,-4.02439022064,-18.475610733,1.0,0.0,0.0,0.0,1.0,0.0,0.0,0.0,1.0,0.0335188255255,-2.3415290775,10.4866032715,1.0,0.0,0.0,0.0,1.0,0.0,0.0,0.0,1.0
1463935090254113678,298,1463935090078623803,,0.912571907043,-3.75245761871,-169.122390747,0.00130300002638,1.0,0.0,0.0,0.0,1.0,0.0,0.0,0.0,1.0,14.9390249252,-2.31707310677,-20.975610733,1.0,0.0,0.0,0.0,1.0,0.0,0.0,0.0,1.0,0.244208569336,-2.26491477051,9.97424411621,1.0,0.0,0.0,0.0,1.0,0.0,0.0,0.0,1.0
1463935090254153521,299,1463935090100044389,,0.81592208147,-3.50889062881,-169.611099243,0.00210699997842,1.0,0.0,0.0,0.0,1.0,0.0,0.0,0.0,1.0,17.0121955872,3.35365867615,-20.6707324982,1.0,0.0,0.0,0.0,1.0,0.0,0.0,0.0,1.0,0.804451757813,-1.94409174805,9.69651672363,1.0,0.0,0.0,0.0,1.0,0.0,0.0,0.0,1.0
1463935090254230448,300,1463935090121624088,,0.861333250999,-3.23467874527,-170.034469604,0.00133600004483,1.0,0.0,0.0,0.0,1.0,0.0,0.0,0.0,1.0,16.7682933807,13.1097564697,-17.3780498505,1.0,0.0,0.0,0.0,1.0,0.0,0.0,0.0,1.0,0.823605371094,-1.60890351563,9.43315395649,1.0,0.0,0.0,0.0,1.0,0.0,0.0,0.0,1.0
1463935090254271125,301,1463935090142039990,,1.09244179726,-2.9356982708,-170.396575928,0.00128900003619,1.0,0.0,0.0,0.0,1.0,0.0,0.0,0.0,1.0,14.2073173523,20.0,-14.5731706619,1.0,0.0,0.0,0.0,1.0,0.0,0.0,0.0,1.0,0.61770402832,-0.837970581055,8.86812294922,1.0,0.0,0.0,0.0,1.0,0.0,0.0,0.0,1.0
1463935090254308989,302,1463935090164382499,,1.49205434322,-2.64934873581,-170.756347656,0.00293800001964,1.0,0.0,0.0,0.0,1.0,0.0,0.0,0.0,1.0,6.95121955872,23.0487823486,-12.1951217651,1.0,0.0,0.0,0.0,1.0,0.0,0.0,0.0,1.0,0.46447512207,-0.507570751953,8.52335849468,1.0,0.0,0.0,0.0,1.0,0.0,0.0,0.0,1.0
1463935090254345552,303,1463935090184721683,,1.90943586826,-2.54606223106,-171.020370483,0.00129799998831,1.0,0.0,0.0,0.0,1.0,0.0,0.0,0.0,1.0,0.731707334518,25.0609760284,-9.63414573669,1.0,0.0,0.0,0.0,1.0,0.0,0.0,0.0,1.0,0.0861912597656,-0.526724328702,8.2264769043,1.0,0.0,0.0,0.0,1.0,0.0,0.0,0.0,1.0
1463935090254383468,304,1463935090207258253,,2.36180949211,-2.52922439575,-171.244247437,0.00129299995024,1.0,0.0,0.0,0.0,1.0,0.0,0.0,0.0,1.0,-7.13414621353,22.9268302917,-8.65853691101,1.0,0.0,0.0,0.0,1.0,0.0,0.0,0.0,1.0,-0.119710083008,-0.0335188255255,7.95353791504,1.0,0.0,0.0,0.0,1.0,0.0,0.0,0.0,1.0
1463935090639190261,305,1463935090226579212,,2.75497031212,-2.65635514259,-171.451843262,0.00129799998831,1.0,0.0,0.0,0.0,1.0,0.0,0.0,0.0,1.0,-16.8902435303,16.9512195587,-8.59756088257,1.0,0.0,0.0,0.0,1.0,0.0,0.0,0.0,1.0,-0.191536132812,0.0718260498047,8.10197841797,1.0,0.0,0.0,0.0,1.0,0.0,0.0,0.0,1.0
1463935090646377834,306,1463935090248224432,,3.03352355957,-3.03218841553,-171.65272522,0.00128099997528,1.0,0.0,0.0,0.0,1.0,0.0,0.0,0.0,1.0,-25.3048782349,11.5853662491,-7.50000047684,1.0,0.0,0.0,0.0,1.0,0.0,0.0,0.0,1.0,-0.474051928711,-0.478840332031,8.50899328472,1.0,0.0,0.0,0.0,1.0,0.0,0.0,0.0,1.0
1463935090653608949,307,1463935090269606424,,3.17601180077,-3.5995516777,-171.839691162,0.00116099999286,1.0,0.0,0.0,0.0,1.0,0.0,0.0,0.0,1.0,-29.5121974945,3.23170733452,-7.43902492523,1.0,0.0,0.0,0.0,1.0,0.0,0.0,0.0,1.0,-0.512359155273,-0.948103857422,9.20809958496,1.0,0.0,0.0,0.0,1.0,0.0,0.0,0.0,1.0
1463935090657269142,308,1463935090290694667,,3.15831184387,-4.23681020737,-171.993591309,0.00117299996782,1.0,0.0,0.0,0.0,1.0,0.0,0.0,0.0,1.0,-32.8048782349,-3.10975623131,-5.54878091812,1.0,0.0,0.0,0.0,1.0,0.0,0.0,0.0,1.0,-0.383072265625,-1.00556469727,9.83538041992,1.0,0.0,0.0,0.0,1.0,0.0,0.0,0.0,1.0
1463935090657631848,309,1463935090311340048,,3.02708292007,-4.92163944244,-172.083908081,0.0014459999511,1.0,0.0,0.0,0.0,1.0,0.0,0.0,0.0,1.0,-36.7073173523,-7.25609779358,-2.98780488968,1.0,0.0,0.0,0.0,1.0,0.0,0.0,0.0,1.0,-0.488417138672,-1.0534486574,10.1370498291,1.0,0.0,0.0,0.0,1.0,0.0,0.0,0.0,1.0
1463935090657919295,310,1463935090331765846,,2.81434059143,-5.6612610817,-172.118988037,0.0016459999606,1.0,0.0,0.0,0.0,1.0,0.0,0.0,0.0,1.0,-40.4268302917,-9.26829242706,-0.792682945728,1.0,0.0,0.0,0.0,1.0,0.0,0.0,0.0,1.0,-0.0335188255255,-1.06781401349,10.6446205811,1.0,0.0,0.0,0.0,1.0,0.0,0.0,0.0,1.0
1463935090658196169,311,1463935090353062473,,2.5717689991,-6.4958896637,-172.115997314,0.00129000004381,1.0,0.0,0.0,0.0,1.0,0.0,0.0,0.0,1.0,-43.4756126404,-8.5365858078,0.304878056049,1.0,0.0,0.0,0.0,1.0,0.0,0.0,0.0,1.0,-0.383072265625,-1.22583125,10.8313683105,1.0,0.0,0.0,0.0,1.0,0.0,0.0,0.0,1.0
1463935090658630855,312,1463935090373641188,,2.33834433556,-7.34300661087,-172.100158691,0.00136100000236,1.0,0.0,0.0,0.0,1.0,0.0,0.0,0.0,1.0,-46.0365867615,-10.1829271317,0.0609756112099,1.0,0.0,0.0,0.0,1.0,0.0,0.0,0.0,1.0,-0.0861912597656,-1.22583125,10.9079827637,1.0,0.0,0.0,0.0,1.0,0.0,0.0,0.0,1.0
1463935090666145041,313,1463935090395119689,,2.06041789055,-8.27111530304,-172.0806427,0.00145400001202,1.0,0.0,0.0,0.0,1.0,0.0,0.0,0.0,1.0,-47.8048782349,-7.13414621353,0.609756112099,1.0,0.0,0.0,0.0,1.0,0.0,0.0,0.0,1.0,0.656011254883,-1.65199914551,11.3533042725,1.0,0.0,0.0,0.0,1.0,0.0,0.0,0.0,1.0
1463935090667014360,314,1463935090416493817,,1.90491902828,-9.22814846039,-172.074371338,0.00148500001524,1.0,0.0,0.0,0.0,1.0,0.0,0.0,0.0,1.0,-44.817073822,-2.43902444839,-0.12195122242,1.0,0.0,0.0,0.0,1.0,0.0,0.0,0.0,1.0,-0.0335188255255,-2.7102362793,11.4538607422,1.0,0.0,0.0,0.0,1.0,0.0,0.0,0.0,1.0
1463935090667066808,315,1463935090438161485,,1.80857753754,-10.1361598969,-172.120986938,0.00126699998509,1.0,0.0,0.0,0.0,1.0,0.0,0.0,0.0,1.0,-32.3780517578,-4.39024400711,-3.47560977936,1.0,0.0,0.0,0.0,1.0,0.0,0.0,0.0,1.0,-0.0909796630859,-3.96958635254,11.4107651123,1.0,0.0,0.0,0.0,1.0,0.0,0.0,0.0,1.0
1463935090667360557,316,1463935090459219103,,1.66660153866,-10.7624378204,-172.218597412,0.00144000002183,1.0,0.0,0.0,0.0,1.0,0.0,0.0,0.0,1.0,-16.0365848541,-2.37804889679,-4.20731735229,1.0,0.0,0.0,0.0,1.0,0.0,0.0,0.0,1.0,0.339976635742,-3.91691391602,11.7938373779,1.0,0.0,0.0,0.0,1.0,0.0,0.0,0.0,1.0
1463935090667687378,317,1463935090480230784,,1.60969042778,-10.973862648,-172.297927856,0.00131800002418,1.0,0.0,0.0,0.0,1.0,0.0,0.0,0.0,1.0,-6.40243911743,5.0,-1.52439022064,1.0,0.0,0.0,0.0,1.0,0.0,0.0,0.0,1.0,0.325611425781,-2.38462499965,11.7986257812,1.0,0.0,0.0,0.0,1.0,0.0,0.0,0.0,1.0
1463935090667958054,318,1463935090501648297,,1.72450149059,-10.9770259857,-172.353164673,0.00923299975693,1.0,0.0,0.0,0.0,1.0,0.0,0.0,0.0,1.0,-4.32926845551,6.64634132385,-0.548780500889,1.0,0.0,0.0,0.0,1.0,0.0,0.0,0.0,1.0,-0.478840332031,-1.80043964844,11.2048637695,1.0,0.0,0.0,0.0,1.0,0.0,0.0,0.0,1.0
1463935090675621511,319,1463935090522254042,,1.85147082806,-10.978392601,-172.390426636,0.00145099998917,1.0,0.0,0.0,0.0,1.0,0.0,0.0,0.0,1.0,-0.975609779358,0.12195122242,0.0,1.0,0.0,0.0,0.0,1.0,0.0,0.0,0.0,1.0,-1.17794714373,-2.79163913574,10.9989624268,1.0,0.0,0.0,0.0,1.0,0.0,0.0,0.0,1.0
1463935090675960937,320,1463935090542581819,,1.81830966473,-10.9347829819,-172.368911743,0.00157299998682,1.0,0.0,0.0,0.0,1.0,0.0,0.0,0.0,1.0,8.10975551605,-9.69512176514,2.37804889679,1.0,0.0,0.0,0.0,1.0,0.0,0.0,0.0,1.0,-0.876277807617,-3.21780703125,10.8840407471,1.0,0.0,0.0,0.0,1.0,0.0,0.0,0.0,1.0
1463935090676220936,321,1463935090563477251,,1.63191854954,-10.7066831589,-172.211044312,0.00224200007506,1.0,0.0,0.0,0.0,1.0,0.0,0.0,0.0,1.0,16.2804889679,-11.4634151459,10.7317075729,1.0,0.0,0.0,0.0,1.0,0.0,0.0,0.0,1.0,-0.191536132812,-3.064578125,10.9510783936,1.0,0.0,0.0,0.0,1.0,0.0,0.0,0.0,1.0
1463935090676478695,322,1463935090584043100,,1.44330072403,-10.2914981842,-171.880630493,0.00604500016198,1.0,0.0,0.0,0.0,1.0,0.0,0.0,0.0,1.0,22.7439041138,-9.5731716156,17.9268302917,1.0,0.0,0.0,0.0,1.0,0.0,0.0,0.0,1.0,0.263362164351,-2.60489140625,10.5632177246,1.0,0.0,0.0,0.0,1.0,0.0,0.0,0.0,1.0
1463935090676741350,323,1463935090604597908,,1.35712838173,-9.77483654022,-171.430679321,0.00129100005142,1.0,0.0,0.0,0.0,1.0,0.0,0.0,0.0,1.0,25.3048782349,-2.98780488968,24.8780498505,1.0,0.0,0.0,0.0,1.0,0.0,0.0,0.0,1.0,0.287304199219,-2.31279880371,9.84016882324,1.0,0.0,0.0,0.0,1.0,0.0,0.0,0.0,1.0
1463935090677003588,324,1463935090625611464,,1.38426601887,-9.19481372833,-170.882064819,0.00123199995141,1.0,0.0,0.0,0.0,1.0,0.0,0.0,0.0,1.0,27.5609760284,1.95121955872,28.475610733,1.0,0.0,0.0,0.0,1.0,0.0,0.0,0.0,1.0,0.215478149414,-2.00155258789,9.55286520855,1.0,0.0,0.0,0.0,1.0,0.0,0.0,0.0,1.0
1463935090677050672,325,1463935090646555646,,1.50088453293,-8.52852058411,-170.296783447,0.00128900003619,1.0,0.0,0.0,0.0,1.0,0.0,0.0,0.0,1.0,25.0,3.23170733452,29.6341457367,1.0,0.0,0.0,0.0,1.0,0.0,0.0,0.0,1.0,0.0191536132812,-0.890643017578,9.14106193848,1.0,0.0,0.0,0.0,1.0,0.0,0.0,0.0,1.0
1463935091130548108,326,1463935090667811649,,1.62088990211,-7.87806653976,-169.697631836,0.00121899996884,1.0,0.0,0.0,0.0,1.0,0.0,0.0,0.0,1.0,15.6707315445,3.23170733452,29.2073173523,1.0,0.0,0.0,0.0,1.0,0.0,0.0,0.0,1.0,0.0718260498047,-0.0143652099609,8.65264538433,1.0,0.0,0.0,0.0,1.0,0.0,0.0,0.0,1.0
1463935091130602014,327,1463935090688881350,,1.72655940056,-7.43188238144,-169.118148804,0.00130799994804,1.0,0.0,0.0,0.0,1.0,0.0,0.0,0.0,1.0,2.98780488968,2.86585378647,27.4390258789,1.0,0.0,0.0,0.0,1.0,0.0,0.0,0.0,1.0,-0.15322890625,-0.0526724365234,8.8154505127,1.0,0.0,0.0,0.0,1.0,0.0,0.0,0.0,1.0
1463935091130659097,328,1463935090710744590,,1.83465063572,-7.2794084549,-168.553741455,0.00118200003635,1.0,0.0,0.0,0.0,1.0,0.0,0.0,0.0,1.0,-8.35365867615,0.792682945728,26.158536911,1.0,0.0,0.0,0.0,1.0,0.0,0.0,0.0,1.0,-0.335188232422,-0.330399829102,9.40442353657,1.0,0.0,0.0,0.0,1.0,0.0,0.0,0.0,1.0
1463935091130830502,329,1463935090731564918,,1.86667108536,-7.37339401245,-168.039825439,0.00117299996782,1.0,0.0,0.0,0.0,1.0,0.0,0.0,0.0,1.0,-16.4024391174,-0.914634168148,25.182926178,1.0,0.0,0.0,0.0,1.0,0.0,0.0,0.0,1.0,0.0191536132812,-0.77093293457,9.71567033691,1.0,0.0,0.0,0.0,1.0,0.0,0.0,0.0,1.0
1463935091130886492,330,1463935090754114769,,1.88342249393,-7.67909049988,-167.51940918,0.00246599991806,1.0,0.0,0.0,0.0,1.0,0.0,0.0,0.0,1.0,-21.8902435303,-2.01219511032,23.9024391174,1.0,0.0,0.0,0.0,1.0,0.0,0.0,0.0,1.0,-0.15801730957,-1.22104284668,9.37090471333,1.0,0.0,0.0,0.0,1.0,0.0,0.0,0.0,1.0
1463935091130945398,331,1463935090774485620,,1.85882008076,-8.09456253052,-167.044265747,0.00116900005378,1.0,0.0,0.0,0.0,1.0,0.0,0.0,0.0,1.0,-23.3536586761,-1.40243899822,23.1707324982,1.0,0.0,0.0,0.0,1.0,0.0,0.0,0.0,1.0,0.210689746094,-1.80043964844,9.7348239502,1.0,0.0,0.0,0.0,1.0,0.0,0.0,0.0,1.0
1463935091130981127,332,1463935090801668055,,1.85770213604,-8.64949035645,-166.456802368,0.00927400030196,1.0,0.0,0.0,0.0,1.0,0.0,0.0,0.0,1.0,-21.8292694092,0.975609779358,22.3780498505,1.0,0.0,0.0,0.0,1.0,0.0,0.0,0.0,1.0,0.248996972656,-1.88184250488,10.4099888184,1.0,0.0,0.0,0.0,1.0,0.0,0.0,0.0,1.0
1463935091131589770,333,1463935090820891932,,1.88997757435,-9.03164768219,-166.039642334,0.00199800007977,1.0,0.0,0.0,0.0,1.0,0.0,0.0,0.0,1.0,-21.4024391174,-2.19512200356,19.2682914734,1.0,0.0,0.0,0.0,1.0,0.0,0.0,0.0,1.0,-0.402225878906,-1.75734401855,10.2711251221,1.0,0.0,0.0,0.0,1.0,0.0,0.0,0.0,1.0
1463935091131773259,334,1463935090842476006,,1.8189958334,-9.40344715118,-165.68397522,0.00223700003698,1.0,0.0,0.0,0.0,1.0,0.0,0.0,0.0,1.0,-18.5975627899,-16.0365848541,13.1097564697,1.0,0.0,0.0,0.0,1.0,0.0,0.0,0.0,1.0,-1.06781401349,-2.22181914063,10.3285859619,1.0,0.0,0.0,0.0,1.0,0.0,0.0,0.0,1.0
1463935091131992320,335,1463935090863092376,,1.39867889881,-9.74993038177,-165.407867432,0.00132000003941,1.0,0.0,0.0,0.0,1.0,0.0,0.0,0.0,1.0,-12.6219520569,-28.9634151459,7.07317113876,1.0,0.0,0.0,0.0,1.0,0.0,0.0,0.0,1.0,-0.560243188477,-2.69587106934,10.6637741943,1.0,0.0,0.0,0.0,1.0,0.0,0.0,0.0,1.0
1463935091132471797,336,1463935090884558326,,0.734102725983,-9.94925689697,-165.19519043,0.00117699999828,1.0,0.0,0.0,0.0,1.0,0.0,0.0,0.0,1.0,-5.54878091812,-34.0243911743,3.90243911743,1.0,0.0,0.0,0.0,1.0,0.0,0.0,0.0,1.0,0.124498486328,-2.57616098633,10.898405957,1.0,0.0,0.0,0.0,1.0,0.0,0.0,0.0,1.0
1463935091132715807,337,1463935090905071363,,0.0336137115955,-9.9867181778,-165.010467529,0.00128299999051,1.0,0.0,0.0,0.0,1.0,0.0,0.0,0.0,1.0,0.18292683363,-30.4268321991,4.32926845551,1.0,0.0,0.0,0.0,1.0,0.0,0.0,0.0,1.0,0.598550451572,-2.45645090332,10.8888291504,1.0,0.0,0.0,0.0,1.0,0.0,0.0,0.0,1.0
1463935091133056066,338,1463935090926593198,,-0.590692877769,-9.91641330719,-164.821060181,0.00126900000032,1.0,0.0,0.0,0.0,1.0,0.0,0.0,0.0,1.0,4.45121955872,-23.5975627899,5.48780488968,1.0,0.0,0.0,0.0,1.0,0.0,0.0,0.0,1.0,0.746990917969,-2.33195227086,10.8409451172,1.0,0.0,0.0,0.0,1.0,0.0,0.0,0.0,1.0
1463935091133497158,339,1463935090947115246,,-1.0268945694,-9.7761592865,-164.644500732,0.001200000057,1.0,0.0,0.0,0.0,1.0,0.0,0.0,0.0,1.0,9.32926845551,-17.4390239716,5.97560977936,1.0,0.0,0.0,0.0,1.0,0.0,0.0,0.0,1.0,0.579396801758,-2.8060043457,10.6685625977,1.0,0.0,0.0,0.0,1.0,0.0,0.0,0.0,1.0
1463935091133552157,340,1463935090968312291,,-1.36268770695,-9.55018043518,-164.489227295,0.00120599998627,1.0,0.0,0.0,0.0,1.0,0.0,0.0,0.0,1.0,20.0,-14.6341466904,4.32926845551,1.0,0.0,0.0,0.0,1.0,0.0,0.0,0.0,1.0,0.373495458984,-3.39976635742,10.7356002441,1.0,0.0,0.0,0.0,1.0,0.0,0.0,0.0,1.0
1463935091133859031,341,1463935090988918765,,-1.65240240097,-9.07564544678,-164.405914307,0.00132299994584,1.0,0.0,0.0,0.0,1.0,0.0,0.0,0.0,1.0,27.317073822,-11.0365858078,1.09756100178,1.0,0.0,0.0,0.0,1.0,0.0,0.0,0.0,1.0,0.526724328702,-1.93930334473,10.5871597412,1.0,0.0,0.0,0.0,1.0,0.0,0.0,0.0,1.0
1463935091133898718,342,1463935091010562683,,-1.86972939968,-8.37277698517,-164.414993286,0.00129799998831,1.0,0.0,0.0,0.0,1.0,0.0,0.0,0.0,1.0,23.3536586761,-12.9268293381,-3.65853667259,1.0,0.0,0.0,0.0,1.0,0.0,0.0,0.0,1.0,-0.234631762695,-0.541089611728,10.0652237793,1.0,0.0,0.0,0.0,1.0,0.0,0.0,0.0,1.0
1463935091134132624,343,1463935091031459417,,-2.12733149529,-7.83267736435,-164.515945435,0.00220900005661,1.0,0.0,0.0,0.0,1.0,0.0,0.0,0.0,1.0,17.6829280853,-16.5243911743,-7.98780536652,1.0,0.0,0.0,0.0,1.0,0.0,0.0,0.0,1.0,-0.541089611728,-1.52750065918,10.2088758789,1.0,0.0,0.0,0.0,1.0,0.0,0.0,0.0,1.0
1463935091134174551,344,1463935091052137974,,-2.45297622681,-7.43726634979,-164.652740479,0.00133600004483,1.0,0.0,0.0,0.0,1.0,0.0,0.0,0.0,1.0,19.0243911743,-19.0853652954,-8.17073154449,1.0,0.0,0.0,0.0,1.0,0.0,0.0,0.0,1.0,-0.0861912597656,-2.11647412145,10.3046439453,1.0,0.0,0.0,0.0,1.0,0.0,0.0,0.0,1.0
1463935091134225123,345,1463935091073456841,,-2.75446867943,-7.02694368362,-164.730224609,0.00107500003651,1.0,0.0,0.0,0.0,1.0,0.0,0.0,0.0,1.0,22.4390239716,-15.3048791885,-2.31707310677,1.0,0.0,0.0,0.0,1.0,0.0,0.0,0.0,1.0,0.0191536132812,-2.28406838379,10.5105452881,1.0,0.0,0.0,0.0,1.0,0.0,0.0,0.0,1.0
1463935091134277102,346,1463935091094355606,,-2.96361923218,-6.55917358398,-164.684707642,0.00106399995275,1.0,0.0,0.0,0.0,1.0,0.0,0.0,0.0,1.0,24.3902435303,-9.39024448395,4.63414621353,1.0,0.0,0.0,0.0,1.0,0.0,0.0,0.0,1.0,0.603338854892,-1.82917006836,9.77791958008,1.0,0.0,0.0,0.0,1.0,0.0,0.0,0.0,1.0
1463935091481484420,347,1463935091115377391,,-2.99565434456,-6.04434347153,-164.450180054,0.00110600003973,1.0,0.0,0.0,0.0,1.0,0.0,0.0,0.0,1.0,20.4878044128,0.18292683363,16.2804889679,1.0,0.0,0.0,0.0,1.0,0.0,0.0,0.0,1.0,0.569819995117,-1.15879360352,9.87368764648,1.0,0.0,0.0,0.0,1.0,0.0,0.0,0.0,1.0
1463935091481806346,348,1463935091136794071,,-2.8060696125,-5.59900426865,-163.979400635,0.00104999996256,1.0,0.0,0.0,0.0,1.0,0.0,0.0,0.0,1.0,15.548781395,8.90243911743,29.1463413239,1.0,0.0,0.0,0.0,1.0,0.0,0.0,0.0,1.0,0.325611425781,-0.536301208408,9.50019277202,1.0,0.0,0.0,0.0,1.0,0.0,0.0,0.0,1.0
1463935091482277489,349,1463935091158172729,,-2.45843648911,-5.25879478455,-163.282196045,0.00128199998289,1.0,0.0,0.0,0.0,1.0,0.0,0.0,0.0,1.0,8.10975551605,14.0243902206,37.9878044128,1.0,0.0,0.0,0.0,1.0,0.0,0.0,0.0,1.0,0.292092584273,-0.148440512063,8.84896933594,1.0,0.0,0.0,0.0,1.0,0.0,0.0,0.0,1.0
1463935091482332750,350,1463935091180882997,,-1.99824416637,-5.07137441635,-162.405227661,0.00275800004601,1.0,0.0,0.0,0.0,1.0,0.0,0.0,0.0,1.0,-3.04878044128,18.1097564697,45.0,1.0,0.0,0.0,0.0,1.0,0.0,0.0,0.0,1.0,0.167594116211,0.0191536132812,8.85854614258,1.0,0.0,0.0,0.0,1.0,0.0,0.0,0.0,1.0
1463935091482370510,351,1463935091201891657,,-1.48810565472,-5.08149337769,-161.445419312,0.00398099981248,1.0,0.0,0.0,0.0,1.0,0.0,0.0,0.0,1.0,-11.9512195587,15.4268302917,46.5853691101,1.0,0.0,0.0,0.0,1.0,0.0,0.0,0.0,1.0,-0.330399829102,0.105344873047,8.58081933452,1.0,0.0,0.0,0.0,1.0,0.0,0.0,0.0,1.0
1463935091482411343,352,1463935091222997035,,-1.10000681877,-5.2554769516,-160.535461426,0.00212500011548,1.0,0.0,0.0,0.0,1.0,0.0,0.0,0.0,1.0,-20.2439022064,8.84146404266,46.5243911743,1.0,0.0,0.0,0.0,1.0,0.0,0.0,0.0,1.0,-0.359130249023,0.0909796630859,8.65264538433,1.0,0.0,0.0,0.0,1.0,0.0,0.0,0.0,1.0
1463935091482456812,353,1463935091245219388,,-0.808797001839,-5.61512136459,-159.585952759,0.00110200000927,1.0,0.0,0.0,0.0,1.0,0.0,0.0,0.0,1.0,-25.4268302917,2.37804889679,45.7317085266,1.0,0.0,0.0,0.0,1.0,0.0,0.0,0.0,1.0,-0.411802685547,-0.665588061523,8.82023891602,1.0,0.0,0.0,0.0,1.0,0.0,0.0,0.0,1.0
1463935091482663894,354,1463935091264498733,,-0.700205385685,-6.13143157959,-158.65196228,0.00104400003329,1.0,0.0,0.0,0.0,1.0,0.0,0.0,0.0,1.0,-25.975610733,-5.67073154449,42.6219520569,1.0,0.0,0.0,0.0,1.0,0.0,0.0,0.0,1.0,-0.282515795898,-1.40779057617,9.17458076172,1.0,0.0,0.0,0.0,1.0,0.0,0.0,0.0,1.0
1463935091482705560,355,1463935091286069005,,-0.732542157173,-6.67075920105,-157.7449646,0.00118100002874,1.0,0.0,0.0,0.0,1.0,0.0,0.0,0.0,1.0,-22.7439041138,-12.8658542633,41.2804908752,1.0,0.0,0.0,0.0,1.0,0.0,0.0,0.0,1.0,-0.292092584273,-1.66157595215,9.62469125835,1.0,0.0,0.0,0.0,1.0,0.0,0.0,0.0,1.0
1463935091483183944,356,1463935091307867558,,-0.885345339775,-7.11063528061,-156.838256836,0.00130300002638,1.0,0.0,0.0,0.0,1.0,0.0,0.0,0.0,1.0,-19.7560977936,-12.3780488968,43.5975608826,1.0,0.0,0.0,0.0,1.0,0.0,0.0,0.0,1.0,0.138863696289,-1.8866309082,10.3716815918,1.0,0.0,0.0,0.0,1.0,0.0,0.0,0.0,1.0
1463935091483226444,357,1463935091329249810,,-0.976228535175,-7.5029501915,-155.877304077,0.00113099999726,1.0,0.0,0.0,0.0,1.0,0.0,0.0,0.0,1.0,-16.2804889679,-11.7682924271,45.9756088257,1.0,0.0,0.0,0.0,1.0,0.0,0.0,0.0,1.0,-0.296881024126,-2.11647412145,10.7882726807,1.0,0.0,0.0,0.0,1.0,0.0,0.0,0.0,1.0
1463935091485142738,358,1463935091348670092,,-1.05399262905,-7.80871582031,-154.883422852,0.00117299996782,1.0,0.0,0.0,0.0,1.0,0.0,0.0,0.0,1.0,-12.2560977936,-12.1341466904,47.9268302917,1.0,0.0,0.0,0.0,1.0,0.0,0.0,0.0,1.0,-0.0478840332031,-2.00634099121,10.9941740234,1.0,0.0,0.0,0.0,1.0,0.0,0.0,0.0,1.0
1463935091485516903,359,1463935091369376618,,-1.12116885185,-8.02657413483,-153.859649658,0.00120900000911,1.0,0.0,0.0,0.0,1.0,0.0,0.0,0.0,1.0,-10.3048782349,-11.1585359573,49.1463432312,1.0,0.0,0.0,0.0,1.0,0.0,0.0,0.0,1.0,-0.124498486328,-1.85311208496,10.9558667969,1.0,0.0,0.0,0.0,1.0,0.0,0.0,0.0,1.0
1463935091485770547,360,1463935091390378299,,-1.16269159317,-8.21176433563,-152.802719116,0.00118999998085,1.0,0.0,0.0,0.0,1.0,0.0,0.0,0.0,1.0,-8.10975551605,-9.63414573669,50.4268302917,1.0,0.0,0.0,0.0,1.0,0.0,0.0,0.0,1.0,0.0814028564453,-2.19787712402,11.0995188965,1.0,0.0,0.0,0.0,1.0,0.0,0.0,0.0,1.0
1463935091486118254,361,1463935091411120658,,-1.17100203037,-8.35335445404,-151.757247925,0.00115799997002,1.0,0.0,0.0,0.0,1.0,0.0,0.0,0.0,1.0,-4.63414621353,-6.21951246262,51.1585388184,1.0,0.0,0.0,0.0,1.0,0.0,0.0,0.0,1.0,0.248996972656,-2.35589428746,11.2288057861,1.0,0.0,0.0,0.0,1.0,0.0,0.0,0.0,1.0
1463935091486159764,362,1463935091431611768,,-1.10972070694,-8.43922805786,-150.698867798,0.00136700004805,1.0,0.0,0.0,0.0,1.0,0.0,0.0,0.0,1.0,1.76829278469,-7.43902492523,49.6951217651,1.0,0.0,0.0,0.0,1.0,0.0,0.0,0.0,1.0,-0.517147558594,-3.06936652832,10.8648871338,1.0,0.0,0.0,0.0,1.0,0.0,0.0,0.0,1.0
1463935091486419086,363,1463935091452174701,,-1.10024118423,-8.39953422546,-149.698226929,0.00122099998407,1.0,0.0,0.0,0.0,1.0,0.0,0.0,0.0,1.0,12.0731716156,-13.4146347046,47.0731697083,1.0,0.0,0.0,0.0,1.0,0.0,0.0,0.0,1.0,-0.531512805087,-3.20344182129,11.0755768799,1.0,0.0,0.0,0.0,1.0,0.0,0.0,0.0,1.0
1463935091614779944,364,1463935091473029768,,-1.22135698795,-8.12014389038,-148.674880981,0.00131600000896,1.0,0.0,0.0,0.0,1.0,0.0,0.0,0.0,1.0,18.7804889679,-13.5365858078,48.8414649963,1.0,0.0,0.0,0.0,1.0,0.0,0.0,0.0,1.0,-0.0430956298828,-2.08774370153,11.4155535156,1.0,0.0,0.0,0.0,1.0,0.0,0.0,0.0,1.0
1463935091614830464,365,1463935091494086918,,-1.3167078495,-7.68780851364,-147.591934204,0.0012150000548,1.0,0.0,0.0,0.0,1.0,0.0,0.0,0.0,1.0,16.4024391174,-14.5121955872,51.7073173523,1.0,0.0,0.0,0.0,1.0,0.0,0.0,0.0,1.0,-0.316034619141,-1.19231249982,10.9558667969,1.0,0.0,0.0,0.0,1.0,0.0,0.0,0.0,1.0
1463935091615143692,366,1463935091515502816,,-1.42332470417,-7.3422870636,-146.432983398,0.00115499994718,1.0,0.0,0.0,0.0,1.0,0.0,0.0,0.0,1.0,14.2682924271,-18.0487823486,54.4512214661,1.0,0.0,0.0,0.0,1.0,0.0,0.0,0.0,1.0,-0.847547387695,-2.01591779785,10.3716815918,1.0,0.0,0.0,0.0,1.0,0.0,0.0,0.0,1.0
1463935091615540513,367,1463935091536283456,,-1.59495437145,-7.0892572403,-145.241119385,0.00124100001995,1.0,0.0,0.0,0.0,1.0,0.0,0.0,0.0,1.0,18.1707305908,-28.8414649963,56.0975608826,1.0,0.0,0.0,0.0,1.0,0.0,0.0,0.0,1.0,-1.35511813965,-2.53785375977,9.86411083984,1.0,0.0,0.0,0.0,1.0,0.0,0.0,0.0,1.0
1463935091616023115,368,1463935091557519668,,-2.01372337341,-6.77414703369,-143.921585083,0.0012529999949,1.0,0.0,0.0,0.0,1.0,0.0,0.0,0.0,1.0,22.0731716156,-35.7317085266,61.3414611816,1.0,0.0,0.0,0.0,1.0,0.0,0.0,0.0,1.0,-0.344765039063,-2.33674067418,9.79228479004,1.0,0.0,0.0,0.0,1.0,0.0,0.0,0.0,1.0
1463935091616878633,369,1463935091578979836,,-2.50732064247,-6.37596321106,-142.422729492,0.00129100005142,1.0,0.0,0.0,0.0,1.0,0.0,0.0,0.0,1.0,23.4146347046,-30.7317066193,69.8780517578,1.0,0.0,0.0,0.0,1.0,0.0,0.0,0.0,1.0,0.497993945312,-2.14041643031,10.1322614258,1.0,0.0,0.0,0.0,1.0,0.0,0.0,0.0,1.0
1463935091617188683,370,1463935091599345635,,-2.85715961456,-5.99349832535,-140.844436646,0.00121400004718,1.0,0.0,0.0,0.0,1.0,0.0,0.0,0.0,1.0,22.682926178,-23.9024391174,78.9024429321,1.0,0.0,0.0,0.0,1.0,0.0,0.0,0.0,1.0,0.210689746094,-1.80043964844,10.3094323486,1.0,0.0,0.0,0.0,1.0,0.0,0.0,0.0,1.0
1463935091725049993,371,1463935091619992630,,-3.05247998238,-5.64063119888,-139.078445435,0.00117099995259,1.0,0.0,0.0,0.0,1.0,0.0,0.0,0.0,1.0,19.2682914734,-17.1951217651,87.1951217651,1.0,0.0,0.0,0.0,1.0,0.0,0.0,0.0,1.0,0.167594116211,-1.63763393555,10.2423947021,1.0,0.0,0.0,0.0,1.0,0.0,0.0,0.0,1.0
1463935091725341294,372,1463935091640721708,,-3.1113448143,-5.38784360886,-137.207992554,0.0012009999482,1.0,0.0,0.0,0.0,1.0,0.0,0.0,0.0,1.0,16.5853652954,-11.4634151459,92.8658599854,1.0,0.0,0.0,0.0,1.0,0.0,0.0,0.0,1.0,-0.0287304199219,-1.64242233887,10.1466266357,1.0,0.0,0.0,0.0,1.0,0.0,0.0,0.0,1.0
1463935091725626345,373,1463935091663406819,,-3.09564733505,-5.14880466461,-135.251602173,0.00120399997104,1.0,0.0,0.0,0.0,1.0,0.0,0.0,0.0,1.0,13.1707324982,-10.2439022064,96.0975646973,1.0,0.0,0.0,0.0,1.0,0.0,0.0,0.0,1.0,0.272938989258,-0.847547387695,9.81622680664,1.0,0.0,0.0,0.0,1.0,0.0,0.0,0.0,1.0
1463935091725949937,374,1463935091681719345,,-3.07548141479,-4.97183704376,-133.251434326,0.00139099999797,1.0,0.0,0.0,0.0,1.0,0.0,0.0,0.0,1.0,4.75609779358,-8.35365867615,96.0365829468,1.0,0.0,0.0,0.0,1.0,0.0,0.0,0.0,1.0,0.268150604204,-0.536301208408,9.37569311665,1.0,0.0,0.0,0.0,1.0,0.0,0.0,0.0,1.0
1463935091749252858,375,1463935091708923083,,-3.01835918427,-5.01694869995,-130.759033203,0.0077680000104,1.0,0.0,0.0,0.0,1.0,0.0,0.0,0.0,1.0,-2.56097555161,-8.35365867615,91.4024429321,1.0,0.0,0.0,0.0,1.0,0.0,0.0,0.0,1.0,-0.220266552734,-1.12527478027,9.36611631001,1.0,0.0,0.0,0.0,1.0,0.0,0.0,0.0,1.0
1463935091749320983,376,1463935091729667838,,-2.9829761982,-5.18377637863,-128.924224854,0.00121300003957,1.0,0.0,0.0,0.0,1.0,0.0,0.0,0.0,1.0,-3.23170733452,-11.7682924271,85.4878082275,1.0,0.0,0.0,0.0,1.0,0.0,0.0,0.0,1.0,0.0143652099609,-1.50355864258,9.44751916645,1.0,0.0,0.0,0.0,1.0,0.0,0.0,0.0,1.0
1463935091755891372,377,1463935091749684107,,-3.05414485931,-5.35751104355,-127.193611145,0.0010969999712,1.0,0.0,0.0,0.0,1.0,0.0,0.0,0.0,1.0,-5.24390268326,-8.90243911743,79.3292694092,1.0,0.0,0.0,0.0,1.0,0.0,0.0,0.0,1.0,0.421379492187,-1.30723410645,9.27034882812,1.0,0.0,0.0,0.0,1.0,0.0,0.0,0.0,1.0
1463935091773746556,378,1463935091770529903,,-3.07067370415,-5.55473661423,-125.626373291,0.00125900004059,1.0,0.0,0.0,0.0,1.0,0.0,0.0,0.0,1.0,-6.0365858078,-9.20731735229,72.134147644,1.0,0.0,0.0,0.0,1.0,0.0,0.0,0.0,1.0,0.330399829102,-1.62805712891,9.2655604248,1.0,0.0,0.0,0.0,1.0,0.0,0.0,0.0,1.0
1463935091799291290,379,1463935091791756479,,-3.09458112717,-5.75437736511,-124.219940186,0.00215200008824,1.0,0.0,0.0,0.0,1.0,0.0,0.0,0.0,1.0,-4.02439022064,-12.1341466904,63.0487861633,1.0,0.0,0.0,0.0,1.0,0.0,0.0,0.0,1.0,-0.0909796630859,-1.75255561523,9.49061596538,1.0,0.0,0.0,0.0,1.0,0.0,0.0,0.0,1.0
1463935091822624680,380,1463935091813905499,,-3.21369218826,-5.92145586014,-122.864814758,0.00236600008793,1.0,0.0,0.0,0.0,1.0,0.0,0.0,0.0,1.0,-3.17073178291,-16.5243911743,55.182926178,1.0,0.0,0.0,0.0,1.0,0.0,0.0,0.0,1.0,-0.0143652099609,-1.67594116211,9.98382092285,1.0,0.0,0.0,0.0,1.0,0.0,0.0,0.0,1.0
1463935091854380326,381,1463935091834593431,,-3.42328882217,-6.05968618393,-121.752571106,0.00139600003604,1.0,0.0,0.0,0.0,1.0,0.0,0.0,0.0,1.0,0.0,-21.0365848541,50.0609779358,1.0,0.0,0.0,0.0,1.0,0.0,0.0,0.0,1.0,0.0143652099609,-2.27449157715,10.4674496582,1.0,0.0,0.0,0.0,1.0,0.0,0.0,0.0,1.0
1463935091884388687,382,1463935091855640528,,-3.708994627,-6.16041898727,-120.703201294,0.00119800004177,1.0,0.0,0.0,0.0,1.0,0.0,0.0,0.0,1.0,6.46341466904,-23.3536586761,47.0731697083,1.0,0.0,0.0,0.0,1.0,0.0,0.0,0.0,1.0,0.0718260498047,-2.93050283203,10.8600987305,1.0,0.0,0.0,0.0,1.0,0.0,0.0,0.0,1.0
1463935091884782904,383,1463935091875966848,,-4.02387237549,-6.12014770508,-119.707191467,0.00152499997057,1.0,0.0,0.0,0.0,1.0,0.0,0.0,0.0,1.0,13.9634151459,-23.9024391174,45.6707344055,1.0,0.0,0.0,0.0,1.0,0.0,0.0,0.0,1.0,0.076614453125,-3.03584770508,11.166556543,1.0,0.0,0.0,0.0,1.0,0.0,0.0,0.0,1.0
1463935091917463337,384,1463935091897252121,,-4.37865304947,-5.91957569122,-118.68447113,0.00217100000009,1.0,0.0,0.0,0.0,1.0,0.0,0.0,0.0,1.0,21.2195129395,-25.4268302917,45.4878082275,1.0,0.0,0.0,0.0,1.0,0.0,0.0,0.0,1.0,0.325611425781,-2.76769711914,11.2096521729,1.0,0.0,0.0,0.0,1.0,0.0,0.0,0.0,1.0
1463935091940582665,385,1463935091931665360,,-4.75705957413,-5.50964403152,-117.640327454,0.0187139995396,1.0,0.0,0.0,0.0,1.0,0.0,0.0,0.0,1.0,25.6097564697,-25.3048782349,44.6341438293,1.0,0.0,0.0,0.0,1.0,0.0,0.0,0.0,1.0,0.119710083008,-2.26012636719,10.7116582275,1.0,0.0,0.0,0.0,1.0,0.0,0.0,0.0,1.0
1463935091946404099,386,1463935091943720256,,-5.1954240799,-5.10782241821,-116.664718628,0.00721800001338,1.0,0.0,0.0,0.0,1.0,0.0,0.0,0.0,1.0,30.975610733,-30.5487804413,41.8292694092,1.0,0.0,0.0,0.0,1.0,0.0,0.0,0.0,1.0,0.134075302102,-3.19865341797,10.6063133545,1.0,0.0,0.0,0.0,1.0,0.0,0.0,0.0,1.0
1463935091989340478,387,1463935091967364426,,-5.73056602478,-4.55064153671,-115.732154846,0.0016309999628,1.0,0.0,0.0,0.0,1.0,0.0,0.0,0.0,1.0,39.6951217651,-27.3780498505,40.4268302917,1.0,0.0,0.0,0.0,1.0,0.0,0.0,0.0,1.0,1.00077629395,-2.66235224609,10.8600987305,1.0,0.0,0.0,0.0,1.0,0.0,0.0,0.0,1.0
1463935091991590364,388,1463935091989498915,,-6.09387636185,-3.58978104591,-114.637321472,0.0271390005946,1.0,0.0,0.0,0.0,1.0,0.0,0.0,0.0,1.0,37.3780517578,-19.6341457367,39.2073173523,1.0,0.0,0.0,0.0,1.0,0.0,0.0,0.0,1.0,0.445321508789,-1.10133276367,10.7978494873,1.0,0.0,0.0,0.0,1.0,0.0,0.0,0.0,1.0
1463935092048349861,389,1463935092010608251,,-6.35479068756,-2.92628574371,-113.838813782,0.0015490000369,1.0,0.0,0.0,0.0,1.0,0.0,0.0,0.0,1.0,30.0000019073,-19.2073173523,36.1585350037,1.0,0.0,0.0,0.0,1.0,0.0,0.0,0.0,1.0,0.0191536132812,-1.01514150391,10.8265799072,1.0,0.0,0.0,0.0,1.0,0.0,0.0,0.0,1.0
1463935092048965327,390,1463935092031471079,,-6.63308858871,-2.45382714272,-113.100463867,0.00198099995032,1.0,0.0,0.0,0.0,1.0,0.0,0.0,0.0,1.0,27.3780498505,-20.3658542633,33.1097564697,1.0,0.0,0.0,0.0,1.0,0.0,0.0,0.0,1.0,0.603338854892,-1.58496149902,10.539275708,1.0,0.0,0.0,0.0,1.0,0.0,0.0,0.0,1.0
1463935092066842646,391,1463935092052543228,,-6.87435626984,-2.04859733582,-112.37953949,0.00202600006014,1.0,0.0,0.0,0.0,1.0,0.0,0.0,0.0,1.0,25.2439041138,-13.7195129395,32.682926178,1.0,0.0,0.0,0.0,1.0,0.0,0.0,0.0,1.0,0.45968671875,-1.50355864258,10.0795889893,1.0,0.0,0.0,0.0,1.0,0.0,0.0,0.0,1.0
1463935092083165493,392,1463935092075233965,,-7.0033955574,-1.66269481182,-111.617462158,0.00281800003722,1.0,0.0,0.0,0.0,1.0,0.0,0.0,0.0,1.0,21.6463432312,-6.15853643417,34.0243911743,1.0,0.0,0.0,0.0,1.0,0.0,0.0,0.0,1.0,1.02950671387,-1.30723410645,9.62469125835,1.0,0.0,0.0,0.0,1.0,0.0,0.0,0.0,1.0
1463935092098694177,393,1463935092096136896,,-6.9539065361,-1.37776827812,-110.871406555,0.00171700003557,1.0,0.0,0.0,0.0,1.0,0.0,0.0,0.0,1.0,18.1097564697,3.29268312454,36.8292694092,1.0,0.0,0.0,0.0,1.0,0.0,0.0,0.0,1.0,0.77093293457,-0.804451757813,9.08838950195,1.0,0.0,0.0,0.0,1.0,0.0,0.0,0.0,1.0
1463935092119608098,394,1463935092117237900,,-6.74677848816,-1.16264724731,-110.065940857,0.0016080000205,1.0,0.0,0.0,0.0,1.0,0.0,0.0,0.0,1.0,12.1341466904,14.0243902206,38.3536567688,1.0,0.0,0.0,0.0,1.0,0.0,0.0,0.0,1.0,1.20188930646,-0.828393774414,9.04529387207,1.0,0.0,0.0,0.0,1.0,0.0,0.0,0.0,1.0
1463935092141455140,395,1463935092139014213,,-6.32360458374,-1.08436942101,-109.255523682,0.00146199995652,1.0,0.0,0.0,0.0,1.0,0.0,0.0,0.0,1.0,9.93902492523,22.1341457367,38.9024391174,1.0,0.0,0.0,0.0,1.0,0.0,0.0,0.0,1.0,0.622492431641,-1.08217922346,8.67658681641,1.0,0.0,0.0,0.0,1.0,0.0,0.0,0.0,1.0
1463935092162496612,396,1463935092160504381,,-5.76411771774,-0.9851308465,-108.416404724,0.00156300002709,1.0,0.0,0.0,0.0,1.0,0.0,0.0,0.0,1.0,4.39024400711,25.8536586761,39.0853652954,1.0,0.0,0.0,0.0,1.0,0.0,0.0,0.0,1.0,0.828393774414,-0.225054956055,8.03015236816,1.0,0.0,0.0,0.0,1.0,0.0,0.0,0.0,1.0
1463935092190486701,397,1463935092181996217,,-5.1068944931,-0.983392238617,-107.572296143,0.0017640000442,1.0,0.0,0.0,0.0,1.0,0.0,0.0,0.0,1.0,-5.0,29.6951236725,39.5731735229,1.0,0.0,0.0,0.0,1.0,0.0,0.0,0.0,1.0,0.469263525391,-0.0191536132812,7.81467421875,1.0,0.0,0.0,0.0,1.0,0.0,0.0,0.0,1.0
1463935092206399602,398,1463935092203990289,,-4.38893890381,-1.2342196703,-106.735374451,0.00273200008087,1.0,0.0,0.0,0.0,1.0,0.0,0.0,0.0,1.0,-10.3048782349,30.6707305908,38.7195129395,1.0,0.0,0.0,0.0,1.0,0.0,0.0,0.0,1.0,0.46447512207,-0.866701000977,8.03494077148,1.0,0.0,0.0,0.0,1.0,0.0,0.0,0.0,1.0
1463935092229166379,399,1463935092225276709,,-3.66567540169,-1.55722105503,-105.946174622,0.0015340000391,1.0,0.0,0.0,0.0,1.0,0.0,0.0,0.0,1.0,-10.7926826477,28.475610733,37.3780517578,1.0,0.0,0.0,0.0,1.0,0.0,0.0,0.0,1.0,0.450109912109,-1.01035310059,7.97269152832,1.0,0.0,0.0,0.0,1.0,0.0,0.0,0.0,1.0
1463935092248278485,400,1463935092245977505,,-3.01218152046,-1.87111771107,-105.210678101,0.0012529999949,1.0,0.0,0.0,0.0,1.0,0.0,0.0,0.0,1.0,-13.4146347046,28.3536586761,35.4268302917,1.0,0.0,0.0,0.0,1.0,0.0,0.0,0.0,1.0,0.253785375977,-0.92416184082,8.6239149644,1.0,0.0,0.0,0.0,1.0,0.0,0.0,0.0,1.0
1463935092269924747,401,1463935092267411945,,-2.35448908806,-2.2125351429,-104.540603638,0.00145199999679,1.0,0.0,0.0,0.0,1.0,0.0,0.0,0.0,1.0,-14.6341466904,24.3292694092,29.8780498505,1.0,0.0,0.0,0.0,1.0,0.0,0.0,0.0,1.0,-0.167594116211,-1.19231249982,8.8872765625,1.0,0.0,0.0,0.0,1.0,0.0,0.0,0.0,1.0
1463935092293915738,402,1463935092288724771,,-1.82967364788,-2.58475804329,-104.051750183,0.00129499996547,1.0,0.0,0.0,0.0,1.0,0.0,0.0,0.0,1.0,-12.5609760284,13.4146347046,19.7560977936,1.0,0.0,0.0,0.0,1.0,0.0,0.0,0.0,1.0,-0.344765039063,-1.55144267578,8.9591026123,1.0,0.0,0.0,0.0,1.0,0.0,0.0,0.0,1.0
1463935092313450707,403,1463935092310207804,,-1.53571009636,-2.87245512009,-103.776321411,0.00131399999373,1.0,0.0,0.0,0.0,1.0,0.0,0.0,0.0,1.0,-11.7073173523,2.56097555161,9.32926845551,1.0,0.0,0.0,0.0,1.0,0.0,0.0,0.0,1.0,-0.493205541992,-1.09654436035,9.11711992188,1.0,0.0,0.0,0.0,1.0,0.0,0.0,0.0,1.0
1463935092332714739,404,1463935092331013288,,-1.49219632149,-3.16168045998,-103.673309326,0.00168099999428,1.0,0.0,0.0,0.0,1.0,0.0,0.0,0.0,1.0,-11.8292684555,-3.59756112099,2.25609779358,1.0,0.0,0.0,0.0,1.0,0.0,0.0,0.0,1.0,-0.354341845703,-1.66636435547,9.62469125835,1.0,0.0,0.0,0.0,1.0,0.0,0.0,0.0,1.0
1463935092375869919,405,1463935092352705747,,-1.52584433556,-3.46703386307,-103.653579712,0.00188999995589,1.0,0.0,0.0,0.0,1.0,0.0,0.0,0.0,1.0,-8.84146404266,-8.71951198578,0.548780500889,1.0,0.0,0.0,0.0,1.0,0.0,0.0,0.0,1.0,-0.76614453125,-1.9105729248,10.3908352051,1.0,0.0,0.0,0.0,1.0,0.0,0.0,0.0,1.0
1463935092377345954,406,1463935092373824980,,-1.6493871212,-3.75144171715,-103.601043701,0.00146900000982,1.0,0.0,0.0,0.0,1.0,0.0,0.0,0.0,1.0,-5.85365867615,-8.04878044128,5.0,1.0,0.0,0.0,0.0,1.0,0.0,0.0,0.0,1.0,-0.469263525391,-2.17393510742,10.6972930176,1.0,0.0,0.0,0.0,1.0,0.0,0.0,0.0,1.0
1463935092427217720,407,1463935092394474266,,-1.70373415947,-3.93427228928,-103.390396118,0.00190000003204,1.0,0.0,0.0,0.0,1.0,0.0,0.0,0.0,1.0,-5.60975599289,-3.41463422775,15.0609760284,1.0,0.0,0.0,0.0,1.0,0.0,0.0,0.0,1.0,-0.0191536132812,-1.63284553223,11.1713449463,1.0,0.0,0.0,0.0,1.0,0.0,0.0,0.0,1.0
1463935092427480792,408,1463935092415558655,,-1.63119494915,-4.12090396881,-102.981361389,0.00253199995495,1.0,0.0,0.0,0.0,1.0,0.0,0.0,0.0,1.0,-7.25609779358,1.8902438879,25.182926178,1.0,0.0,0.0,0.0,1.0,0.0,0.0,0.0,1.0,-0.15801730957,-2.17393510742,11.03248125,1.0,0.0,0.0,0.0,1.0,0.0,0.0,0.0,1.0
1463935092447709403,409,1463935092436340806,,-1.4138365984,-4.38796281815,-102.325744629,0.00172900001053,1.0,0.0,0.0,0.0,1.0,0.0,0.0,0.0,1.0,-3.35365867615,6.15853643417,36.8292694092,1.0,0.0,0.0,0.0,1.0,0.0,0.0,0.0,1.0,-0.488417138672,-2.97359846191,11.286266626,1.0,0.0,0.0,0.0,1.0,0.0,0.0,0.0,1.0
1463935092493949102,410,1463935092457771235,,-1.12009716034,-4.52300310135,-101.449943542,0.00190200004727,1.0,0.0,0.0,0.0,1.0,0.0,0.0,0.0,1.0,-0.914634168148,5.54878091812,48.1097602844,1.0,0.0,0.0,0.0,1.0,0.0,0.0,0.0,1.0,-0.890643017578,-1.9105729248,11.4873795654,1.0,0.0,0.0,0.0,1.0,0.0,0.0,0.0,1.0
1463935092495058055,411,1463935092478968228,,-0.828772902489,-4.54489660263,-100.332870483,0.00138399994466,1.0,0.0,0.0,0.0,1.0,0.0,0.0,0.0,1.0,-5.24390268326,-6.28048801422,54.5121955872,1.0,0.0,0.0,0.0,1.0,0.0,0.0,0.0,1.0,-1.99197578125,-0.665588061523,10.8792523438,1.0,0.0,0.0,0.0,1.0,0.0,0.0,0.0,1.0
1463935092528262497,412,1463935092499895170,,-0.828400611877,-4.67159175873,-99.1231536865,0.00139999995008,1.0,0.0,0.0,0.0,1.0,0.0,0.0,0.0,1.0,-12.6219520569,-20.0,58.2317085266,1.0,0.0,0.0,0.0,1.0,0.0,0.0,0.0,1.0,-1.49398183594,-1.01035310059,10.1945106689,1.0,0.0,0.0,0.0,1.0,0.0,0.0,0.0,1.0
1463935092528698797,413,1463935092522142835,,-1.09141492844,-5.0335316658,-97.7515869141,0.00164300005417,1.0,0.0,0.0,0.0,1.0,0.0,0.0,0.0,1.0,-14.2073173523,-31.5853652954,63.2926826477,1.0,0.0,0.0,0.0,1.0,0.0,0.0,0.0,1.0,-1.28808049316,-2.31279880371,10.3046439453,1.0,0.0,0.0,0.0,1.0,0.0,0.0,0.0,1.0
1463935092569021229,414,1463935092542793320,,-1.55517315865,-5.41060781479,-96.2621383667,0.00146399997175,1.0,0.0,0.0,0.0,1.0,0.0,0.0,0.0,1.0,-10.4268293381,-31.5853652954,72.0121994019,1.0,0.0,0.0,0.0,1.0,0.0,0.0,0.0,1.0,-0.325611425781,-2.30322199707,10.4435076416,1.0,0.0,0.0,0.0,1.0,0.0,0.0,0.0,1.0
1463935092569957214,415,1463935092567847171,,-1.97334825993,-5.73778820038,-94.3025360107,0.0104010002688,1.0,0.0,0.0,0.0,1.0,0.0,0.0,0.0,1.0,-8.47560977936,-25.0609760284,80.5487823486,1.0,0.0,0.0,0.0,1.0,0.0,0.0,0.0,1.0,-0.15322890625,-1.84832368164,10.3190091553,1.0,0.0,0.0,0.0,1.0,0.0,0.0,0.0,1.0
1463935092605223261,416,1463935092587907606,,-2.19806575775,-5.98252391815,-92.5485839844,0.00174400000833,1.0,0.0,0.0,0.0,1.0,0.0,0.0,0.0,1.0,-7.50000047684,-20.9146347046,85.7317123413,1.0,0.0,0.0,0.0,1.0,0.0,0.0,0.0,1.0,-0.316034619141,-1.63284553223,10.4626612549,1.0,0.0,0.0,0.0,1.0,0.0,0.0,0.0,1.0
1463935092626798377,417,1463935092609774440,,-2.35593724251,-6.25266647339,-90.608833313,0.00150699994992,1.0,0.0,0.0,0.0,1.0,0.0,0.0,0.0,1.0,-7.01219511032,-16.4024391174,88.4146347046,1.0,0.0,0.0,0.0,1.0,0.0,0.0,0.0,1.0,-0.0718260498047,-2.02070620117,9.7587659668,1.0,0.0,0.0,0.0,1.0,0.0,0.0,0.0,1.0
1463935092648332348,418,1463935092630382060,,-2.41556382179,-6.46770048141,-88.8026580811,0.00137800001539,1.0,0.0,0.0,0.0,1.0,0.0,0.0,0.0,1.0,-4.32926845551,-18.1097564697,85.7926864624,1.0,0.0,0.0,0.0,1.0,0.0,0.0,0.0,1.0,0.0239420166016,-1.89620771484,9.2655604248,1.0,0.0,0.0,0.0,1.0,0.0,0.0,0.0,1.0
1463935092675083067,419,1463935092652237696,,-2.52101445198,-6.59415531158,-87.0161819458,0.00150200002827,1.0,0.0,0.0,0.0,1.0,0.0,0.0,0.0,1.0,-4.20731735229,-14.5731706619,82.4390258789,1.0,0.0,0.0,0.0,1.0,0.0,0.0,0.0,1.0,0.277727392578,-1.03908344744,9.34217429341,1.0,0.0,0.0,0.0,1.0,0.0,0.0,0.0,1.0
1463935092675869782,420,1463935092673994061,,-2.57558679581,-6.71745681763,-85.226600647,0.00249200011604,1.0,0.0,0.0,0.0,1.0,0.0,0.0,0.0,1.0,-7.86585378647,-14.8780498505,76.2195129395,1.0,0.0,0.0,0.0,1.0,0.0,0.0,0.0,1.0,0.0143652099609,-0.737414111328,9.15542714844,1.0,0.0,0.0,0.0,1.0,0.0,0.0,0.0,1.0
1463935092701320767,421,1463935092694535223,,-2.65739822388,-6.89680576324,-83.6853179932,0.00142400001641,1.0,0.0,0.0,0.0,1.0,0.0,0.0,0.0,1.0,-12.5,-11.2804880142,72.0731735229,1.0,0.0,0.0,0.0,1.0,0.0,0.0,0.0,1.0,0.565031591797,-0.976834277344,9.97424411621,1.0,0.0,0.0,0.0,1.0,0.0,0.0,0.0,1.0
1463935092721170057,422,1463935092716325182,,-2.63293504715,-7.1621837616,-82.192527771,0.00174400000833,1.0,0.0,0.0,0.0,1.0,0.0,0.0,0.0,1.0,-14.9390249252,-7.68292665482,68.3536605835,1.0,0.0,0.0,0.0,1.0,0.0,0.0,0.0,1.0,-0.105344873047,-1.01992990723,9.94551369629,1.0,0.0,0.0,0.0,1.0,0.0,0.0,0.0,1.0
1463935092741263617,423,1463935092737735143,,-2.55635142326,-7.4856877327,-80.7400283813,0.00169900001492,1.0,0.0,0.0,0.0,1.0,0.0,0.0,0.0,1.0,-19.5731716156,-9.63414573669,64.7561035156,1.0,0.0,0.0,0.0,1.0,0.0,0.0,0.0,1.0,-0.0191536132812,-0.900219824219,10.3333743652,1.0,0.0,0.0,0.0,1.0,0.0,0.0,0.0,1.0
1463935092791022363,424,1463935092759043385,,-2.53129076958,-7.89586305618,-79.3692016602,0.00132200005464,1.0,0.0,0.0,0.0,1.0,0.0,0.0,0.0,1.0,-22.8658542633,-7.31707334518,62.7439041138,1.0,0.0,0.0,0.0,1.0,0.0,0.0,0.0,1.0,0.172382519531,-1.1875240965,10.1466266357,1.0,0.0,0.0,0.0,1.0,0.0,0.0,0.0,1.0
1463935092791362934,425,1463935092780986416,,-2.45041751862,-8.39594459534,-78.0522766113,0.00141100003384,1.0,0.0,0.0,0.0,1.0,0.0,0.0,0.0,1.0,-22.7439041138,-5.60975599289,59.0853652954,1.0,0.0,0.0,0.0,1.0,0.0,0.0,0.0,1.0,0.229843359375,-1.86747729492,9.77313117676,1.0,0.0,0.0,0.0,1.0,0.0,0.0,0.0,1.0
1463935092814872573,426,1463935092802404137,,-2.33884453773,-8.90342330933,-76.8244400024,0.00176200002898,1.0,0.0,0.0,0.0,1.0,0.0,0.0,0.0,1.0,-17.8048782349,-1.58536589146,55.8536605835,1.0,0.0,0.0,0.0,1.0,0.0,0.0,0.0,1.0,0.387860668945,-2.48518132324,10.0221281494,1.0,0.0,0.0,0.0,1.0,0.0,0.0,0.0,1.0
1463935092836731230,427,1463935092823495922,,-2.14432501793,-9.26860332489,-75.7038116455,0.00203699991107,1.0,0.0,0.0,0.0,1.0,0.0,0.0,0.0,1.0,-11.341463089,-1.03658533096,53.9024391174,1.0,0.0,0.0,0.0,1.0,0.0,0.0,0.0,1.0,0.263362164351,-2.41814367676,9.96945571289,1.0,0.0,0.0,0.0,1.0,0.0,0.0,0.0,1.0
1463935092872627274,428,1463935092844203073,,-1.93929791451,-9.50150203705,-74.5994949341,0.00129899999592,1.0,0.0,0.0,0.0,1.0,0.0,0.0,0.0,1.0,-6.58536624908,3.84146332741,53.5975608826,1.0,0.0,0.0,0.0,1.0,0.0,0.0,0.0,1.0,0.483628735352,-2.28885678711,10.314220752,1.0,0.0,0.0,0.0,1.0,0.0,0.0,0.0,1.0
1463935092872717951,429,1463935092865895116,,-1.61178159714,-9.61672401428,-73.5005493164,0.00174800003879,1.0,0.0,0.0,0.0,1.0,0.0,0.0,0.0,1.0,-2.86585378647,5.60975599289,52.6829299927,1.0,0.0,0.0,0.0,1.0,0.0,0.0,0.0,1.0,-0.134075302102,-2.25054956055,10.6829278076,1.0,0.0,0.0,0.0,1.0,0.0,0.0,0.0,1.0
1463935092940682244,430,1463935092887743408,,-1.29992723465,-9.64535045624,-72.4211807251,0.0015190000413,1.0,0.0,0.0,0.0,1.0,0.0,0.0,0.0,1.0,-0.18292683363,2.5,50.5487785339,1.0,0.0,0.0,0.0,1.0,0.0,0.0,0.0,1.0,0.220266552734,-2.28885678711,10.8026378906,1.0,0.0,0.0,0.0,1.0,0.0,0.0,0.0,1.0
1463935092942148331,431,1463935092908900921,,-1.04982769489,-9.62665653229,-71.4258499146,0.00143699999899,1.0,0.0,0.0,0.0,1.0,0.0,0.0,0.0,1.0,4.02439022064,0.975609779358,47.317073822,1.0,0.0,0.0,0.0,1.0,0.0,0.0,0.0,1.0,-0.253785375977,-2.53306535645,10.299855542,1.0,0.0,0.0,0.0,1.0,0.0,0.0,0.0,1.0
1463935092943214160,432,1463935092930600360,,-0.875759959221,-9.52382278442,-70.4769897461,0.00145600002725,1.0,0.0,0.0,0.0,1.0,0.0,0.0,0.0,1.0,8.65853691101,-2.31707310677,42.317073822,1.0,0.0,0.0,0.0,1.0,0.0,0.0,0.0,1.0,0.114921679688,-2.48996972656,10.2902787354,1.0,0.0,0.0,0.0,1.0,0.0,0.0,0.0,1.0
1463935093058376636,433,1463935092951276469,,-0.763508379459,-9.32162189484,-69.6492385864,0.00157900003251,1.0,0.0,0.0,0.0,1.0,0.0,0.0,0.0,1.0,11.2804880142,-1.70731711388,40.0,1.0,0.0,0.0,0.0,1.0,0.0,0.0,0.0,1.0,-0.0814028564453,-2.29843359375,10.1178962158,1.0,0.0,0.0,0.0,1.0,0.0,0.0,0.0,1.0
1463935093058805437,434,1463935092973588509,,-0.656725525856,-9.07957267761,-68.8073120117,0.00234799995087,1.0,0.0,0.0,0.0,1.0,0.0,0.0,0.0,1.0,15.6707315445,-8.04878044128,36.5243911743,1.0,0.0,0.0,0.0,1.0,0.0,0.0,0.0,1.0,-0.742202514648,-3.1364041748,10.4004120117,1.0,0.0,0.0,0.0,1.0,0.0,0.0,0.0,1.0
1463935093059971421,435,1463935092995230500,,-0.713023781776,-8.74560260773,-68.0171279907,0.00137199996971,1.0,0.0,0.0,0.0,1.0,0.0,0.0,0.0,1.0,24.6341457367,-14.8780498505,34.9390258789,1.0,0.0,0.0,0.0,1.0,0.0,0.0,0.0,1.0,-0.292092584273,-3.13161577148,10.8840407471,1.0,0.0,0.0,0.0,1.0,0.0,0.0,0.0,1.0
1463935093060714335,436,1463935093015762496,,-0.881873488426,-8.21967792511,-67.2585601807,0.00147100002505,1.0,0.0,0.0,0.0,1.0,0.0,0.0,0.0,1.0,27.1951236725,-9.69512176514,37.1951255798,1.0,0.0,0.0,0.0,1.0,0.0,0.0,0.0,1.0,0.445321508789,-1.85311208496,11.0372696533,1.0,0.0,0.0,0.0,1.0,0.0,0.0,0.0,1.0
1463935093147458755,437,1463935093037295112,,-0.917462110519,-7.58939123154,-66.4327392578,0.00144699995872,1.0,0.0,0.0,0.0,1.0,0.0,0.0,0.0,1.0,20.0609760284,-3.23170733452,40.3658561707,1.0,0.0,0.0,0.0,1.0,0.0,0.0,0.0,1.0,0.31124621582,-0.588973571866,10.4770264648,1.0,0.0,0.0,0.0,1.0,0.0,0.0,0.0,1.0
1463935093148169690,438,1463935093058967259,,-0.834411621094,-7.18574953079,-65.5664138794,0.00174099998549,1.0,0.0,0.0,0.0,1.0,0.0,0.0,0.0,1.0,12.8048782349,2.86585378647,42.3780517578,1.0,0.0,0.0,0.0,1.0,0.0,0.0,0.0,1.0,0.378283862305,-2.00155258789,10.2950671387,1.0,0.0,0.0,0.0,1.0,0.0,0.0,0.0,1.0
1463935093149034478,439,1463935093080365084,,-0.618134081364,-6.99065971375,-64.6740646362,0.00141100003384,1.0,0.0,0.0,0.0,1.0,0.0,0.0,0.0,1.0,17.8048782349,2.5,42.1951255798,1.0,0.0,0.0,0.0,1.0,0.0,0.0,0.0,1.0,-0.31124621582,-3.46201560059,10.2088758789,1.0,0.0,0.0,0.0,1.0,0.0,0.0,0.0,1.0
1463935093149554840,440,1463935093102154053,,-0.441085606813,-6.66131687164,-63.805644989,0.00133200001437,1.0,0.0,0.0,0.0,1.0,0.0,0.0,0.0,1.0,25.7317085266,-1.95121955872,40.7926826477,1.0,0.0,0.0,0.0,1.0,0.0,0.0,0.0,1.0,-0.368707055664,-2.79642753906,9.62469125835,1.0,0.0,0.0,0.0,1.0,0.0,0.0,0.0,1.0
1463935093176420611,441,1463935093123280890,,-0.378977715969,-6.14430236816,-62.9271430969,0.00208800006658,1.0,0.0,0.0,0.0,1.0,0.0,0.0,0.0,1.0,27.9268302917,-1.34146344662,40.5487823486,1.0,0.0,0.0,0.0,1.0,0.0,0.0,0.0,1.0,0.210689746094,-1.96324536133,9.56244201519,1.0,0.0,0.0,0.0,1.0,0.0,0.0,0.0,1.0
1463935093177650293,442,1463935093144597205,,-0.308427006006,-5.60760307312,-62.1171035767,0.00182899995707,1.0,0.0,0.0,0.0,1.0,0.0,0.0,0.0,1.0,26.158536911,-4.14634132385,39.390247345,1.0,0.0,0.0,0.0,1.0,0.0,0.0,0.0,1.0,-0.430956298828,-1.50355864258,9.65342167827,1.0,0.0,0.0,0.0,1.0,0.0,0.0,0.0,1.0
1463935093192678198,443,1463935093166073207,,-0.321622908115,-5.08129549026,-61.2802467346,0.0016009999672,1.0,0.0,0.0,0.0,1.0,0.0,0.0,0.0,1.0,22.5609760284,-10.3658542633,37.0731697083,1.0,0.0,0.0,0.0,1.0,0.0,0.0,0.0,1.0,-0.0718260498047,-1.44609780273,9.39484672993,1.0,0.0,0.0,0.0,1.0,0.0,0.0,0.0,1.0
1463935093192766478,444,1463935093187783427,,-0.463782161474,-4.63636207581,-60.4742774963,0.00155100005213,1.0,0.0,0.0,0.0,1.0,0.0,0.0,0.0,1.0,20.4878044128,-6.09756088257,36.9512214661,1.0,0.0,0.0,0.0,1.0,0.0,0.0,0.0,1.0,0.445321508789,-1.2976572998,8.94952580566,1.0,0.0,0.0,0.0,1.0,0.0,0.0,0.0,1.0
1463935093261041655,445,1463935093208868545,,-0.528677046299,-4.22607278824,-59.7211914062,0.00126699998509,1.0,0.0,0.0,0.0,1.0,0.0,0.0,0.0,1.0,15.1829271317,-5.85365867615,35.4268302917,1.0,0.0,0.0,0.0,1.0,0.0,0.0,0.0,1.0,0.229843359375,-0.646434448242,7.83861623535,1.0,0.0,0.0,0.0,1.0,0.0,0.0,0.0,1.0
1463935093261646601,446,1463935093229319760,,-0.59717053175,-3.96244978905,-59.0117149353,0.00121799996123,1.0,0.0,0.0,0.0,1.0,0.0,0.0,0.0,1.0,10.1829271317,-4.2682929039,33.9024391174,1.0,0.0,0.0,0.0,1.0,0.0,0.0,0.0,1.0,0.220266552734,-1.24019645996,7.7093293457,1.0,0.0,0.0,0.0,1.0,0.0,0.0,0.0,1.0
1463935093262443212,447,1463935093250627846,,-0.642412185669,-3.81808161736,-58.3187026978,0.00128600001335,1.0,0.0,0.0,0.0,1.0,0.0,0.0,0.0,1.0,10.0609760284,-3.65853667259,32.0731697083,1.0,0.0,0.0,0.0,1.0,0.0,0.0,0.0,1.0,-0.205901342773,-1.43652099609,7.13950935059,1.0,0.0,0.0,0.0,1.0,0.0,0.0,0.0,1.0
1463935093323690762,448,1463935093275611020,,-0.681124508381,-3.68837594986,-57.680519104,0.0015269999858,1.0,0.0,0.0,0.0,1.0,0.0,0.0,0.0,1.0,10.548781395,-9.14634132385,29.6341457367,1.0,0.0,0.0,0.0,1.0,0.0,0.0,0.0,1.0,0.205901342773,-1.07739082014,6.67503422852,1.0,0.0,0.0,0.0,1.0,0.0,0.0,0.0,1.0
1463935093324782268,449,1463935093293720057,,-0.898018062115,-3.50146150589,-57.0400276184,0.00164300005417,1.0,0.0,0.0,0.0,1.0,0.0,0.0,0.0,1.0,8.78048801422,-5.18292713165,29.0853672028,1.0,0.0,0.0,0.0,1.0,0.0,0.0,0.0,1.0,0.675164868164,-0.828393774414,6.58884296875,1.0,0.0,0.0,0.0,1.0,0.0,0.0,0.0,1.0
1463935093346042646,450,1463935093314084033,,-0.987227380276,-3.35657453537,-56.4667205811,0.00148199999239,1.0,0.0,0.0,0.0,1.0,0.0,0.0,0.0,1.0,5.91463422775,0.487804889679,27.317073822,1.0,0.0,0.0,0.0,1.0,0.0,0.0,0.0,1.0,0.421379492187,-0.823605371094,6.63672700195,1.0,0.0,0.0,0.0,1.0,0.0,0.0,0.0,1.0
1463935093347092642,451,1463935093335634409,,-0.908791661263,-3.29899048805,-55.9342727661,0.00158499996178,1.0,0.0,0.0,0.0,1.0,0.0,0.0,0.0,1.0,3.23170733452,-0.365853667259,24.2073173523,1.0,0.0,0.0,0.0,1.0,0.0,0.0,0.0,1.0,-0.478840332031,-1.10133276367,7.41244833984,1.0,0.0,0.0,0.0,1.0,0.0,0.0,0.0,1.0
1463935093406591970,452,1463935093357493482,,-0.867329955101,-3.30767583847,-55.4465103149,0.00165600003675,1.0,0.0,0.0,0.0,1.0,0.0,0.0,0.0,1.0,2.62195134163,-4.20731735229,21.5243911743,1.0,0.0,0.0,0.0,1.0,0.0,0.0,0.0,1.0,-0.110133276367,-1.41257897949,7.78115539551,1.0,0.0,0.0,0.0,1.0,0.0,0.0,0.0,1.0
1463935093406722074,453,1463935093378376727,,-0.925456464291,-3.31295490265,-55.0168838501,0.00150699994992,1.0,0.0,0.0,0.0,1.0,0.0,0.0,0.0,1.0,0.731707334518,-1.34146344662,20.975610733,1.0,0.0,0.0,0.0,1.0,0.0,0.0,0.0,1.0,0.541089611728,-1.17794714373,7.93917270508,1.0,0.0,0.0,0.0,1.0,0.0,0.0,0.0,1.0
1463935093435502316,454,1463935093399970853,,-0.873698055744,-3.36285853386,-54.5724639893,0.00133100000676,1.0,0.0,0.0,0.0,1.0,0.0,0.0,0.0,1.0,-2.5,5.67073154449,22.0121955872,1.0,0.0,0.0,0.0,1.0,0.0,0.0,0.0,1.0,0.172382519531,-1.11090957031,8.35576320942,1.0,0.0,0.0,0.0,1.0,0.0,0.0,0.0,1.0
1463935093436294552,455,1463935093422657423,,-0.686467707157,-3.49463605881,-54.0917625427,0.00190699996892,1.0,0.0,0.0,0.0,1.0,0.0,0.0,0.0,1.0,-5.06097555161,9.45121955872,23.5365848541,1.0,0.0,0.0,0.0,1.0,0.0,0.0,0.0,1.0,0.325611425781,-1.40300217285,8.9112185791,1.0,0.0,0.0,0.0,1.0,0.0,0.0,0.0,1.0
1463935093461714599,456,1463935093444041706,,-0.409380048513,-3.69340348244,-53.5877799988,0.00164999999106,1.0,0.0,0.0,0.0,1.0,0.0,0.0,0.0,1.0,-6.82926845551,10.6707315445,24.4512195587,1.0,0.0,0.0,0.0,1.0,0.0,0.0,0.0,1.0,-0.287304199219,-1.64721074219,8.82502731934,1.0,0.0,0.0,0.0,1.0,0.0,0.0,0.0,1.0
1463935093476743650,457,1463935093465798280,,-0.156333506107,-3.92934298515,-53.1024665833,0.00164399994537,1.0,0.0,0.0,0.0,1.0,0.0,0.0,0.0,1.0,-6.95121955872,8.17073154449,22.9878044128,1.0,0.0,0.0,0.0,1.0,0.0,0.0,0.0,1.0,-0.0861912597656,-1.92014973145,9.15063874512,1.0,0.0,0.0,0.0,1.0,0.0,0.0,0.0,1.0
1463935093492342906,458,1463935093487622874,,0.0829698592424,-4.16257333755,-52.6726493835,0.00146900000982,1.0,0.0,0.0,0.0,1.0,0.0,0.0,0.0,1.0,-6.21951246262,0.487804889679,19.2682914734,1.0,0.0,0.0,0.0,1.0,0.0,0.0,0.0,1.0,-1.01992990723,-1.90578452148,9.89762966309,1.0,0.0,0.0,0.0,1.0,0.0,0.0,0.0,1.0
1463935093510526109,459,1463935093507924037,,0.0940210148692,-4.33765888214,-52.334651947,0.0016009999672,1.0,0.0,0.0,0.0,1.0,0.0,0.0,0.0,1.0,-7.25609779358,-9.26829242706,14.5121955872,1.0,0.0,0.0,0.0,1.0,0.0,0.0,0.0,1.0,-0.694318481445,-1.78128603516,10.2280294922,1.0,0.0,0.0,0.0,1.0,0.0,0.0,0.0,1.0
1463935093538428907,460,1463935093529990557,,-0.0924438759685,-4.54624986649,-52.071685791,0.00175599998329,1.0,0.0,0.0,0.0,1.0,0.0,0.0,0.0,1.0,-9.26829242706,-13.2317075729,9.63414573669,1.0,0.0,0.0,0.0,1.0,0.0,0.0,0.0,1.0,-0.0383072265625,-1.58974990234,10.0412817627,1.0,0.0,0.0,0.0,1.0,0.0,0.0,0.0,1.0
1463935093578700766,461,1463935093550737448,,-0.312598705292,-4.81244373322,-51.9185752869,0.0015569999814,1.0,0.0,0.0,0.0,1.0,0.0,0.0,0.0,1.0,-10.1219511032,-10.9146347046,5.30487823486,1.0,0.0,0.0,0.0,1.0,0.0,0.0,0.0,1.0,-0.0957680664062,-2.29843359375,9.88326445312,1.0,0.0,0.0,0.0,1.0,0.0,0.0,0.0,1.0
1463935093579142847,462,1463935093572447563,,-0.467981696129,-5.11517381668,-51.8544197083,0.00158200005535,1.0,0.0,0.0,0.0,1.0,0.0,0.0,0.0,1.0,-5.24390268326,-10.1829271317,1.2804877758,1.0,0.0,0.0,0.0,1.0,0.0,0.0,0.0,1.0,-0.636857641602,-2.93529123535,10.1370498291,1.0,0.0,0.0,0.0,1.0,0.0,0.0,0.0,1.0
1463935093600614631,463,1463935093593128777,,-0.638772308826,-5.24173784256,-51.847869873,0.00453800009564,1.0,0.0,0.0,0.0,1.0,0.0,0.0,0.0,1.0,-1.58536589146,-11.4024391174,-0.487804889679,1.0,0.0,0.0,0.0,1.0,0.0,0.0,0.0,1.0,-0.402225878906,-2.25533796387,10.6494089844,1.0,0.0,0.0,0.0,1.0,0.0,0.0,0.0,1.0
1463935093636175729,464,1463935093620669389,,-0.793396949768,-5.32530403137,-51.8660621643,0.00900899991393,1.0,0.0,0.0,0.0,1.0,0.0,0.0,0.0,1.0,0.914634168148,-9.39024448395,-1.40243899822,1.0,0.0,0.0,0.0,1.0,0.0,0.0,0.0,1.0,-0.842758984375,-2.21224233398,10.4722380615,1.0,0.0,0.0,0.0,1.0,0.0,0.0,0.0,1.0
1463935093647469118,465,1463935093640703522,,-0.895783245564,-5.34835910797,-51.8939056396,0.0022609999869,1.0,0.0,0.0,0.0,1.0,0.0,0.0,0.0,1.0,2.25609779358,-6.15853643417,-0.975609779358,1.0,0.0,0.0,0.0,1.0,0.0,0.0,0.0,1.0,-0.435744702148,-1.97282216797,10.0269165527,1.0,0.0,0.0,0.0,1.0,0.0,0.0,0.0,1.0
1463935093667582990,466,1463935093665057740,,-0.892604827881,-5.34784555435,-51.8774681091,0.0034539999906,1.0,0.0,0.0,0.0,1.0,0.0,0.0,0.0,1.0,1.2195122242,4.63414621353,2.86585378647,1.0,0.0,0.0,0.0,1.0,0.0,0.0,0.0,1.0,0.15322890625,-1.79565124512,9.70609353027,1.0,0.0,0.0,0.0,1.0,0.0,0.0,0.0,1.0
1463935093689598886,467,1463935093685102655,,-0.573886811733,-5.38109922409,-51.8222007751,0.00227100006305,1.0,0.0,0.0,0.0,1.0,0.0,0.0,0.0,1.0,2.19512200356,8.41463470459,3.84146332741,1.0,0.0,0.0,0.0,1.0,0.0,0.0,0.0,1.0,-0.938527050781,-2.32716386754,10.0269165527,1.0,0.0,0.0,0.0,1.0,0.0,0.0,0.0,1.0
1463935093708909220,468,1463935093705713400,,-0.300110697746,-5.37695598602,-51.750038147,0.00128299999051,1.0,0.0,0.0,0.0,1.0,0.0,0.0,0.0,1.0,5.12195110321,6.89024400711,5.36585378647,1.0,0.0,0.0,0.0,1.0,0.0,0.0,0.0,1.0,-0.952892260742,-2.11647412145,9.94072529297,1.0,0.0,0.0,0.0,1.0,0.0,0.0,0.0,1.0
1463935093730762095,469,1463935093727146277,,-0.0524885170162,-5.31712150574,-51.6533622742,0.00118300004397,1.0,0.0,0.0,0.0,1.0,0.0,0.0,0.0,1.0,6.28048801422,-2.01219511032,5.12195110321,1.0,0.0,0.0,0.0,1.0,0.0,0.0,0.0,1.0,-1.40779057617,-1.82438166504,9.4570959731,1.0,0.0,0.0,0.0,1.0,0.0,0.0,0.0,1.0
1463935093761733369,470,1463935093747851866,,0.00101769820321,-5.22533035278,-51.5433197021,0.00128199998289,1.0,0.0,0.0,0.0,1.0,0.0,0.0,0.0,1.0,5.60975599289,-8.78048801422,5.54878091812,1.0,0.0,0.0,0.0,1.0,0.0,0.0,0.0,1.0,-0.986411083984,-1.5083470459,8.97346782227,1.0,0.0,0.0,0.0,1.0,0.0,0.0,0.0,1.0
1463935093774000764,471,1463935093769161514,,-0.0824739187956,-5.12651109695,-51.4361038208,0.00182100001257,1.0,0.0,0.0,0.0,1.0,0.0,0.0,0.0,1.0,4.20731735229,-12.1951217651,3.96341490746,1.0,0.0,0.0,0.0,1.0,0.0,0.0,0.0,1.0,-0.885854614258,-1.50355864258,8.66701059429,1.0,0.0,0.0,0.0,1.0,0.0,0.0,0.0,1.0
1463935093795025414,472,1463935093790013352,,-0.219454094768,-5.07498121262,-51.362159729,0.00117800000589,1.0,0.0,0.0,0.0,1.0,0.0,0.0,0.0,1.0,3.47560977936,-14.5121955872,1.8292683363,1.0,0.0,0.0,0.0,1.0,0.0,0.0,0.0,1.0,-1.21625444336,-1.63763393555,8.25999572754,1.0,0.0,0.0,0.0,1.0,0.0,0.0,0.0,1.0
1463935093815266421,473,1463935093811122949,,-0.393129020929,-5.0602517128,-51.3267021179,0.00117199996021,1.0,0.0,0.0,0.0,1.0,0.0,0.0,0.0,1.0,3.23170733452,-18.841463089,0.304878056049,1.0,0.0,0.0,0.0,1.0,0.0,0.0,0.0,1.0,-0.92416184082,-1.61369191895,8.63349177105,1.0,0.0,0.0,0.0,1.0,0.0,0.0,0.0,1.0
1463935093841303549,474,1463935093831701559,,-0.665307044983,-5.05053567886,-51.26902771,0.00124400004279,1.0,0.0,0.0,0.0,1.0,0.0,0.0,0.0,1.0,2.62195134163,-13.1707324982,3.53658556938,1.0,0.0,0.0,0.0,1.0,0.0,0.0,0.0,1.0,0.15801730957,-1.98239897461,9.40921193989,1.0,0.0,0.0,0.0,1.0,0.0,0.0,0.0,1.0
1463935093857054992,475,1463935093852557824,,-0.77268832922,-5.07905769348,-51.1433448792,0.001200000057,1.0,0.0,0.0,0.0,1.0,0.0,0.0,0.0,1.0,3.7804877758,-3.90243911743,7.68292665482,1.0,0.0,0.0,0.0,1.0,0.0,0.0,0.0,1.0,-0.814028564453,-2.3415290775,10.285490332,1.0,0.0,0.0,0.0,1.0,0.0,0.0,0.0,1.0
1463935093883371911,476,1463935093873920441,,-0.728784322739,-5.0691781044,-50.9645462036,0.00152599997818,1.0,0.0,0.0,0.0,1.0,0.0,0.0,0.0,1.0,5.0,-7.50000047684,8.65853691101,1.0,0.0,0.0,0.0,1.0,0.0,0.0,0.0,1.0,-0.967257470703,-2.08774370153,10.5632177246,1.0,0.0,0.0,0.0,1.0,0.0,0.0,0.0,1.0
1463935093904900257,477,1463935093894495510,,-0.799827873707,-5.03025054932,-50.769569397,0.00140199996531,1.0,0.0,0.0,0.0,1.0,0.0,0.0,0.0,1.0,2.68292689323,-3.96341490746,10.6097564697,1.0,0.0,0.0,0.0,1.0,0.0,0.0,0.0,1.0,0.0,-1.67594116211,10.5680061279,1.0,0.0,0.0,0.0,1.0,0.0,0.0,0.0,1.0
1463935093934269089,478,1463935093916589321,,-0.779710650444,-5.03619146347,-50.5617790222,0.00124400004279,1.0,0.0,0.0,0.0,1.0,0.0,0.0,0.0,1.0,1.46341466904,3.90243911743,10.6097564697,1.0,0.0,0.0,0.0,1.0,0.0,0.0,0.0,1.0,-0.0143652099609,-2.19787712402,10.3812583984,1.0,0.0,0.0,0.0,1.0,0.0,0.0,0.0,1.0
1463935093964120160,479,1463935093937777147,,-0.587835907936,-5.07916116714,-50.3770256042,0.00126900000032,1.0,0.0,0.0,0.0,1.0,0.0,0.0,0.0,1.0,1.34146344662,4.57317066193,8.35365867615,1.0,0.0,0.0,0.0,1.0,0.0,0.0,0.0,1.0,-0.651222851562,-2.01112939453,10.0077629395,1.0,0.0,0.0,0.0,1.0,0.0,0.0,0.0,1.0
1463935093964501044,480,1463935093958534350,,-0.443935781717,-5.10552358627,-50.2417907715,0.00131299998611,1.0,0.0,0.0,0.0,1.0,0.0,0.0,0.0,1.0,-0.914634168148,8.41463470459,7.92682981491,1.0,0.0,0.0,0.0,1.0,0.0,0.0,0.0,1.0,0.335188232422,-2.04943662109,10.8122146973,1.0,0.0,0.0,0.0,1.0,0.0,0.0,0.0,1.0
1463935093983589764,481,1463935093979250303,,-0.202648937702,-5.18880414963,-50.1041145325,0.00124200002756,1.0,0.0,0.0,0.0,1.0,0.0,0.0,0.0,1.0,-1.76829278469,15.7926826477,8.96341514587,1.0,0.0,0.0,0.0,1.0,0.0,0.0,0.0,1.0,0.411802685547,-2.48039291992,11.4873795654,1.0,0.0,0.0,0.0,1.0,0.0,0.0,0.0,1.0
1463935094010322618,482,1463935094001040262,,0.207225829363,-5.3043885231,-49.9540405273,0.00321700004861,1.0,0.0,0.0,0.0,1.0,0.0,0.0,0.0,1.0,0.18292683363,21.6463432312,9.69512176514,1.0,0.0,0.0,0.0,1.0,0.0,0.0,0.0,1.0,0.0574608398438,-2.77248552246,11.7459533447,1.0,0.0,0.0,0.0,1.0,0.0,0.0,0.0,1.0
1463935094034837097,483,1463935094021661164,,0.674719393253,-5.34625291824,-49.8294792175,0.00132599996869,1.0,0.0,0.0,0.0,1.0,0.0,0.0,0.0,1.0,1.8902438879,19.5731716156,7.86585378647,1.0,0.0,0.0,0.0,1.0,0.0,0.0,0.0,1.0,-0.45968671875,-2.35589428746,11.7172229248,1.0,0.0,0.0,0.0,1.0,0.0,0.0,0.0,1.0
1463935094078015767,484,1463935094042952010,,1.08090543747,-5.35713768005,-49.7437744141,0.00183700001799,1.0,0.0,0.0,0.0,1.0,0.0,0.0,0.0,1.0,0.975609779358,11.6463422775,5.73170757294,1.0,0.0,0.0,0.0,1.0,0.0,0.0,0.0,1.0,-1.1875240965,-2.36068269078,11.8225677979,1.0,0.0,0.0,0.0,1.0,0.0,0.0,0.0,1.0
1463935094078542171,485,1463935094064326450,,1.28545379639,-5.40709161758,-49.6780090332,0.0020230000373,1.0,0.0,0.0,0.0,1.0,0.0,0.0,0.0,1.0,1.2804877758,-3.35365867615,3.29268312454,1.0,0.0,0.0,0.0,1.0,0.0,0.0,0.0,1.0,-1.02471831055,-2.83952316895,12.1625444336,1.0,0.0,0.0,0.0,1.0,0.0,0.0,0.0,1.0
1463935094099660934,486,1463935094084916466,,1.17693006992,-5.44487762451,-49.6032218933,0.00151500001084,1.0,0.0,0.0,0.0,1.0,0.0,0.0,0.0,1.0,3.7804877758,-6.95121955872,4.93902444839,1.0,0.0,0.0,0.0,1.0,0.0,0.0,0.0,1.0,-0.258573779297,-3.01190568848,11.9997387207,1.0,0.0,0.0,0.0,1.0,0.0,0.0,0.0,1.0
1463935094223617227,487,1463935094106068667,,1.04022479057,-5.43291950226,-49.4644889832,0.00173699995503,1.0,0.0,0.0,0.0,1.0,0.0,0.0,0.0,1.0,5.85365867615,-3.47560977936,8.84146404266,1.0,0.0,0.0,0.0,1.0,0.0,0.0,0.0,1.0,0.46447512207,-2.85867678223,12.6078659424,1.0,0.0,0.0,0.0,1.0,0.0,0.0,0.0,1.0
1463935094223729987,488,1463935094128005969,,1.02866315842,-5.37241268158,-49.2537841797,0.00137299997732,1.0,0.0,0.0,0.0,1.0,0.0,0.0,0.0,1.0,5.42682933807,2.98780488968,12.4390249252,1.0,0.0,0.0,0.0,1.0,0.0,0.0,0.0,1.0,-0.0191536132812,-2.82036955566,13.9534072754,1.0,0.0,0.0,0.0,1.0,0.0,0.0,0.0,1.0
1463935094224815139,489,1463935094148608277,,1.11613678932,-5.30908536911,-48.9800186157,0.00261999992654,1.0,0.0,0.0,0.0,1.0,0.0,0.0,0.0,1.0,5.42682933807,1.70731711388,14.8780498505,1.0,0.0,0.0,0.0,1.0,0.0,0.0,0.0,1.0,-0.359130249023,-3.02148249512,14.2215578613,1.0,0.0,0.0,0.0,1.0,0.0,0.0,0.0,1.0
1463935094224879409,490,1463935094169158450,,1.14634561539,-5.24879455566,-48.6721076965,0.00152100005653,1.0,0.0,0.0,0.0,1.0,0.0,0.0,0.0,1.0,6.09756088257,-4.87804889679,15.548781395,1.0,0.0,0.0,0.0,1.0,0.0,0.0,0.0,1.0,-0.689530078125,-2.73896669922,13.4218945068,1.0,0.0,0.0,0.0,1.0,0.0,0.0,0.0,1.0
1463935094224918524,491,1463935094189917319,,1.0605494976,-5.16255092621,-48.353969574,0.00146499997936,1.0,0.0,0.0,0.0,1.0,0.0,0.0,0.0,1.0,2.07317066193,-7.25609779358,15.7317075729,1.0,0.0,0.0,0.0,1.0,0.0,0.0,0.0,1.0,-0.143652099609,-1.67594116211,12.631807959,1.0,0.0,0.0,0.0,1.0,0.0,0.0,0.0,1.0
1463935094225313001,492,1463935094211386134,,0.912842929363,-5.17101335526,-48.0305290222,0.00156600004993,1.0,0.0,0.0,0.0,1.0,0.0,0.0,0.0,1.0,-6.52439069748,-3.35365867615,15.7317075729,1.0,0.0,0.0,0.0,1.0,0.0,0.0,0.0,1.0,0.440533105469,-1.65199914551,12.497732666,1.0,0.0,0.0,0.0,1.0,0.0,0.0,0.0,1.0
1463935094347410917,493,1463935094233922287,,0.872752845287,-5.38067960739,-47.7088127136,0.00242100004107,1.0,0.0,0.0,0.0,1.0,0.0,0.0,0.0,1.0,-8.29268264771,1.03658533096,14.1463422775,1.0,0.0,0.0,0.0,1.0,0.0,0.0,0.0,1.0,0.387860668945,-2.4756045166,11.7459533447,1.0,0.0,0.0,0.0,1.0,0.0,0.0,0.0,1.0
1463935094347463885,494,1463935094254656157,,0.930893719196,-5.61983776093,-47.4614677429,0.00142500002403,1.0,0.0,0.0,0.0,1.0,0.0,0.0,0.0,1.0,-6.70731735229,6.82926845551,12.0121955872,1.0,0.0,0.0,0.0,1.0,0.0,0.0,0.0,1.0,0.46447512207,-2.62404501953,11.1761333496,1.0,0.0,0.0,0.0,1.0,0.0,0.0,0.0,1.0
1463935094347506802,495,1463935094275429923,,1.11457872391,-5.80769252777,-47.2942085266,0.00159100000747,1.0,0.0,0.0,0.0,1.0,0.0,0.0,0.0,1.0,-4.57317066193,8.84146404266,8.29268264771,1.0,0.0,0.0,0.0,1.0,0.0,0.0,0.0,1.0,-0.363918652344,-2.54743056641,11.1617681396,1.0,0.0,0.0,0.0,1.0,0.0,0.0,0.0,1.0
1463935094349765855,496,1463935094296981289,,1.37005901337,-5.57474565506,-47.2094612122,0.00159999995958,1.0,0.0,0.0,0.0,1.0,0.0,0.0,0.0,1.0,132.439025879,12.6219520569,2.56097555161,1.0,0.0,0.0,0.0,1.0,0.0,0.0,0.0,1.0,-3.48116921387,-5.61200869141,23.6451355957,1.0,0.0,0.0,0.0,1.0,0.0,0.0,0.0,1.0
1463935094350401477,497,1463935094318946507,,1.64769721031,-4.27683258057,-47.0308799744,0.00220500002615,1.0,0.0,0.0,0.0,1.0,0.0,0.0,0.0,1.0,103.536590576,29.6341457367,10.0,1.0,0.0,0.0,0.0,1.0,0.0,0.0,0.0,1.0,-0.842758984375,0.0287304199219,10.2759135254,1.0,0.0,0.0,0.0,1.0,0.0,0.0,0.0,1.0
1463935094350609184,498,1463935094340699018,,2.08539748192,-3.18597173691,-46.9123382568,0.00147899996955,1.0,0.0,0.0,0.0,1.0,0.0,0.0,0.0,1.0,61.707321167,21.4024391174,6.70731735229,1.0,0.0,0.0,0.0,1.0,0.0,0.0,0.0,1.0,-0.129286889648,-0.172382519531,6.28717355957,1.0,0.0,0.0,0.0,1.0,0.0,0.0,0.0,1.0
1463935094684771870,499,1463935094364335115,,2.55816745758,-2.15766572952,-46.9613952637,0.00281500001438,1.0,0.0,0.0,0.0,1.0,0.0,0.0,0.0,1.0,-10.6707315445,9.45121955872,-6.28048801422,1.0,0.0,0.0,0.0,1.0,0.0,0.0,0.0,1.0,-1.64721074219,4.17548740305,12.0571995605,1.0,0.0,0.0,0.0,1.0,0.0,0.0,0.0,1.0
1463935094692446160,500,1463935094385161953,,2.66863512993,-2.31914186478,-47.0834503174,0.002979000099,1.0,0.0,0.0,0.0,1.0,0.0,0.0,0.0,1.0,20.975610733,6.52439069748,-1.40243899822,1.0,0.0,0.0,0.0,1.0,0.0,0.0,0.0,1.0,0.565031591797,4.19942941965,5.49708701172,1.0,0.0,0.0,0.0,1.0,0.0,0.0,0.0,1.0
1463935094692789128,501,1463935094406202593,,2.79653978348,-2.45846581459,-47.1588287354,0.0029509998858,1.0,0.0,0.0,0.0,1.0,0.0,0.0,0.0,1.0,-1.2195122242,5.91463422775,-3.65853667259,1.0,0.0,0.0,0.0,1.0,0.0,0.0,0.0,1.0,0.866701000977,-0.852335791016,7.36456430664,1.0,0.0,0.0,0.0,1.0,0.0,0.0,0.0,1.0
1463935094693055637,502,1463935094428649840,,2.99753808975,-2.34634971619,-47.1806144714,0.00194700004067,1.0,0.0,0.0,0.0,1.0,0.0,0.0,0.0,1.0,13.841463089,15.0000009537,4.2682929039,1.0,0.0,0.0,0.0,1.0,0.0,0.0,0.0,1.0,-0.0430956298828,-1.08696755371,10.4530844482,1.0,0.0,0.0,0.0,1.0,0.0,0.0,0.0,1.0
1463935094699144101,503,1463935094449110274,,3.1696574688,-2.01194238663,-47.0944671631,0.00199300004169,1.0,0.0,0.0,0.0,1.0,0.0,0.0,0.0,1.0,20.1829280853,13.2926826477,7.37804937363,1.0,0.0,0.0,0.0,1.0,0.0,0.0,0.0,1.0,0.708683691406,-1.1540052002,10.6829278076,1.0,0.0,0.0,0.0,1.0,0.0,0.0,0.0,1.0
1463935094699203996,504,1463935094470460443,,3.39779639244,-1.74467837811,-46.9865150452,0.00158100004774,1.0,0.0,0.0,0.0,1.0,0.0,0.0,0.0,1.0,10.2439022064,15.9146347046,4.32926845551,1.0,0.0,0.0,0.0,1.0,0.0,0.0,0.0,1.0,0.100556469727,-0.751779321289,10.0700121826,1.0,0.0,0.0,0.0,1.0,0.0,0.0,0.0,1.0
1463935094699245090,505,1463935094493614563,,3.52403378487,-1.46492815018,-46.9995269775,0.0020759999752,1.0,0.0,0.0,0.0,1.0,0.0,0.0,0.0,1.0,11.7073173523,8.23170757294,-1.2195122242,1.0,0.0,0.0,0.0,1.0,0.0,0.0,0.0,1.0,0.703895288086,-0.488417138672,10.419565625,1.0,0.0,0.0,0.0,1.0,0.0,0.0,0.0,1.0
1463935094699286287,506,1463935094514706764,,3.61999535561,-1.22275817394,-47.1171073914,0.00252100010403,1.0,0.0,0.0,0.0,1.0,0.0,0.0,0.0,1.0,8.47560977936,6.0365858078,-4.63414621353,1.0,0.0,0.0,0.0,1.0,0.0,0.0,0.0,1.0,-0.387860668945,-0.493205541992,10.3764699951,1.0,0.0,0.0,0.0,1.0,0.0,0.0,0.0,1.0
1463935094702738408,507,1463935094536036569,,3.63959550858,-1.01483356953,-47.2237815857,0.00237499992363,1.0,0.0,0.0,0.0,1.0,0.0,0.0,0.0,1.0,7.01219511032,5.60975599289,-3.47560977936,1.0,0.0,0.0,0.0,1.0,0.0,0.0,0.0,1.0,0.0478840332031,-0.560243188477,10.3812583984,1.0,0.0,0.0,0.0,1.0,0.0,0.0,0.0,1.0
1463935094702907157,508,1463935094556455752,,3.70808076859,-0.865688145161,-47.2730903625,0.00270600011572,1.0,0.0,0.0,0.0,1.0,0.0,0.0,0.0,1.0,6.34146356583,4.08536577225,1.09756100178,1.0,0.0,0.0,0.0,1.0,0.0,0.0,0.0,1.0,-0.181959326172,-0.641646044922,10.299855542,1.0,0.0,0.0,0.0,1.0,0.0,0.0,0.0,1.0
1463935094708210676,509,1463935094577639099,,3.78554201126,-0.724562525749,-47.2412872314,0.00159500003792,1.0,0.0,0.0,0.0,1.0,0.0,0.0,0.0,1.0,3.96341490746,5.18292713165,2.19512200356,1.0,0.0,0.0,0.0,1.0,0.0,0.0,0.0,1.0,-0.402225878906,-0.579396801758,10.524910498,1.0,0.0,0.0,0.0,1.0,0.0,0.0,0.0,1.0
1463935094711876807,510,1463935094598747134,,3.79556298256,-0.662626326084,-47.2451057434,0.00191800005268,1.0,0.0,0.0,0.0,1.0,0.0,0.0,0.0,1.0,1.2195122242,-0.853658556938,-0.792682945728,1.0,0.0,0.0,0.0,1.0,0.0,0.0,0.0,1.0,-0.430956298828,-0.699106884766,10.2376062988,1.0,0.0,0.0,0.0,1.0,0.0,0.0,0.0,1.0
1463935094713365081,511,1463935094619568451,,3.6968793869,-0.645070254803,-47.3002738953,0.0018680000212,1.0,0.0,0.0,0.0,1.0,0.0,0.0,0.0,1.0,0.975609779358,-3.41463422775,-1.70731711388,1.0,0.0,0.0,0.0,1.0,0.0,0.0,0.0,1.0,-0.263362164351,-0.847547387695,10.1753570557,1.0,0.0,0.0,0.0,1.0,0.0,0.0,0.0,1.0
1463935094716362256,512,1463935094641555076,,3.57272839546,-0.638884484768,-47.3267936707,0.00167699996382,1.0,0.0,0.0,0.0,1.0,0.0,0.0,0.0,1.0,1.03658533096,-4.93902444839,0.792682945728,1.0,0.0,0.0,0.0,1.0,0.0,0.0,0.0,1.0,-0.296881024126,-0.900219824219,10.2136642822,1.0,0.0,0.0,0.0,1.0,0.0,0.0,0.0,1.0
1463935094716792306,513,1463935094664476072,,3.35147500038,-0.667906939983,-47.3099517822,0.00211700005457,1.0,0.0,0.0,0.0,1.0,0.0,0.0,0.0,1.0,3.47560977936,-5.67073154449,2.31707310677,1.0,0.0,0.0,0.0,1.0,0.0,0.0,0.0,1.0,1.02471831055,-1.24498486328,9.93593688965,1.0,0.0,0.0,0.0,1.0,0.0,0.0,0.0,1.0
1463935095079370131,514,1463935094689937890,,3.19200730324,-0.646240115166,-47.2115287781,0.00781199987978,1.0,0.0,0.0,0.0,1.0,0.0,0.0,0.0,1.0,2.5,8.65853691101,6.58536624908,1.0,0.0,0.0,0.0,1.0,0.0,0.0,0.0,1.0,1.13485158691,-1.16358193377,10.3285859619,1.0,0.0,0.0,0.0,1.0,0.0,0.0,0.0,1.0
1463935095080037785,515,1463935094712162066,,3.20367717743,-0.619436383247,-47.1799049377,0.00430899998173,1.0,0.0,0.0,0.0,1.0,0.0,0.0,0.0,1.0,0.792682945728,5.73170757294,-3.41463422775,1.0,0.0,0.0,0.0,1.0,0.0,0.0,0.0,1.0,0.603338854892,-0.646434448242,10.2471831055,1.0,0.0,0.0,0.0,1.0,0.0,0.0,0.0,1.0
1463935095081315696,516,1463935094734328117,,3.19936394691,-0.611495494843,-47.3178443909,0.00320399994962,1.0,0.0,0.0,0.0,1.0,0.0,0.0,0.0,1.0,-1.34146344662,4.02439022064,-5.30487823486,1.0,0.0,0.0,0.0,1.0,0.0,0.0,0.0,1.0,0.349553442383,-0.670376464844,10.1753570557,1.0,0.0,0.0,0.0,1.0,0.0,0.0,0.0,1.0
1463935095082191682,517,1463935094754805373,,3.17450428009,-0.579063117504,-47.4183998108,0.00154600001406,1.0,0.0,0.0,0.0,1.0,0.0,0.0,0.0,1.0,-0.609756112099,7.92682981491,-3.41463422775,1.0,0.0,0.0,0.0,1.0,0.0,0.0,0.0,1.0,0.699106884766,-0.325611425781,10.3812583984,1.0,0.0,0.0,0.0,1.0,0.0,0.0,0.0,1.0
1463935095083394281,518,1463935094777628713,,3.32885408401,-0.552169859409,-47.4353103638,0.00300100003369,1.0,0.0,0.0,0.0,1.0,0.0,0.0,0.0,1.0,-0.18292683363,12.1951217651,2.86585378647,1.0,0.0,0.0,0.0,1.0,0.0,0.0,0.0,1.0,0.282515795898,-0.440533105469,10.2376062988,1.0,0.0,0.0,0.0,1.0,0.0,0.0,0.0,1.0
1463935095084004382,519,1463935094799396224,,3.51859092712,-0.527174770832,-47.3818092346,0.00254600006156,1.0,0.0,0.0,0.0,1.0,0.0,0.0,0.0,1.0,-0.670731723309,17.7439022064,2.68292689323,1.0,0.0,0.0,0.0,1.0,0.0,0.0,0.0,1.0,0.435744702148,-0.593762048251,10.1992990723,1.0,0.0,0.0,0.0,1.0,0.0,0.0,0.0,1.0
1463935095084835264,520,1463935094819207962,,3.74845933914,-0.527435302734,-47.3342895508,0.00135000003502,1.0,0.0,0.0,0.0,1.0,0.0,0.0,0.0,1.0,-0.731707334518,20.2439022064,3.71951246262,1.0,0.0,0.0,0.0,1.0,0.0,0.0,0.0,1.0,0.900219824219,-0.46447512207,10.314220752,1.0,0.0,0.0,0.0,1.0,0.0,0.0,0.0,1.0
1463935095085922082,521,1463935094841202972,,4.08089113235,-0.537752568722,-47.2879257202,0.00130100001115,1.0,0.0,0.0,0.0,1.0,0.0,0.0,0.0,1.0,-1.40243899822,25.1219520569,1.8902438879,1.0,0.0,0.0,0.0,1.0,0.0,0.0,0.0,1.0,0.387860668945,-0.560243188477,10.2471831055,1.0,0.0,0.0,0.0,1.0,0.0,0.0,0.0,1.0
1463935095086655985,522,1463935094862874286,,4.51243114471,-0.56448584795,-47.3079681396,0.00180600001477,1.0,0.0,0.0,0.0,1.0,0.0,0.0,0.0,1.0,-0.792682945728,21.0365848541,-1.64634156227,1.0,0.0,0.0,0.0,1.0,0.0,0.0,0.0,1.0,-0.45489831543,-0.737414111328,9.94072529297,1.0,0.0,0.0,0.0,1.0,0.0,0.0,0.0,1.0
1463935095086715933,523,1463935094883315344,,4.87846851349,-0.593341648579,-47.4129867554,0.00188300001901,1.0,0.0,0.0,0.0,1.0,0.0,0.0,0.0,1.0,-0.609756112099,18.9024391174,-4.45121955872,1.0,0.0,0.0,0.0,1.0,0.0,0.0,0.0,1.0,-1.60890351563,-0.837970581055,9.98382092285,1.0,0.0,0.0,0.0,1.0,0.0,0.0,0.0,1.0
1463935095087341191,524,1463935094904170516,,5.2081618309,-0.634390950203,-47.4990081787,0.0013340000296,1.0,0.0,0.0,0.0,1.0,0.0,0.0,0.0,1.0,-1.15853655338,15.4878053665,-0.487804889679,1.0,0.0,0.0,0.0,1.0,0.0,0.0,0.0,1.0,-0.823605371094,-0.876277807617,10.285490332,1.0,0.0,0.0,0.0,1.0,0.0,0.0,0.0,1.0
1463935095087986344,525,1463935094924822667,,5.51195478439,-0.661510825157,-47.509059906,0.00146199995652,1.0,0.0,0.0,0.0,1.0,0.0,0.0,0.0,1.0,-0.731707334518,17.5000019073,1.76829278469,1.0,0.0,0.0,0.0,1.0,0.0,0.0,0.0,1.0,-0.622492431641,-0.794874951172,10.180145459,1.0,0.0,0.0,0.0,1.0,0.0,0.0,0.0,1.0
1463935095088899309,526,1463935094946013931,,5.83206176758,-0.671519339085,-47.4852714539,0.00127100001555,1.0,0.0,0.0,0.0,1.0,0.0,0.0,0.0,1.0,-0.304878056049,14.5731706619,1.70731711388,1.0,0.0,0.0,0.0,1.0,0.0,0.0,0.0,1.0,-0.77093293457,-0.627280834961,9.94072529297,1.0,0.0,0.0,0.0,1.0,0.0,0.0,0.0,1.0
1463935095089229360,527,1463935094967741390,,6.07195568085,-0.677518248558,-47.5141677856,0.00144200003706,1.0,0.0,0.0,0.0,1.0,0.0,0.0,0.0,1.0,-0.670731723309,9.51219558716,-1.8292683363,1.0,0.0,0.0,0.0,1.0,0.0,0.0,0.0,1.0,-0.885854614258,-0.636857641602,10.1466266357,1.0,0.0,0.0,0.0,1.0,0.0,0.0,0.0,1.0
1463935095089536859,528,1463935094988538957,,6.19935274124,-0.682676851749,-47.5845375061,0.00134099996649,1.0,0.0,0.0,0.0,1.0,0.0,0.0,0.0,1.0,-0.670731723309,4.63414621353,-3.35365867615,1.0,0.0,0.0,0.0,1.0,0.0,0.0,0.0,1.0,-0.703895288086,-0.794874951172,10.1753570557,1.0,0.0,0.0,0.0,1.0,0.0,0.0,0.0,1.0
1463935095089789930,529,1463935095009035171,,6.23914384842,-0.693535208702,-47.6664161682,0.00152000004891,1.0,0.0,0.0,0.0,1.0,0.0,0.0,0.0,1.0,-0.792682945728,3.17073178291,-2.74390244484,1.0,0.0,0.0,0.0,1.0,0.0,0.0,0.0,1.0,-0.828393774414,-0.723048901367,10.3190091553,1.0,0.0,0.0,0.0,1.0,0.0,0.0,0.0,1.0
1463935095089835191,530,1463935095030250654,,6.25256156921,-0.710136175156,-47.7240524292,0.00132100004703,1.0,0.0,0.0,0.0,1.0,0.0,0.0,0.0,1.0,-0.853658556938,2.25609779358,-0.731707334518,1.0,0.0,0.0,0.0,1.0,0.0,0.0,0.0,1.0,-0.742202514648,-0.756567724609,10.1370498291,1.0,0.0,0.0,0.0,1.0,0.0,0.0,0.0,1.0
1463935095090190450,531,1463935095051482594,,6.26523685455,-0.724912166595,-47.7473983765,0.00133300002199,1.0,0.0,0.0,0.0,1.0,0.0,0.0,0.0,1.0,-0.304878056049,0.914634168148,0.548780500889,1.0,0.0,0.0,0.0,1.0,0.0,0.0,0.0,1.0,-0.948103857422,-0.742202514648,10.2471831055,1.0,0.0,0.0,0.0,1.0,0.0,0.0,0.0,1.0
1463935095090592323,532,1463935095071933132,,6.22380638123,-0.736906170845,-47.7643814087,0.00127000000793,1.0,0.0,0.0,0.0,1.0,0.0,0.0,0.0,1.0,-0.304878056049,-1.58536589146,-0.243902444839,1.0,0.0,0.0,0.0,1.0,0.0,0.0,0.0,1.0,-0.651222851562,-0.723048901367,10.1466266357,1.0,0.0,0.0,0.0,1.0,0.0,0.0,0.0,1.0
1463935095320923942,533,1463935095095782561,,6.10477542877,-0.739608466625,-47.7958106995,0.00671500014141,1.0,0.0,0.0,0.0,1.0,0.0,0.0,0.0,1.0,-0.18292683363,-3.10975623131,-0.365853667259,1.0,0.0,0.0,0.0,1.0,0.0,0.0,0.0,1.0,-0.670376464844,-0.632069238281,10.1370498291,1.0,0.0,0.0,0.0,1.0,0.0,0.0,0.0,1.0
1463935095321389982,534,1463935095117055751,,5.96419286728,-0.729574620724,-47.8162689209,0.00146900000982,1.0,0.0,0.0,0.0,1.0,0.0,0.0,0.0,1.0,0.0,-3.84146332741,0.243902444839,1.0,0.0,0.0,0.0,1.0,0.0,0.0,0.0,1.0,-0.636857641602,-0.756567724609,10.2184526855,1.0,0.0,0.0,0.0,1.0,0.0,0.0,0.0,1.0
1463935095322072791,535,1463935095138976595,,5.8154759407,-0.726558864117,-47.8490257263,0.00146499997936,1.0,0.0,0.0,0.0,1.0,0.0,0.0,0.0,1.0,-0.12195122242,-6.21951246262,-1.03658533096,1.0,0.0,0.0,0.0,1.0,0.0,0.0,0.0,1.0,-0.76614453125,-0.703895288086,10.2184526855,1.0,0.0,0.0,0.0,1.0,0.0,0.0,0.0,1.0
1463935095322518779,536,1463935095159646142,,5.63016700745,-0.735244035721,-47.8970985413,0.00139500002842,1.0,0.0,0.0,0.0,1.0,0.0,0.0,0.0,1.0,-0.0609756112099,-8.35365867615,-1.15853655338,1.0,0.0,0.0,0.0,1.0,0.0,0.0,0.0,1.0,-0.732625708008,-0.775721337891,10.0795889893,1.0,0.0,0.0,0.0,1.0,0.0,0.0,0.0,1.0
1463935095323689243,537,1463935095180339075,,5.40646457672,-0.740141510963,-47.9229164124,0.00136899994686,1.0,0.0,0.0,0.0,1.0,0.0,0.0,0.0,1.0,0.243902444839,-8.96341514587,0.487804889679,1.0,0.0,0.0,0.0,1.0,0.0,0.0,0.0,1.0,-0.502782348633,-0.737414111328,10.1753570557,1.0,0.0,0.0,0.0,1.0,0.0,0.0,0.0,1.0
1463935095324378980,538,1463935095202382209,,5.13154935837,-0.730574905872,-47.9354019165,0.00180500000715,1.0,0.0,0.0,0.0,1.0,0.0,0.0,0.0,1.0,0.0,-9.63414573669,-0.12195122242,1.0,0.0,0.0,0.0,1.0,0.0,0.0,0.0,1.0,-0.229843359375,-0.598550451572,10.2136642822,1.0,0.0,0.0,0.0,1.0,0.0,0.0,0.0,1.0
1463935095325276372,539,1463935095224632114,,4.81629514694,-0.719486892223,-47.9637413025,0.00219499995001,1.0,0.0,0.0,0.0,1.0,0.0,0.0,0.0,1.0,0.12195122242,-9.5731716156,-0.426829278469,1.0,0.0,0.0,0.0,1.0,0.0,0.0,0.0,1.0,0.0718260498047,-0.723048901367,10.2471831055,1.0,0.0,0.0,0.0,1.0,0.0,0.0,0.0,1.0
1463935095326358450,540,1463935095245459682,,4.53425168991,-0.713121235371,-47.9844284058,0.00149199995212,1.0,0.0,0.0,0.0,1.0,0.0,0.0,0.0,1.0,-0.243902444839,-6.70731735229,0.426829278469,1.0,0.0,0.0,0.0,1.0,0.0,0.0,0.0,1.0,0.210689746094,-0.670376464844,10.2423947021,1.0,0.0,0.0,0.0,1.0,0.0,0.0,0.0,1.0
1463935095327435894,541,1463935095267179328,,4.2926607132,-0.71562319994,-47.9919509888,0.00134399998933,1.0,0.0,0.0,0.0,1.0,0.0,0.0,0.0,1.0,-0.243902444839,-2.98780488968,0.609756112099,1.0,0.0,0.0,0.0,1.0,0.0,0.0,0.0,1.0,0.31124621582,-0.76614453125,10.1897222656,1.0,0.0,0.0,0.0,1.0,0.0,0.0,0.0,1.0
1463935095327668236,542,1463935095288784913,,4.12674665451,-0.721826970577,-48.0066184998,0.00135599996429,1.0,0.0,0.0,0.0,1.0,0.0,0.0,0.0,1.0,-0.304878056049,-0.731707334518,0.0,1.0,0.0,0.0,0.0,1.0,0.0,0.0,0.0,1.0,0.378283862305,-0.737414111328,10.1897222656,1.0,0.0,0.0,0.0,1.0,0.0,0.0,0.0,1.0
1463935095327715580,543,1463935095310198467,,4.00899410248,-0.72724622488,-48.0352325439,0.00154800002929,1.0,0.0,0.0,0.0,1.0,0.0,0.0,0.0,1.0,-0.426829278469,1.34146344662,-0.609756112099,1.0,0.0,0.0,0.0,1.0,0.0,0.0,0.0,1.0,0.316034619141,-0.651222851562,10.1035310059,1.0,0.0,0.0,0.0,1.0,0.0,0.0,0.0,1.0
1463935095451728695,544,1463935095331591397,,3.95996546745,-0.730877459049,-48.0663833618,0.00149599998258,1.0,0.0,0.0,0.0,1.0,0.0,0.0,0.0,1.0,-0.12195122242,3.84146332741,-0.365853667259,1.0,0.0,0.0,0.0,1.0,0.0,0.0,0.0,1.0,0.162805712891,-0.646434448242,10.299855542,1.0,0.0,0.0,0.0,1.0,0.0,0.0,0.0,1.0
1463935095452320672,545,1463935095353185836,,3.97610807419,-0.730081796646,-48.0827903748,0.00158100004774,1.0,0.0,0.0,0.0,1.0,0.0,0.0,0.0,1.0,-0.731707334518,5.24390268326,0.0,1.0,0.0,0.0,0.0,1.0,0.0,0.0,0.0,1.0,0.076614453125,-0.665588061523,10.3477395752,1.0,0.0,0.0,0.0,1.0,0.0,0.0,0.0,1.0
1463935095452880670,546,1463935095374759962,,4.02319860458,-0.727011144161,-48.1002197266,0.00148400000762,1.0,0.0,0.0,0.0,1.0,0.0,0.0,0.0,1.0,-0.670731723309,5.60975599289,0.12195122242,1.0,0.0,0.0,0.0,1.0,0.0,0.0,0.0,1.0,-0.0861912597656,-0.684741674805,10.1992990723,1.0,0.0,0.0,0.0,1.0,0.0,0.0,0.0,1.0
1463935095454032227,547,1463935095396496588,,4.07890844345,-0.731326401234,-48.1126823425,0.00151099998038,1.0,0.0,0.0,0.0,1.0,0.0,0.0,0.0,1.0,-0.792682945728,6.28048801422,0.426829278469,1.0,0.0,0.0,0.0,1.0,0.0,0.0,0.0,1.0,0.00478840332031,-0.723048901367,10.2376062988,1.0,0.0,0.0,0.0,1.0,0.0,0.0,0.0,1.0
1463935095455056754,548,1463935095418184360,,4.15937423706,-0.738950967789,-48.1324424744,0.00162400002591,1.0,0.0,0.0,0.0,1.0,0.0,0.0,0.0,1.0,-0.609756112099,5.67073154449,-0.731707334518,1.0,0.0,0.0,0.0,1.0,0.0,0.0,0.0,1.0,-0.416591088867,-0.76135612793,10.1035310059,1.0,0.0,0.0,0.0,1.0,0.0,0.0,0.0,1.0
1463935095455739355,549,1463935095439831663,,4.22184944153,-0.74850744009,-48.1728286743,0.00145900005009,1.0,0.0,0.0,0.0,1.0,0.0,0.0,0.0,1.0,-0.548780500889,3.7804877758,-0.731707334518,1.0,0.0,0.0,0.0,1.0,0.0,0.0,0.0,1.0,-0.45489831543,-0.651222851562,10.2184526855,1.0,0.0,0.0,0.0,1.0,0.0,0.0,0.0,1.0
1463935095531223512,550,1463935095461113760,,4.25382232666,-0.757977724075,-48.1799621582,0.00139899994247,1.0,0.0,0.0,0.0,1.0,0.0,0.0,0.0,1.0,-0.609756112099,4.75609779358,1.58536589146,1.0,0.0,0.0,0.0,1.0,0.0,0.0,0.0,1.0,-0.124498486328,-0.679953271484,10.1322614258,1.0,0.0,0.0,0.0,1.0,0.0,0.0,0.0,1.0
1463935095531291637,551,1463935095482352210,,4.28450632095,-0.765279233456,-48.1655235291,0.00147200003266,1.0,0.0,0.0,0.0,1.0,0.0,0.0,0.0,1.0,-0.304878056049,5.24390268326,1.09756100178,1.0,0.0,0.0,0.0,1.0,0.0,0.0,0.0,1.0,-0.0909796630859,-0.694318481445,10.2040874756,1.0,0.0,0.0,0.0,1.0,0.0,0.0,0.0,1.0
1463935095531861790,552,1463935095502975612,,4.30741739273,-0.77499461174,-48.1873550415,0.00182000000495,1.0,0.0,0.0,0.0,1.0,0.0,0.0,0.0,1.0,-0.304878056049,4.75609779358,-0.365853667259,1.0,0.0,0.0,0.0,1.0,0.0,0.0,0.0,1.0,-0.0909796630859,-0.723048901367,10.2280294922,1.0,0.0,0.0,0.0,1.0,0.0,0.0,0.0,1.0
1463935095532618662,553,1463935095524544895,,4.34328937531,-0.783778548241,-48.2170791626,0.00128199998289,1.0,0.0,0.0,0.0,1.0,0.0,0.0,0.0,1.0,-0.365853667259,6.82926845551,0.12195122242,1.0,0.0,0.0,0.0,1.0,0.0,0.0,0.0,1.0,-0.067037651051,-0.670376464844,10.2328178955,1.0,0.0,0.0,0.0,1.0,0.0,0.0,0.0,1.0
1463935095573117239,554,1463935095546467770,,4.42943096161,-0.791360676289,-48.2273826599,0.00153899996076,1.0,0.0,0.0,0.0,1.0,0.0,0.0,0.0,1.0,-0.426829278469,7.86585378647,0.670731723309,1.0,0.0,0.0,0.0,1.0,0.0,0.0,0.0,1.0,-0.191536132812,-0.699106884766,10.3190091553,1.0,0.0,0.0,0.0,1.0,0.0,0.0,0.0,1.0
1463935095574416296,555,1463935095567353253,,4.52499294281,-0.795877695084,-48.2453536987,0.00158299994655,1.0,0.0,0.0,0.0,1.0,0.0,0.0,0.0,1.0,-0.609756112099,7.43902492523,0.0,1.0,0.0,0.0,0.0,1.0,0.0,0.0,0.0,1.0,-0.330399829102,-0.665588061523,10.1945106689,1.0,0.0,0.0,0.0,1.0,0.0,0.0,0.0,1.0
1463935095611863219,556,1463935095588910974,,4.62151050568,-0.798090517521,-48.2691917419,0.00147699995432,1.0,0.0,0.0,0.0,1.0,0.0,0.0,0.0,1.0,-0.487804889679,7.31707334518,0.12195122242,1.0,0.0,0.0,0.0,1.0,0.0,0.0,0.0,1.0,-0.349553442383,-0.646434448242,10.0891657959,1.0,0.0,0.0,0.0,1.0,0.0,0.0,0.0,1.0
1463935095616220753,557,1463935095613612691,,4.72958755493,-0.809037983418,-48.2830276489,0.00169099995401,1.0,0.0,0.0,0.0,1.0,0.0,0.0,0.0,1.0,-0.304878056049,7.37804937363,0.609756112099,1.0,0.0,0.0,0.0,1.0,0.0,0.0,0.0,1.0,-0.407014282227,-0.780509741211,10.1514150391,1.0,0.0,0.0,0.0,1.0,0.0,0.0,0.0,1.0
1463935095635852596,558,1463935095632845942,,4.82793998718,-0.823880553246,-48.2989654541,0.00160299998242,1.0,0.0,0.0,0.0,1.0,0.0,0.0,0.0,1.0,-0.731707334518,6.89024400711,0.243902444839,1.0,0.0,0.0,0.0,1.0,0.0,0.0,0.0,1.0,-0.435744702148,-0.699106884766,10.2232410889,1.0,0.0,0.0,0.0,1.0,0.0,0.0,0.0,1.0
1463935095656838704,559,1463935095653626114,,4.9150261879,-0.827247977257,-48.3162269592,0.00139099999797,1.0,0.0,0.0,0.0,1.0,0.0,0.0,0.0,1.0,-0.609756112099,6.21951246262,0.0609756112099,1.0,0.0,0.0,0.0,1.0,0.0,0.0,0.0,1.0,-0.488417138672,-0.651222851562,10.0412817627,1.0,0.0,0.0,0.0,1.0,0.0,0.0,0.0,1.0
1463935095677498459,560,1463935095675024876,,4.99289035797,-0.826421797276,-48.3376121521,0.0014969999902,1.0,0.0,0.0,0.0,1.0,0.0,0.0,0.0,1.0,-0.670731723309,4.93902444839,0.12195122242,1.0,0.0,0.0,0.0,1.0,0.0,0.0,0.0,1.0,-0.627280834961,-0.670376464844,10.1322614258,1.0,0.0,0.0,0.0,1.0,0.0,0.0,0.0,1.0
1463935095698649567,561,1463935095696233171,,5.04829931259,-0.82410389185,-48.3624305725,0.00152599997818,1.0,0.0,0.0,0.0,1.0,0.0,0.0,0.0,1.0,-0.304878056049,2.86585378647,-0.365853667259,1.0,0.0,0.0,0.0,1.0,0.0,0.0,0.0,1.0,-0.876277807617,-0.665588061523,10.2471831055,1.0,0.0,0.0,0.0,1.0,0.0,0.0,0.0,1.0
1463935095719208021,562,1463935095716631209,,5.05844974518,-0.829075694084,-48.3900184631,0.00155100005213,1.0,0.0,0.0,0.0,1.0,0.0,0.0,0.0,1.0,-0.487804889679,0.609756112099,0.12195122242,1.0,0.0,0.0,0.0,1.0,0.0,0.0,0.0,1.0,-0.828393774414,-0.646434448242,10.1753570557,1.0,0.0,0.0,0.0,1.0,0.0,0.0,0.0,1.0
1463935095739720277,563,1463935095737909243,,5.02021598816,-0.841163218021,-48.4145202637,0.00125700002536,1.0,0.0,0.0,0.0,1.0,0.0,0.0,0.0,1.0,-0.0609756112099,-0.914634168148,0.18292683363,1.0,0.0,0.0,0.0,1.0,0.0,0.0,0.0,1.0,-0.407014282227,-0.852335791016,10.1705686523,1.0,0.0,0.0,0.0,1.0,0.0,0.0,0.0,1.0
1463935095763310384,564,1463935095759487588,,4.94426679611,-0.85623729229,-48.4193344116,0.00171500002034,1.0,0.0,0.0,0.0,1.0,0.0,0.0,0.0,1.0,-0.18292683363,0.18292683363,1.15853655338,1.0,0.0,0.0,0.0,1.0,0.0,0.0,0.0,1.0,-0.272938989258,-0.833182177734,10.3381627686,1.0,0.0,0.0,0.0,1.0,0.0,0.0,0.0,1.0
1463935095781660097,565,1463935095779747241,,4.8575053215,-0.86185580492,-48.4218559265,0.00119199999608,1.0,0.0,0.0,0.0,1.0,0.0,0.0,0.0,1.0,-0.304878056049,1.52439022064,0.853658556938,1.0,0.0,0.0,0.0,1.0,0.0,0.0,0.0,1.0,0.0335188255255,-0.723048901367,10.1178962158,1.0,0.0,0.0,0.0,1.0,0.0,0.0,0.0,1.0
1463935095805456037,566,1463935095800575277,,4.79392528534,-0.862821161747,-48.4437866211,0.00119500001892,1.0,0.0,0.0,0.0,1.0,0.0,0.0,0.0,1.0,-0.243902444839,2.37804889679,-0.365853667259,1.0,0.0,0.0,0.0,1.0,0.0,0.0,0.0,1.0,0.148440512063,-0.76135612793,10.1705686523,1.0,0.0,0.0,0.0,1.0,0.0,0.0,0.0,1.0
1463935095826024647,567,1463935095822086175,,4.78087615967,-0.863217890263,-48.4732131958,0.00124000001233,1.0,0.0,0.0,0.0,1.0,0.0,0.0,0.0,1.0,-0.792682945728,5.48780488968,-0.0609756112099,1.0,0.0,0.0,0.0,1.0,0.0,0.0,0.0,1.0,-0.119710083008,-0.512359155273,10.1992990723,1.0,0.0,0.0,0.0,1.0,0.0,0.0,0.0,1.0
1463935095846200394,568,1463935095843481187,,4.83415222168,-0.861597120762,-48.4898490906,0.00111599999946,1.0,0.0,0.0,0.0,1.0,0.0,0.0,0.0,1.0,-0.365853667259,6.40243911743,0.304878056049,1.0,0.0,0.0,0.0,1.0,0.0,0.0,0.0,1.0,-0.196324536133,-0.651222851562,10.0843773926,1.0,0.0,0.0,0.0,1.0,0.0,0.0,0.0,1.0
1463935095868793944,569,1463935095865593280,,4.91485214233,-0.862781345844,-48.5070991516,0.00165899994317,1.0,0.0,0.0,0.0,1.0,0.0,0.0,0.0,1.0,-0.487804889679,7.07317113876,0.18292683363,1.0,0.0,0.0,0.0,1.0,0.0,0.0,0.0,1.0,-0.296881024126,-0.665588061523,10.2328178955,1.0,0.0,0.0,0.0,1.0,0.0,0.0,0.0,1.0
1463935095900764015,570,1463935095886843189,,5.00000572205,-0.862257957458,-48.527130127,0.00165700004436,1.0,0.0,0.0,0.0,1.0,0.0,0.0,0.0,1.0,-0.487804889679,7.25609779358,0.0609756112099,1.0,0.0,0.0,0.0,1.0,0.0,0.0,0.0,1.0,-0.335188232422,-0.689530078125,10.1992990723,1.0,0.0,0.0,0.0,1.0,0.0,0.0,0.0,1.0
1463935095924015843,571,1463935095910987149,,5.1038942337,-0.862568497658,-48.5505447388,0.00573199987411,1.0,0.0,0.0,0.0,1.0,0.0,0.0,0.0,1.0,-0.365853667259,5.97560977936,0.0609756112099,1.0,0.0,0.0,0.0,1.0,0.0,0.0,0.0,1.0,-0.588973571866,-0.555454785156,10.1274730225,1.0,0.0,0.0,0.0,1.0,0.0,0.0,0.0,1.0
1463935095943650915,572,1463935095935308243,,5.19404363632,-0.875288844109,-48.5757102966,0.00511700008065,1.0,0.0,0.0,0.0,1.0,0.0,0.0,0.0,1.0,-0.426829278469,4.69512224197,0.12195122242,1.0,0.0,0.0,0.0,1.0,0.0,0.0,0.0,1.0,-0.895431420898,-0.804451757813,10.0221281494,1.0,0.0,0.0,0.0,1.0,0.0,0.0,0.0,1.0
1463935095958725330,573,1463935095951810099,,5.23662042618,-0.886922240257,-48.6038894653,0.0018680000212,1.0,0.0,0.0,0.0,1.0,0.0,0.0,0.0,1.0,-0.0609756112099,2.31707310677,-0.18292683363,1.0,0.0,0.0,0.0,1.0,0.0,0.0,0.0,1.0,-0.560243188477,-0.732625708008,10.2376062988,1.0,0.0,0.0,0.0,1.0,0.0,0.0,0.0,1.0
1463935095976781971,574,1463935095973816515,,5.24093770981,-0.89156383276,-48.6357307434,0.00157399999443,1.0,0.0,0.0,0.0,1.0,0.0,0.0,0.0,1.0,-0.426829278469,0.731707334518,-0.487804889679,1.0,0.0,0.0,0.0,1.0,0.0,0.0,0.0,1.0,-0.61770402832,-0.790086547852,10.1178962158,1.0,0.0,0.0,0.0,1.0,0.0,0.0,0.0,1.0
1463935096000541453,575,1463935095997213082,,5.20846986771,-0.90247875452,-48.6632385254,0.00367700005881,1.0,0.0,0.0,0.0,1.0,0.0,0.0,0.0,1.0,-0.731707334518,0.731707334518,0.548780500889,1.0,0.0,0.0,0.0,1.0,0.0,0.0,0.0,1.0,-0.497993945312,-0.751779321289,10.2711251221,1.0,0.0,0.0,0.0,1.0,0.0,0.0,0.0,1.0
1463935096130217513,576,1463935096018824344,,5.16078710556,-0.901723921299,-48.6730232239,0.00136400002521,1.0,0.0,0.0,0.0,1.0,0.0,0.0,0.0,1.0,-0.12195122242,-0.548780500889,0.365853667259,1.0,0.0,0.0,0.0,1.0,0.0,0.0,0.0,1.0,-0.483628735352,-0.694318481445,10.1514150391,1.0,0.0,0.0,0.0,1.0,0.0,0.0,0.0,1.0
1463935096130300065,577,1463935096040917583,,5.084877491,-0.897952377796,-48.6926460266,0.00122099998407,1.0,0.0,0.0,0.0,1.0,0.0,0.0,0.0,1.0,0.0,0.0,0.0,1.0,0.0,0.0,0.0,1.0,0.0,0.0,0.0,1.0,-0.172382519531,-0.670376464844,10.2615483154,1.0,0.0,0.0,0.0,1.0,0.0,0.0,0.0,1.0
1463935096130956208,578,1463935096061279839,,5.01256513596,-0.892630338669,-48.708366394,0.00258200010285,1.0,0.0,0.0,0.0,1.0,0.0,0.0,0.0,1.0,-0.243902444839,2.07317066193,0.548780500889,1.0,0.0,0.0,0.0,1.0,0.0,0.0,0.0,1.0,-0.0287304199219,-0.555454785156,10.3621047852,1.0,0.0,0.0,0.0,1.0,0.0,0.0,0.0,1.0
1463935096131511362,579,1463935096081733450,,4.99047803879,-0.885717213154,-48.7253112793,0.00334600009955,1.0,0.0,0.0,0.0,1.0,0.0,0.0,0.0,1.0,-0.609756112099,2.43902444839,-0.243902444839,1.0,0.0,0.0,0.0,1.0,0.0,0.0,0.0,1.0,-0.407014282227,-0.689530078125,10.1035310059,1.0,0.0,0.0,0.0,1.0,0.0,0.0,0.0,1.0
1463935096233100355,580,1463935096103565857,,4.98510408401,-0.884909808636,-48.7681312561,0.00155499996617,1.0,0.0,0.0,0.0,1.0,0.0,0.0,0.0,1.0,-0.365853667259,1.8902438879,-0.975609779358,1.0,0.0,0.0,0.0,1.0,0.0,0.0,0.0,1.0,-0.588973571866,-0.699106884766,10.0125513428,1.0,0.0,0.0,0.0,1.0,0.0,0.0,0.0,1.0
1463935096233593321,581,1463935096124998786,,4.97552156448,-0.887107729912,-48.7982902527,0.00131500000134,1.0,0.0,0.0,0.0,1.0,0.0,0.0,0.0,1.0,-0.243902444839,1.03658533096,0.731707334518,1.0,0.0,0.0,0.0,1.0,0.0,0.0,0.0,1.0,-0.0861912597656,-0.790086547852,10.2136642822,1.0,0.0,0.0,0.0,1.0,0.0,0.0,0.0,1.0
1463935096234056653,582,1463935096145558906,,4.98015213013,-0.894461631775,-48.8131523132,0.001304000034,1.0,0.0,0.0,0.0,1.0,0.0,0.0,0.0,1.0,-0.0609756112099,-1.58536589146,0.365853667259,1.0,0.0,0.0,0.0,1.0,0.0,0.0,0.0,1.0,-0.933738647461,-0.703895288086,10.0891657959,1.0,0.0,0.0,0.0,1.0,0.0,0.0,0.0,1.0
1463935096234421287,583,1463935096171736503,,4.86522722244,-0.891906559467,-48.8394813538,0.00595000013709,1.0,0.0,0.0,0.0,1.0,0.0,0.0,0.0,1.0,-0.12195122242,-3.35365867615,-0.0609756112099,1.0,0.0,0.0,0.0,1.0,0.0,0.0,0.0,1.0,-0.497993945312,-0.742202514648,10.3573163818,1.0,0.0,0.0,0.0,1.0,0.0,0.0,0.0,1.0
1463935096234689098,584,1463935096193085682,,4.73375749588,-0.890180647373,-48.8570289612,0.00153699994553,1.0,0.0,0.0,0.0,1.0,0.0,0.0,0.0,1.0,-0.365853667259,-3.53658556938,0.304878056049,1.0,0.0,0.0,0.0,1.0,0.0,0.0,0.0,1.0,-0.272938989258,-0.713472094727,10.2088758789,1.0,0.0,0.0,0.0,1.0,0.0,0.0,0.0,1.0
1463935096234928680,585,1463935096214254342,,4.59304141998,-0.887209177017,-48.8708724976,0.00263000000268,1.0,0.0,0.0,0.0,1.0,0.0,0.0,0.0,1.0,-0.18292683363,-2.43902444839,0.0609756112099,1.0,0.0,0.0,0.0,1.0,0.0,0.0,0.0,1.0,-0.0861912597656,-0.756567724609,10.2088758789,1.0,0.0,0.0,0.0,1.0,0.0,0.0,0.0,1.0
1463935096330072805,586,1463935096234383266,,4.4770655632,-0.882449567318,-48.8901443481,0.00139200000558,1.0,0.0,0.0,0.0,1.0,0.0,0.0,0.0,1.0,-0.0609756112099,-1.46341466904,0.0609756112099,1.0,0.0,0.0,0.0,1.0,0.0,0.0,0.0,1.0,-0.210689746094,-0.603338854892,10.1274730225,1.0,0.0,0.0,0.0,1.0,0.0,0.0,0.0,1.0
1463935096330880197,587,1463935096255648123,,4.38907194138,-0.873919308186,-48.9324378967,0.00130700005684,1.0,0.0,0.0,0.0,1.0,0.0,0.0,0.0,1.0,0.0,-2.07317066193,-1.70731711388,1.0,0.0,0.0,0.0,1.0,0.0,0.0,0.0,1.0,-0.474051928711,-0.723048901367,10.1322614258,1.0,0.0,0.0,0.0,1.0,0.0,0.0,0.0,1.0
1463935096331283425,588,1463935096276480638,,4.30197143555,-0.870671212673,-48.9724655151,0.00127999996766,1.0,0.0,0.0,0.0,1.0,0.0,0.0,0.0,1.0,-0.304878056049,-2.31707310677,-0.12195122242,1.0,0.0,0.0,0.0,1.0,0.0,0.0,0.0,1.0,-0.416591088867,-0.790086547852,10.3381627686,1.0,0.0,0.0,0.0,1.0,0.0,0.0,0.0,1.0
1463935096331484205,589,1463935096297493986,,4.2092051506,-0.868221640587,-48.9762077332,0.00133200001437,1.0,0.0,0.0,0.0,1.0,0.0,0.0,0.0,1.0,-0.0609756112099,-2.25609779358,0.853658556938,1.0,0.0,0.0,0.0,1.0,0.0,0.0,0.0,1.0,-0.392649072266,-0.727837304687,10.1418382324,1.0,0.0,0.0,0.0,1.0,0.0,0.0,0.0,1.0
1463935096381342898,590,1463935096318893113,,4.09097099304,-0.865453481674,-48.9898071289,0.00132399995346,1.0,0.0,0.0,0.0,1.0,0.0,0.0,0.0,1.0,-0.12195122242,-3.29268312454,-0.487804889679,1.0,0.0,0.0,0.0,1.0,0.0,0.0,0.0,1.0,-0.201112939453,-0.689530078125,10.1178962158,1.0,0.0,0.0,0.0,1.0,0.0,0.0,0.0,1.0
1463935096382212634,591,1463935096339709222,,3.95886015892,-0.859956622124,-49.0229568481,0.00145900005009,1.0,0.0,0.0,0.0,1.0,0.0,0.0,0.0,1.0,-0.0609756112099,-2.86585378647,-0.609756112099,1.0,0.0,0.0,0.0,1.0,0.0,0.0,0.0,1.0,-0.148440512063,-0.627280834961,10.1753570557,1.0,0.0,0.0,0.0,1.0,0.0,0.0,0.0,1.0
1463935096382705913,592,1463935096361573608,,3.84171104431,-0.852863788605,-49.038269043,0.00153600005433,1.0,0.0,0.0,0.0,1.0,0.0,0.0,0.0,1.0,0.12195122242,-0.914634168148,0.609756112099,1.0,0.0,0.0,0.0,1.0,0.0,0.0,0.0,1.0,0.0335188255255,-0.742202514648,10.2376062988,1.0,0.0,0.0,0.0,1.0,0.0,0.0,0.0,1.0
1463935096412061986,593,1463935096382843621,,3.76025938988,-0.848442256451,-49.0491294861,0.0014009999577,1.0,0.0,0.0,0.0,1.0,0.0,0.0,0.0,1.0,-0.304878056049,0.731707334518,0.0609756112099,1.0,0.0,0.0,0.0,1.0,0.0,0.0,0.0,1.0,-0.0718260498047,-0.727837304687,10.1945106689,1.0,0.0,0.0,0.0,1.0,0.0,0.0,0.0,1.0
1463935096413105731,594,1463935096404163373,,3.70776867867,-0.848935365677,-49.0785636902,0.00136700004805,1.0,0.0,0.0,0.0,1.0,0.0,0.0,0.0,1.0,-0.243902444839,1.03658533096,-0.670731723309,1.0,0.0,0.0,0.0,1.0,0.0,0.0,0.0,1.0,-0.119710083008,-0.775721337891,10.2136642822,1.0,0.0,0.0,0.0,1.0,0.0,0.0,0.0,1.0
1463935096431287216,595,1463935096426014895,,3.67507505417,-0.858801364899,-49.1117134094,0.00147799996193,1.0,0.0,0.0,0.0,1.0,0.0,0.0,0.0,1.0,-0.426829278469,2.62195134163,0.0609756112099,1.0,0.0,0.0,0.0,1.0,0.0,0.0,0.0,1.0,-0.172382519531,-0.718260498047,10.1370498291,1.0,0.0,0.0,0.0,1.0,0.0,0.0,0.0,1.0
1463935096450588175,596,1463935096447894645,,3.67974972725,-0.871348679066,-49.1178436279,0.00140700000338,1.0,0.0,0.0,0.0,1.0,0.0,0.0,0.0,1.0,-0.487804889679,3.29268312454,0.792682945728,1.0,0.0,0.0,0.0,1.0,0.0,0.0,0.0,1.0,-0.205901342773,-0.723048901367,10.2088758789,1.0,0.0,0.0,0.0,1.0,0.0,0.0,0.0,1.0
1463935096471876157,597,1463935096469750124,,3.69422602654,-0.875349402428,-49.139175415,0.00155499996617,1.0,0.0,0.0,0.0,1.0,0.0,0.0,0.0,1.0,-0.670731723309,2.19512200356,-0.487804889679,1.0,0.0,0.0,0.0,1.0,0.0,0.0,0.0,1.0,-0.339976635742,-0.689530078125,10.1945106689,1.0,0.0,0.0,0.0,1.0,0.0,0.0,0.0,1.0
1463935096493740074,598,1463935096490666910,,3.70677018166,-0.881867110729,-49.1628761292,0.0015040000435,1.0,0.0,0.0,0.0,1.0,0.0,0.0,0.0,1.0,-0.304878056049,2.25609779358,0.609756112099,1.0,0.0,0.0,0.0,1.0,0.0,0.0,0.0,1.0,-0.45489831543,-0.742202514648,10.2088758789,1.0,0.0,0.0,0.0,1.0,0.0,0.0,0.0,1.0
1463935096536138486,599,1463935096516401904,,3.69597125053,-0.887622416019,-49.1828727722,0.00583499995992,1.0,0.0,0.0,0.0,1.0,0.0,0.0,0.0,1.0,-0.426829278469,1.40243899822,-0.487804889679,1.0,0.0,0.0,0.0,1.0,0.0,0.0,0.0,1.0,-0.292092584273,-0.837970581055,10.1514150391,1.0,0.0,0.0,0.0,1.0,0.0,0.0,0.0,1.0
1463935096564186335,600,1463935096537493428,,3.67146396637,-0.888793706894,-49.2072753906,0.00154600001406,1.0,0.0,0.0,0.0,1.0,0.0,0.0,0.0,1.0,-0.426829278469,0.487804889679,-0.243902444839,1.0,0.0,0.0,0.0,1.0,0.0,0.0,0.0,1.0,-0.272938989258,-0.694318481445,10.0795889893,1.0,0.0,0.0,0.0,1.0,0.0,0.0,0.0,1.0
1463935096564228939,601,1463935096558293339,,3.63911890984,-0.894946575165,-49.2311935425,0.00148500001524,1.0,0.0,0.0,0.0,1.0,0.0,0.0,0.0,1.0,-0.365853667259,0.304878056049,-0.304878056049,1.0,0.0,0.0,0.0,1.0,0.0,0.0,0.0,1.0,-0.316034619141,-0.732625708008,10.3237975586,1.0,0.0,0.0,0.0,1.0,0.0,0.0,0.0,1.0
1463935096584055729,602,1463935096581482615,,3.59244847298,-0.892460763454,-49.2481498718,0.00207799999043,1.0,0.0,0.0,0.0,1.0,0.0,0.0,0.0,1.0,-0.12195122242,0.0,0.487804889679,1.0,0.0,0.0,0.0,1.0,0.0,0.0,0.0,1.0,-0.0861912597656,-0.612915625,10.1705686523,1.0,0.0,0.0,0.0,1.0,0.0,0.0,0.0,1.0
1463935096604801943,603,1463935096602849243,,3.54086732864,-0.887646019459,-49.2576637268,0.00186499999836,1.0,0.0,0.0,0.0,1.0,0.0,0.0,0.0,1.0,-0.487804889679,0.670731723309,0.487804889679,1.0,0.0,0.0,0.0,1.0,0.0,0.0,0.0,1.0,-0.201112939453,-0.603338854892,10.1131078125,1.0,0.0,0.0,0.0,1.0,0.0,0.0,0.0,1.0
1463935096626947994,604,1463935096624400869,,3.49635219574,-0.879105448723,-49.2764472961,0.00186600000598,1.0,0.0,0.0,0.0,1.0,0.0,0.0,0.0,1.0,-0.243902444839,0.914634168148,-0.365853667259,1.0,0.0,0.0,0.0,1.0,0.0,0.0,0.0,1.0,-0.0909796630859,-0.560243188477,10.2136642822,1.0,0.0,0.0,0.0,1.0,0.0,0.0,0.0,1.0
1463935096647327698,605,1463935096645476508,,3.45642900467,-0.877081692219,-49.3056030273,0.00166700000409,1.0,0.0,0.0,0.0,1.0,0.0,0.0,0.0,1.0,-0.548780500889,0.853658556938,-0.304878056049,1.0,0.0,0.0,0.0,1.0,0.0,0.0,0.0,1.0,-0.0861912597656,-0.694318481445,10.2471831055,1.0,0.0,0.0,0.0,1.0,0.0,0.0,0.0,1.0
1463935096669406823,606,1463935096666992718,,3.43479275703,-0.876394331455,-49.3255729675,0.00149000005331,1.0,0.0,0.0,0.0,1.0,0.0,0.0,0.0,1.0,-0.12195122242,0.548780500889,0.0,1.0,0.0,0.0,0.0,1.0,0.0,0.0,0.0,1.0,-0.335188232422,-0.742202514648,10.3237975586,1.0,0.0,0.0,0.0,1.0,0.0,0.0,0.0,1.0
1463935096690582878,607,1463935096687591433,,3.39676046371,-0.875280559063,-49.346572876,0.00121999997646,1.0,0.0,0.0,0.0,1.0,0.0,0.0,0.0,1.0,-0.487804889679,-0.18292683363,-0.18292683363,1.0,0.0,0.0,0.0,1.0,0.0,0.0,0.0,1.0,-0.143652099609,-0.636857641602,10.1370498291,1.0,0.0,0.0,0.0,1.0,0.0,0.0,0.0,1.0
