%time,field.header.seq,field.header.stamp,field.header.frame_id,field.orientation.x,field.orientation.y,field.orientation.z,field.orientation.w,field.orientation_covariance0,field.orientation_covariance1,field.orientation_covariance2,field.orientation_covariance3,field.orientation_covariance4,field.orientation_covariance5,field.orientation_covariance6,field.orientation_covariance7,field.orientation_covariance8,field.angular_velocity.x,field.angular_velocity.y,field.angular_velocity.z,field.angular_velocity_covariance0,field.angular_velocity_covariance1,field.angular_velocity_covariance2,field.angular_velocity_covariance3,field.angular_velocity_covariance4,field.angular_velocity_covariance5,field.angular_velocity_covariance6,field.angular_velocity_covariance7,field.angular_velocity_covariance8,field.linear_acceleration.x,field.linear_acceleration.y,field.linear_acceleration.z,field.linear_acceleration_covariance0,field.linear_acceleration_covariance1,field.linear_acceleration_covariance2,field.linear_acceleration_covariance3,field.linear_acceleration_covariance4,field.linear_acceleration_covariance5,field.linear_acceleration_covariance6,field.linear_acceleration_covariance7,field.linear_acceleration_covariance8
1463923600819635975,224,1463923600799697090,,-9.00718021393,-14.7973423004,-116.56337738,0.0204000007361,1.0,0.0,0.0,0.0,1.0,0.0,0.0,0.0,1.0,23.0487823486,4.93902444839,-15.6097564697,1.0,0.0,0.0,0.0,1.0,0.0,0.0,0.0,1.0,1.87226569824,0.00957680664062,9.83538041992,1.0,0.0,0.0,0.0,1.0,0.0,0.0,0.0,1.0
1463923600822376939,225,1463923600820227075,,-8.80687427521,-14.0001153946,-117.045951843,0.0204070005566,1.0,0.0,0.0,0.0,1.0,0.0,0.0,0.0,1.0,19.7560977936,14.8780498505,-16.2804889679,1.0,0.0,0.0,0.0,1.0,0.0,0.0,0.0,1.0,1.81001645508,0.31124621582,9.42357714985,1.0,0.0,0.0,0.0,1.0,0.0,0.0,0.0,1.0
1463923600842045040,226,1463923600840311013,,-8.3774766922,-13.3141698837,-117.578208923,0.0203789994121,1.0,0.0,0.0,0.0,1.0,0.0,0.0,0.0,1.0,13.4146347046,27.3780498505,-15.8536596298,1.0,0.0,0.0,0.0,1.0,0.0,0.0,0.0,1.0,1.99676418457,0.579396801758,9.4570959731,1.0,0.0,0.0,0.0,1.0,0.0,0.0,0.0,1.0
1463923600862518097,227,1463923600860702559,,-7.64276647568,-12.7823820114,-118.173194885,0.0204060003161,1.0,0.0,0.0,0.0,1.0,0.0,0.0,0.0,1.0,7.07317113876,43.6585388184,-15.7926826477,1.0,0.0,0.0,0.0,1.0,0.0,0.0,0.0,1.0,2.21224233398,0.45489831543,9.7827079834,1.0,0.0,0.0,0.0,1.0,0.0,0.0,0.0,1.0
1463923600883198343,228,1463923600881120719,,-6.50412416458,-12.3464584351,-118.845230103,0.0204119998962,1.0,0.0,0.0,0.0,1.0,0.0,0.0,0.0,1.0,3.71951246262,66.707321167,-15.2439022064,1.0,0.0,0.0,0.0,1.0,0.0,0.0,0.0,1.0,2.67192905273,0.320823022461,9.86411083984,1.0,0.0,0.0,0.0,1.0,0.0,0.0,0.0,1.0
1463923600905749127,229,1463923600902753787,,-4.75507450104,-11.9285964966,-119.674591064,0.0207690000534,1.0,0.0,0.0,0.0,1.0,0.0,0.0,0.0,1.0,4.2682929039,92.7439041138,-17.8048782349,1.0,0.0,0.0,0.0,1.0,0.0,0.0,0.0,1.0,1.88184250488,0.0430956298828,9.94072529297,1.0,0.0,0.0,0.0,1.0,0.0,0.0,0.0,1.0
1463923600926483332,230,1463923600921957457,,-2.66753172874,-11.5378856659,-120.64717865,0.0200559999794,1.0,0.0,0.0,0.0,1.0,0.0,0.0,0.0,1.0,6.09756088257,119.451217651,-22.1951236725,1.0,0.0,0.0,0.0,1.0,0.0,0.0,0.0,1.0,2.53306535645,-0.162805712891,9.61032604839,1.0,0.0,0.0,0.0,1.0,0.0,0.0,0.0,1.0
1463923600944581888,231,1463923600942351502,,0.00884552206844,-11.0927114487,-121.853790283,0.0203980002552,1.0,0.0,0.0,0.0,1.0,0.0,0.0,0.0,1.0,8.5365858078,140.975616455,-30.0000019073,1.0,0.0,0.0,0.0,1.0,0.0,0.0,0.0,1.0,0.881066210937,0.134075302102,9.46667277974,1.0,0.0,0.0,0.0,1.0,0.0,0.0,0.0,1.0
1463923600965205988,232,1463923600962748465,,2.88569402695,-10.6844739914,-123.296958923,0.0204070005566,1.0,0.0,0.0,0.0,1.0,0.0,0.0,0.0,1.0,8.41463470459,147.682922363,-42.0731697083,1.0,0.0,0.0,0.0,1.0,0.0,0.0,0.0,1.0,-0.407014282227,0.45489831543,9.60074924175,1.0,0.0,0.0,0.0,1.0,0.0,0.0,0.0,1.0
1463923600986648585,233,1463923600983178813,,5.68578481674,-10.4268980026,-124.99559021,0.0204130001366,1.0,0.0,0.0,0.0,1.0,0.0,0.0,0.0,1.0,6.0365858078,148.841461182,-55.7926826477,1.0,0.0,0.0,0.0,1.0,0.0,0.0,0.0,1.0,-0.411802685547,0.435744702148,9.88326445312,1.0,0.0,0.0,0.0,1.0,0.0,0.0,0.0,1.0
1463923601018003098,234,1463923601007671178,,9.35225486755,-10.398226738,-127.280136108,0.0242909993976,1.0,0.0,0.0,0.0,1.0,0.0,0.0,0.0,1.0,1.40243899822,163.170730591,-64.5121917725,1.0,0.0,0.0,0.0,1.0,0.0,0.0,0.0,1.0,-1.13006318359,0.383072265625,10.3237975586,1.0,0.0,0.0,0.0,1.0,0.0,0.0,0.0,1.0
1463923601027049954,235,1463923601024155239,,11.7723226547,-10.5418844223,-128.934783936,0.0165260005742,1.0,0.0,0.0,0.0,1.0,0.0,0.0,0.0,1.0,0.853658556938,155.0,-71.341468811,1.0,0.0,0.0,0.0,1.0,0.0,0.0,0.0,1.0,-2.60010300293,-0.15801730957,9.80665,1.0,0.0,0.0,0.0,1.0,0.0,0.0,0.0,1.0
1463923601046461594,236,1463923601044514545,,14.4546861649,-10.8284902573,-131.011901855,0.0204089991748,1.0,0.0,0.0,0.0,1.0,0.0,0.0,0.0,1.0,2.01219511032,141.158538818,-74.1463394165,1.0,0.0,0.0,0.0,1.0,0.0,0.0,0.0,1.0,-2.81079274902,-0.45968671875,9.30386706685,1.0,0.0,0.0,0.0,1.0,0.0,0.0,0.0,1.0
1463923601067995911,237,1463923601065041144,,16.9147014618,-11.1451892853,-132.997528076,0.0204150006175,1.0,0.0,0.0,0.0,1.0,0.0,0.0,0.0,1.0,0.548780500889,135.0,-70.3048782349,1.0,0.0,0.0,0.0,1.0,0.0,0.0,0.0,1.0,-2.35110588414,0.0574608398438,9.31344387349,1.0,0.0,0.0,0.0,1.0,0.0,0.0,0.0,1.0
1463923601095046790,238,1463923601085856599,,19.1721515656,-11.5521812439,-134.842681885,0.0204240009189,1.0,0.0,0.0,0.0,1.0,0.0,0.0,0.0,1.0,-2.86585378647,121.524398804,-65.0609741211,1.0,0.0,0.0,0.0,1.0,0.0,0.0,0.0,1.0,-3.54341845703,0.220266552734,10.0748005859,1.0,0.0,0.0,0.0,1.0,0.0,0.0,0.0,1.0
1463923601115926152,239,1463923601105859027,,21.096414566,-12.0817451477,-136.50227356,0.0203949995339,1.0,0.0,0.0,0.0,1.0,0.0,0.0,0.0,1.0,-9.08536529541,102.804878235,-58.9634132385,1.0,0.0,0.0,0.0,1.0,0.0,0.0,0.0,1.0,-4.2329482429,0.272938989258,9.88326445312,1.0,0.0,0.0,0.0,1.0,0.0,0.0,0.0,1.0
1463923601150419289,240,1463923601127561835,,22.6833457947,-12.645321846,-137.878952026,0.0204269997776,1.0,0.0,0.0,0.0,1.0,0.0,0.0,0.0,1.0,-12.5,82.7439041138,-48.3536567688,1.0,0.0,0.0,0.0,1.0,0.0,0.0,0.0,1.0,-4.66390454172,0.0383072265625,9.32780908345,1.0,0.0,0.0,0.0,1.0,0.0,0.0,0.0,1.0
1463923601150695906,241,1463923601146680452,,23.914150238,-13.185008049,-138.95475769,0.0204109996557,1.0,0.0,0.0,0.0,1.0,0.0,0.0,0.0,1.0,-13.4756097794,66.8902435303,-36.2804908752,1.0,0.0,0.0,0.0,1.0,0.0,0.0,0.0,1.0,-4.2760444573,-0.507570751953,9.48103915874,1.0,0.0,0.0,0.0,1.0,0.0,0.0,0.0,1.0
1463923601179896545,242,1463923601167084758,,24.969865799,-13.5417737961,-139.660079956,0.0204009991139,1.0,0.0,0.0,0.0,1.0,0.0,0.0,0.0,1.0,-11.8292684555,58.6585388184,-21.0365848541,1.0,0.0,0.0,0.0,1.0,0.0,0.0,0.0,1.0,-4.00310517578,-0.483628735352,10.0508585693,1.0,0.0,0.0,0.0,1.0,0.0,0.0,0.0,1.0
1463923601192855573,243,1463923601187638857,,25.9234447479,-13.690580368,-140.038162231,0.0204029995948,1.0,0.0,0.0,0.0,1.0,0.0,0.0,0.0,1.0,-11.2804880142,45.9146347046,-10.6097564697,1.0,0.0,0.0,0.0,1.0,0.0,0.0,0.0,1.0,-5.05655390625,0.301669427446,9.72524714355,1.0,0.0,0.0,0.0,1.0,0.0,0.0,0.0,1.0
1463923601232550320,244,1463923601208010923,,26.6415786743,-13.790391922,-140.131439209,0.0204009991139,1.0,0.0,0.0,0.0,1.0,0.0,0.0,0.0,1.0,-14.0853662491,29.1463413239,-1.58536589146,1.0,0.0,0.0,0.0,1.0,0.0,0.0,0.0,1.0,-5.50666381836,0.215478149414,9.1219083252,1.0,0.0,0.0,0.0,1.0,0.0,0.0,0.0,1.0
1463923601232856625,245,1463923601228724868,,26.8469734192,-13.7512674332,-139.900314331,0.0204169992357,1.0,0.0,0.0,0.0,1.0,0.0,0.0,0.0,1.0,-13.3536586761,1.95121955872,6.64634132385,1.0,0.0,0.0,0.0,1.0,0.0,0.0,0.0,1.0,-5.58327827148,-0.00478840332031,9.2176763916,1.0,0.0,0.0,0.0,1.0,0.0,0.0,0.0,1.0
1463923601275690308,246,1463923601249657043,,26.4528427124,-13.5732736588,-139.358932495,0.0204450003803,1.0,0.0,0.0,0.0,1.0,0.0,0.0,0.0,1.0,-12.9878053665,-30.975610733,12.6219520569,1.0,0.0,0.0,0.0,1.0,0.0,0.0,0.0,1.0,-5.83706364746,-0.0335188255255,9.10754311523,1.0,0.0,0.0,0.0,1.0,0.0,0.0,0.0,1.0
1463923601276096771,247,1463923601269111236,,25.2645530701,-13.2946739197,-138.583007812,0.0203750003129,1.0,0.0,0.0,0.0,1.0,0.0,0.0,0.0,1.0,-12.6829271317,-70.4268264771,14.2682924271,1.0,0.0,0.0,0.0,1.0,0.0,0.0,0.0,1.0,-5.8945244873,-0.0622492431641,9.72045874023,1.0,0.0,0.0,0.0,1.0,0.0,0.0,0.0,1.0
1463923601394192098,248,1463923601289798514,,23.2034988403,-13.0680561066,-137.696395874,0.0206489991397,1.0,0.0,0.0,0.0,1.0,0.0,0.0,0.0,1.0,-14.3292694092,-107.926834106,12.0731716156,1.0,0.0,0.0,0.0,1.0,0.0,0.0,0.0,1.0,-5.30076247559,-0.670376464844,10.9319247803,1.0,0.0,0.0,0.0,1.0,0.0,0.0,0.0,1.0
1463923601394369808,249,1463923601310405947,,20.4525108337,-12.7942810059,-136.711669922,0.0206480007619,1.0,0.0,0.0,0.0,1.0,0.0,0.0,0.0,1.0,-12.7439022064,-135.853652954,11.4634151459,1.0,0.0,0.0,0.0,1.0,0.0,0.0,0.0,1.0,-3.57214887695,-0.641646044922,11.152191333,1.0,0.0,0.0,0.0,1.0,0.0,0.0,0.0,1.0
1463923601394660019,250,1463923601330215195,,17.4881839752,-12.5793457031,-135.695556641,0.0199139993638,1.0,0.0,0.0,0.0,1.0,0.0,0.0,0.0,1.0,-15.6097564697,-151.585372925,12.4390249252,1.0,0.0,0.0,0.0,1.0,0.0,0.0,0.0,1.0,-3.01190568848,-0.325611425781,11.5831476318,1.0,0.0,0.0,0.0,1.0,0.0,0.0,0.0,1.0
1463923601394941220,251,1463923601351386644,,13.984120369,-12.496339798,-134.576217651,0.0211289990693,1.0,0.0,0.0,0.0,1.0,0.0,0.0,0.0,1.0,-18.4146347046,-168.475616455,13.048781395,1.0,0.0,0.0,0.0,1.0,0.0,0.0,0.0,1.0,-2.33674067418,-0.775721337891,11.765106958,1.0,0.0,0.0,0.0,1.0,0.0,0.0,0.0,1.0
1463923601395359036,252,1463923601371544229,,10.5453310013,-12.4780502319,-133.485900879,0.0201309993863,1.0,0.0,0.0,0.0,1.0,0.0,0.0,0.0,1.0,-15.7317075729,-174.146347046,15.1829271317,1.0,0.0,0.0,0.0,1.0,0.0,0.0,0.0,1.0,-1.68072956543,-1.45088620605,11.9183358643,1.0,0.0,0.0,0.0,1.0,0.0,0.0,0.0,1.0
1463923601396165606,253,1463923601391902389,,7.10466766357,-12.4069776535,-132.249221802,0.0202879998833,1.0,0.0,0.0,0.0,1.0,0.0,0.0,0.0,1.0,-12.1951217651,-169.512207031,23.9024391174,1.0,0.0,0.0,0.0,1.0,0.0,0.0,0.0,1.0,0.15801730957,-1.23061965332,12.124237207,1.0,0.0,0.0,0.0,1.0,0.0,0.0,0.0,1.0
1463923601448173282,254,1463923601413927908,,3.69607901573,-12.2968225479,-130.798995972,0.0214329995215,1.0,0.0,0.0,0.0,1.0,0.0,0.0,0.0,1.0,-4.81707286835,-160.853652954,34.0853691101,1.0,0.0,0.0,0.0,1.0,0.0,0.0,0.0,1.0,0.857124194336,-1.78128603516,11.7698953613,1.0,0.0,0.0,0.0,1.0,0.0,0.0,0.0,1.0
1463923601448220157,255,1463923601432286153,,1.03129851818,-12.134885788,-129.501342773,0.0190570000559,1.0,0.0,0.0,0.0,1.0,0.0,0.0,0.0,1.0,2.56097555161,-142.926834106,39.2682914734,1.0,0.0,0.0,0.0,1.0,0.0,0.0,0.0,1.0,1.45088620605,-1.91536132812,12.1290256104,1.0,0.0,0.0,0.0,1.0,0.0,0.0,0.0,1.0
1463923601460010737,256,1463923601452789471,,-1.36437427998,-11.783908844,-128.219909668,0.020422000438,1.0,0.0,0.0,0.0,1.0,0.0,0.0,0.0,1.0,14.0243902206,-117.743896484,40.0,1.0,0.0,0.0,0.0,1.0,0.0,0.0,0.0,1.0,2.50912333984,-1.84832368164,12.2918313232,1.0,0.0,0.0,0.0,1.0,0.0,0.0,0.0,1.0
1463923601475099628,257,1463923601473240184,,-3.24533081055,-11.2136611938,-127.156265259,0.0204060003161,1.0,0.0,0.0,0.0,1.0,0.0,0.0,0.0,1.0,26.0365848541,-95.0609817505,34.817073822,1.0,0.0,0.0,0.0,1.0,0.0,0.0,0.0,1.0,1.85311208496,-1.49877023926,11.3149970459,1.0,0.0,0.0,0.0,1.0,0.0,0.0,0.0,1.0
1463923601520502086,258,1463923601495140493,,-4.71069669724,-10.450961113,-126.247764587,0.0206879992038,1.0,0.0,0.0,0.0,1.0,0.0,0.0,0.0,1.0,35.1829299927,-75.0,31.4634151459,1.0,0.0,0.0,0.0,1.0,0.0,0.0,0.0,1.0,1.59453830566,-1.20667770978,11.0516348633,1.0,0.0,0.0,0.0,1.0,0.0,0.0,0.0,1.0
1463923601520553701,259,1463923601517386015,,-5.72674608231,-9.4713640213,-125.38961792,0.0224559996277,1.0,0.0,0.0,0.0,1.0,0.0,0.0,0.0,1.0,43.9634170532,-44.9390258789,32.0121955872,1.0,0.0,0.0,0.0,1.0,0.0,0.0,0.0,1.0,2.67671745605,-1.40300217285,11.3820346924,1.0,0.0,0.0,0.0,1.0,0.0,0.0,0.0,1.0
1463923601538587672,260,1463923601534489873,,-6.08108472824,-8.57068729401,-124.778694153,0.0180799998343,1.0,0.0,0.0,0.0,1.0,0.0,0.0,0.0,1.0,49.2682914734,-18.5975627899,32.5,1.0,0.0,0.0,0.0,1.0,0.0,0.0,0.0,1.0,2.74854350586,-0.981622680664,11.0276928467,1.0,0.0,0.0,0.0,1.0,0.0,0.0,0.0,1.0
1463923601558477286,261,1463923601555132984,,-5.96279668808,-7.47677946091,-124.286003113,0.0205799993128,1.0,0.0,0.0,0.0,1.0,0.0,0.0,0.0,1.0,48.7195129395,4.20731735229,26.4024391174,1.0,0.0,0.0,0.0,1.0,0.0,0.0,0.0,1.0,1.79565124512,-0.215478149414,10.2136642822,1.0,0.0,0.0,0.0,1.0,0.0,0.0,0.0,1.0
1463923601587070992,262,1463923601575231662,,-5.44873857498,-6.49240589142,-123.946899414,0.02024500072,1.0,0.0,0.0,0.0,1.0,0.0,0.0,0.0,1.0,41.8292694092,26.8292694092,22.0121955872,1.0,0.0,0.0,0.0,1.0,0.0,0.0,0.0,1.0,2.20266552734,0.282515795898,10.6685625977,1.0,0.0,0.0,0.0,1.0,0.0,0.0,0.0,1.0
1463923601599365482,263,1463923601596846240,,-4.30078268051,-5.74031639099,-123.661949158,0.020591000095,1.0,0.0,0.0,0.0,1.0,0.0,0.0,0.0,1.0,32.2560958862,55.9756126404,21.4024391174,1.0,0.0,0.0,0.0,1.0,0.0,0.0,0.0,1.0,1.97761057129,-0.143652099609,11.9087590576,1.0,0.0,0.0,0.0,1.0,0.0,0.0,0.0,1.0
1463923601628953416,264,1463923601616056681,,-2.59388303757,-5.18575668335,-123.340560913,0.0202109999955,1.0,0.0,0.0,0.0,1.0,0.0,0.0,0.0,1.0,24.1463432312,86.7073135376,25.5487804413,1.0,0.0,0.0,0.0,1.0,0.0,0.0,0.0,1.0,2.1930887207,-0.244208569336,11.9374894775,1.0,0.0,0.0,0.0,1.0,0.0,0.0,0.0,1.0
1463923601639264659,265,1463923601637519278,,-0.296926289797,-4.82958745956,-123.014572144,0.0204910002649,1.0,0.0,0.0,0.0,1.0,0.0,0.0,0.0,1.0,17.134147644,113.475616455,26.8902454376,1.0,0.0,0.0,0.0,1.0,0.0,0.0,0.0,1.0,1.5562310791,-0.876277807617,11.5304751953,1.0,0.0,0.0,0.0,1.0,0.0,0.0,0.0,1.0
1463923601660050791,266,1463923601656900814,,2.53996229172,-4.54846477509,-122.773765564,0.020331999287,1.0,0.0,0.0,0.0,1.0,0.0,0.0,0.0,1.0,13.5975618362,137.5,24.0853652954,1.0,0.0,0.0,0.0,1.0,0.0,0.0,0.0,1.0,0.292092584273,-0.928950244141,11.4011883057,1.0,0.0,0.0,0.0,1.0,0.0,0.0,0.0,1.0
1463923601704123653,267,1463923601677718405,,5.72612571716,-4.36252307892,-122.608940125,0.0205579996109,1.0,0.0,0.0,0.0,1.0,0.0,0.0,0.0,1.0,0.243902444839,155.426834106,20.6707324982,1.0,0.0,0.0,0.0,1.0,0.0,0.0,0.0,1.0,0.15322890625,0.828393774414,11.9135474609,1.0,0.0,0.0,0.0,1.0,0.0,0.0,0.0,1.0
1463923601704445844,268,1463923601698279015,,8.94546508789,-4.54280042648,-122.643310547,0.0206540003419,1.0,0.0,0.0,0.0,1.0,0.0,0.0,0.0,1.0,-15.4878053665,146.219512939,9.93902492523,1.0,0.0,0.0,0.0,1.0,0.0,0.0,0.0,1.0,-2.75333190918,0.622492431641,11.4490723389,1.0,0.0,0.0,0.0,1.0,0.0,0.0,0.0,1.0
1463923601757586238,269,1463923601719257806,,11.567492485,-5.04926156998,-122.86365509,0.0200640000403,1.0,0.0,0.0,0.0,1.0,0.0,0.0,0.0,1.0,-23.2317085266,123.536590576,0.487804889679,1.0,0.0,0.0,0.0,1.0,0.0,0.0,0.0,1.0,-2.87304199219,-0.833182177734,10.7260234375,1.0,0.0,0.0,0.0,1.0,0.0,0.0,0.0,1.0
1463923601757662593,270,1463923601738566581,,13.7133588791,-5.65953063965,-123.186309814,0.0203579999506,1.0,0.0,0.0,0.0,1.0,0.0,0.0,0.0,1.0,-23.3536586761,98.7195129395,-4.63414621353,1.0,0.0,0.0,0.0,1.0,0.0,0.0,0.0,1.0,-3.27526787109,-1.49398183594,10.2328178955,1.0,0.0,0.0,0.0,1.0,0.0,0.0,0.0,1.0
1463923601838565384,271,1463923601758973803,,14.9840145111,-6.25940990448,-123.484153748,0.0204070005566,1.0,0.0,0.0,0.0,1.0,0.0,0.0,0.0,1.0,-21.4024391174,63.2926826477,-5.54878091812,1.0,0.0,0.0,0.0,1.0,0.0,0.0,0.0,1.0,-2.38941340297,-1.99676418457,11.1282493164,1.0,0.0,0.0,0.0,1.0,0.0,0.0,0.0,1.0
1463923601838612884,272,1463923601781068959,,15.7358961105,-6.71119165421,-123.615821838,0.0204060003161,1.0,0.0,0.0,0.0,1.0,0.0,0.0,0.0,1.0,-20.9146347046,33.7195129395,-1.58536589146,1.0,0.0,0.0,0.0,1.0,0.0,0.0,0.0,1.0,-2.73896669922,-0.876277807617,8.97346782227,1.0,0.0,0.0,0.0,1.0,0.0,0.0,0.0,1.0
1463923601839007211,273,1463923601800767373,,16.0325698853,-7.15281152725,-123.606521606,0.0204489994794,1.0,0.0,0.0,0.0,1.0,0.0,0.0,0.0,1.0,-21.8292694092,13.3536586761,2.98780488968,1.0,0.0,0.0,0.0,1.0,0.0,0.0,0.0,1.0,-2.55700737305,-1.07260241682,9.4954043687,1.0,0.0,0.0,0.0,1.0,0.0,0.0,0.0,1.0
1463923601839442163,274,1463923601820377505,,15.9704418182,-7.52326107025,-123.479316711,0.020367000252,1.0,0.0,0.0,0.0,1.0,0.0,0.0,0.0,1.0,-19.0853652954,-7.01219511032,6.34146356583,1.0,0.0,0.0,0.0,1.0,0.0,0.0,0.0,1.0,-3.17949980469,-1.38863696289,9.99339772949,1.0,0.0,0.0,0.0,1.0,0.0,0.0,0.0,1.0
1463923601892818914,275,1463923601842299273,,15.4306945801,-7.8046207428,-123.201408386,0.0206829998642,1.0,0.0,0.0,0.0,1.0,0.0,0.0,0.0,1.0,-16.5853652954,-31.0365867615,10.0,1.0,0.0,0.0,0.0,1.0,0.0,0.0,0.0,1.0,-2.95444484863,-1.30723410645,9.193734375,1.0,0.0,0.0,0.0,1.0,0.0,0.0,0.0,1.0
1463923601892868602,276,1463923601861802998,,14.529001236,-7.99337387085,-122.834701538,0.0201280005276,1.0,0.0,0.0,0.0,1.0,0.0,0.0,0.0,1.0,-13.4756097794,-48.0487823486,12.1951217651,1.0,0.0,0.0,0.0,1.0,0.0,0.0,0.0,1.0,-2.27449157715,-1.24019645996,8.48505126812,1.0,0.0,0.0,0.0,1.0,0.0,0.0,0.0,1.0
1463923601893145636,277,1463923601882379076,,13.3649616241,-8.10380268097,-122.431518555,0.020408000797,1.0,0.0,0.0,0.0,1.0,0.0,0.0,0.0,1.0,-9.32926845551,-57.0731697083,12.4390249252,1.0,0.0,0.0,0.0,1.0,0.0,0.0,0.0,1.0,-1.58496149902,-1.2976572998,8.44195446919,1.0,0.0,0.0,0.0,1.0,0.0,0.0,0.0,1.0
1463923601940407017,278,1463923601902887446,,12.1338996887,-8.11937904358,-122.027954102,0.0204089991748,1.0,0.0,0.0,0.0,1.0,0.0,0.0,0.0,1.0,-5.73170757294,-56.6463394165,12.1951217651,1.0,0.0,0.0,0.0,1.0,0.0,0.0,0.0,1.0,-0.857124194336,-1.11569797363,8.68137521973,1.0,0.0,0.0,0.0,1.0,0.0,0.0,0.0,1.0
1463923601941087388,279,1463923601922332472,,11.1061563492,-8.06949424744,-121.646438599,0.0204199999571,1.0,0.0,0.0,0.0,1.0,0.0,0.0,0.0,1.0,-4.20731735229,-48.5365867615,11.8902444839,1.0,0.0,0.0,0.0,1.0,0.0,0.0,0.0,1.0,-0.948103857422,-0.732625708008,8.43716606587,1.0,0.0,0.0,0.0,1.0,0.0,0.0,0.0,1.0
1463923601979106911,280,1463923601942750476,,10.2946367264,-8.02523326874,-121.298324585,0.0204130001366,1.0,0.0,0.0,0.0,1.0,0.0,0.0,0.0,1.0,-4.87804889679,-38.1097564697,11.7073173523,1.0,0.0,0.0,0.0,1.0,0.0,0.0,0.0,1.0,-0.842758984375,-0.579396801758,8.49941647808,1.0,0.0,0.0,0.0,1.0,0.0,0.0,0.0,1.0
1463923601980188067,281,1463923601962952645,,9.68296718597,-8.01556587219,-120.978729248,0.0203920006752,1.0,0.0,0.0,0.0,1.0,0.0,0.0,0.0,1.0,-7.43902492523,-29.6341457367,11.4024391174,1.0,0.0,0.0,0.0,1.0,0.0,0.0,0.0,1.0,-0.962469067383,-0.383072265625,8.76277807617,1.0,0.0,0.0,0.0,1.0,0.0,0.0,0.0,1.0
1463923602088093612,282,1463923601983557110,,9.25232791901,-8.12777805328,-120.705635071,0.0205669999123,1.0,0.0,0.0,0.0,1.0,0.0,0.0,0.0,1.0,-11.5243911743,-20.4878044128,10.6097564697,1.0,0.0,0.0,0.0,1.0,0.0,0.0,0.0,1.0,-0.890643017578,-0.593762048251,8.78193168945,1.0,0.0,0.0,0.0,1.0,0.0,0.0,0.0,1.0
1463923602088546376,283,1463923602003734434,,8.99844455719,-8.27928066254,-120.455963135,0.020259000361,1.0,0.0,0.0,0.0,1.0,0.0,0.0,0.0,1.0,-13.7195129395,-14.3292694092,10.4878053665,1.0,0.0,0.0,0.0,1.0,0.0,0.0,0.0,1.0,-1.20667770978,-0.555454785156,8.93994899902,1.0,0.0,0.0,0.0,1.0,0.0,0.0,0.0,1.0
1463923602088901536,284,1463923602024248429,,8.77100658417,-8.49939155579,-120.226638794,0.0203949995339,1.0,0.0,0.0,0.0,1.0,0.0,0.0,0.0,1.0,-14.8780498505,-14.0853662491,9.75609779358,1.0,0.0,0.0,0.0,1.0,0.0,0.0,0.0,1.0,-1.40779057617,-0.9193734375,9.19852277832,1.0,0.0,0.0,0.0,1.0,0.0,0.0,0.0,1.0
1463923602089263675,285,1463923602045974987,,8.52449607849,-8.71638393402,-119.981300354,0.0212040003389,1.0,0.0,0.0,0.0,1.0,0.0,0.0,0.0,1.0,-14.5121955872,-13.048781395,10.1829271317,1.0,0.0,0.0,0.0,1.0,0.0,0.0,0.0,1.0,-1.1875240965,-0.995987890625,9.89762966309,1.0,0.0,0.0,0.0,1.0,0.0,0.0,0.0,1.0
1463923602089665762,286,1463923602065016937,,8.35340213776,-8.91044902802,-119.716789246,0.0196419991553,1.0,0.0,0.0,0.0,1.0,0.0,0.0,0.0,1.0,-12.4390249252,-8.96341514587,12.9878053665,1.0,0.0,0.0,0.0,1.0,0.0,0.0,0.0,1.0,-0.9193734375,-1.47003981934,10.4818148682,1.0,0.0,0.0,0.0,1.0,0.0,0.0,0.0,1.0
1463923602104425223,287,1463923602085469472,,8.30648231506,-9.02936649323,-119.378120422,0.0204230006784,1.0,0.0,0.0,0.0,1.0,0.0,0.0,0.0,1.0,-8.84146404266,-3.47560977936,16.9512195587,1.0,0.0,0.0,0.0,1.0,0.0,0.0,0.0,1.0,-0.957680664062,-1.5083470459,10.5440641113,1.0,0.0,0.0,0.0,1.0,0.0,0.0,0.0,1.0
1463923602161270549,288,1463923602107879631,,8.34121608734,-9.0739068985,-118.999572754,0.021141000092,1.0,0.0,0.0,0.0,1.0,0.0,0.0,0.0,1.0,-6.28048801422,2.5,19.0853652954,1.0,0.0,0.0,0.0,1.0,0.0,0.0,0.0,1.0,-0.512359155273,-1.35511813965,10.6158901611,1.0,0.0,0.0,0.0,1.0,0.0,0.0,0.0,1.0
1463923602161310966,289,1463923602126231001,,8.48486042023,-9.07211303711,-118.639373779,0.0196349993348,1.0,0.0,0.0,0.0,1.0,0.0,0.0,0.0,1.0,-5.06097555161,8.59756088257,20.3658542633,1.0,0.0,0.0,0.0,1.0,0.0,0.0,0.0,1.0,-0.407014282227,-1.17794714373,10.4818148682,1.0,0.0,0.0,0.0,1.0,0.0,0.0,0.0,1.0
1463923602161685032,290,1463923602148489179,,8.71040248871,-9.07583332062,-118.294471741,0.0206950008869,1.0,0.0,0.0,0.0,1.0,0.0,0.0,0.0,1.0,-4.32926845551,11.1585359573,19.2073173523,1.0,0.0,0.0,0.0,1.0,0.0,0.0,0.0,1.0,-0.660799658203,-1.31681091309,10.3716815918,1.0,0.0,0.0,0.0,1.0,0.0,0.0,0.0,1.0
1463923602208317917,291,1463923602168445512,,8.89258480072,-9.06706142426,-117.9974823,0.0201239995658,1.0,0.0,0.0,0.0,1.0,0.0,0.0,0.0,1.0,-3.35365867615,11.9512195587,17.4390239716,1.0,0.0,0.0,0.0,1.0,0.0,0.0,0.0,1.0,-0.268150604204,-1.35032973633,10.4387192383,1.0,0.0,0.0,0.0,1.0,0.0,0.0,0.0,1.0
1463923602209122612,292,1463923602188803984,,9.10116291046,-9.02950668335,-117.732261658,0.0204319991171,1.0,0.0,0.0,0.0,1.0,0.0,0.0,0.0,1.0,-3.65853667259,14.3902444839,15.7317075729,1.0,0.0,0.0,0.0,1.0,0.0,0.0,0.0,1.0,-0.114921679688,-0.976834277344,10.3716815918,1.0,0.0,0.0,0.0,1.0,0.0,0.0,0.0,1.0
1463923602259500429,293,1463923602209267510,,9.32233047485,-9.02615642548,-117.504821777,0.021093999967,1.0,0.0,0.0,0.0,1.0,0.0,0.0,0.0,1.0,-5.30487823486,14.8170728683,13.5365858078,1.0,0.0,0.0,0.0,1.0,0.0,0.0,0.0,1.0,-0.191536132812,-0.92416184082,10.4291424316,1.0,0.0,0.0,0.0,1.0,0.0,0.0,0.0,1.0
1463923602259606888,294,1463923602229343635,,9.4955406189,-9.07328891754,-117.344680786,0.0197059996426,1.0,0.0,0.0,0.0,1.0,0.0,0.0,0.0,1.0,-6.82926845551,14.3902444839,10.9146347046,1.0,0.0,0.0,0.0,1.0,0.0,0.0,0.0,1.0,-0.0718260498047,-1.03908344744,10.4004120117,1.0,0.0,0.0,0.0,1.0,0.0,0.0,0.0,1.0
1463923602260087778,295,1463923602248823923,,9.62211322784,-9.16736507416,-117.239685059,0.0204290002584,1.0,0.0,0.0,0.0,1.0,0.0,0.0,0.0,1.0,-6.7682929039,10.0609760284,7.56097555161,1.0,0.0,0.0,0.0,1.0,0.0,0.0,0.0,1.0,-0.507570751953,-1.35990654297,10.1992990723,1.0,0.0,0.0,0.0,1.0,0.0,0.0,0.0,1.0
1463923602333701178,296,1463923602269117551,,9.57970046997,-9.24931907654,-117.180786133,0.0203770007938,1.0,0.0,0.0,0.0,1.0,0.0,0.0,0.0,1.0,-4.57317066193,4.75609779358,4.69512224197,1.0,0.0,0.0,0.0,1.0,0.0,0.0,0.0,1.0,-0.0526724365234,-1.5562310791,9.86889924316,1.0,0.0,0.0,0.0,1.0,0.0,0.0,0.0,1.0
1463923602334114202,297,1463923602292107766,,9.47672271729,-9.26702880859,-117.179077148,0.0230069998652,1.0,0.0,0.0,0.0,1.0,0.0,0.0,0.0,1.0,-1.70731711388,5.54878091812,1.8902438879,1.0,0.0,0.0,0.0,1.0,0.0,0.0,0.0,1.0,0.430956298828,-1.36948334961,9.54807680523,1.0,0.0,0.0,0.0,1.0,0.0,0.0,0.0,1.0
1463923602334415455,298,1463923602310129498,,9.45151138306,-9.26567745209,-117.214431763,0.0178030002862,1.0,0.0,0.0,0.0,1.0,0.0,0.0,0.0,1.0,1.52439022064,9.20731735229,0.792682945728,1.0,0.0,0.0,0.0,1.0,0.0,0.0,0.0,1.0,0.512359155273,-1.71903679199,9.47624958638,1.0,0.0,0.0,0.0,1.0,0.0,0.0,0.0,1.0
1463923602334838220,299,1463923602330458022,,9.48539352417,-9.20127010345,-117.304977417,0.0205099992454,1.0,0.0,0.0,0.0,1.0,0.0,0.0,0.0,1.0,5.79268312454,12.7439022064,-0.914634168148,1.0,0.0,0.0,0.0,1.0,0.0,0.0,0.0,1.0,0.579396801758,-1.99197578125,10.1514150391,1.0,0.0,0.0,0.0,1.0,0.0,0.0,0.0,1.0
1463923602404825491,300,1463923602350803265,,9.61676883698,-9.06776618958,-117.439888,0.0203130003065,1.0,0.0,0.0,0.0,1.0,0.0,0.0,0.0,1.0,13.1097564697,13.841463089,-2.37804889679,1.0,0.0,0.0,0.0,1.0,0.0,0.0,0.0,1.0,-0.162805712891,-2.7341782959,10.4722380615,1.0,0.0,0.0,0.0,1.0,0.0,0.0,0.0,1.0
1463923602405677739,301,1463923602371323718,,9.60270023346,-8.74997520447,-117.60723114,0.020408000797,1.0,0.0,0.0,0.0,1.0,0.0,0.0,0.0,1.0,23.7195129395,5.0,-5.12195110321,1.0,0.0,0.0,0.0,1.0,0.0,0.0,0.0,1.0,-0.579396801758,-3.05021291504,10.7164466309,1.0,0.0,0.0,0.0,1.0,0.0,0.0,0.0,1.0
1463923602406253057,302,1463923602391582398,,9.41933631897,-8.20933818817,-117.773071289,0.0204000007361,1.0,0.0,0.0,0.0,1.0,0.0,0.0,0.0,1.0,31.8292694092,2.07317066193,-5.97560977936,1.0,0.0,0.0,0.0,1.0,0.0,0.0,0.0,1.0,0.45489831543,-2.33195227086,10.3668931885,1.0,0.0,0.0,0.0,1.0,0.0,0.0,0.0,1.0
1463923602461773890,303,1463923602411946860,,9.2883014679,-7.55706262589,-117.950714111,0.0204300004989,1.0,0.0,0.0,0.0,1.0,0.0,0.0,0.0,1.0,35.1829299927,6.28048801422,-6.34146356583,1.0,0.0,0.0,0.0,1.0,0.0,0.0,0.0,1.0,0.732625708008,-1.67594116211,9.56723041851,1.0,0.0,0.0,0.0,1.0,0.0,0.0,0.0,1.0
1463923602462694993,304,1463923602432398094,,9.23595523834,-6.89514112473,-118.191009521,0.0203980002552,1.0,0.0,0.0,0.0,1.0,0.0,0.0,0.0,1.0,36.2195129395,10.3658542633,-8.96341514587,1.0,0.0,0.0,0.0,1.0,0.0,0.0,0.0,1.0,0.732625708008,-1.53707746582,9.37569311665,1.0,0.0,0.0,0.0,1.0,0.0,0.0,0.0,1.0
1463923602462747285,305,1463923602452900682,,9.25229358673,-6.21996736526,-118.52722168,0.0204109996557,1.0,0.0,0.0,0.0,1.0,0.0,0.0,0.0,1.0,38.1097564697,12.0121955872,-13.4756097794,1.0,0.0,0.0,0.0,1.0,0.0,0.0,0.0,1.0,0.359130249023,-1.45567460937,9.02614025879,1.0,0.0,0.0,0.0,1.0,0.0,0.0,0.0,1.0
1463923602524183278,306,1463923602473259623,,9.24552154541,-5.52772092819,-118.972602844,0.0204099994153,1.0,0.0,0.0,0.0,1.0,0.0,0.0,0.0,1.0,37.8048782349,9.45121955872,-19.5121955872,1.0,0.0,0.0,0.0,1.0,0.0,0.0,0.0,1.0,0.0526724365234,-1.02950671387,9.13627353516,1.0,0.0,0.0,0.0,1.0,0.0,0.0,0.0,1.0
1463923602524258383,307,1463923602493689450,,9.13007736206,-4.87388324738,-119.543685913,0.0204029995948,1.0,0.0,0.0,0.0,1.0,0.0,0.0,0.0,1.0,34.5731735229,5.36585378647,-26.4634151459,1.0,0.0,0.0,0.0,1.0,0.0,0.0,0.0,1.0,0.191536132812,-0.517147558594,8.8154505127,1.0,0.0,0.0,0.0,1.0,0.0,0.0,0.0,1.0
1463923602524972140,308,1463923602514077246,,8.93756580353,-4.36168622971,-120.270248413,0.0204249992967,1.0,0.0,0.0,0.0,1.0,0.0,0.0,0.0,1.0,29.0243911743,1.58536589146,-34.2682952881,1.0,0.0,0.0,0.0,1.0,0.0,0.0,0.0,1.0,0.15322890625,-0.45968671875,8.71968244629,1.0,0.0,0.0,0.0,1.0,0.0,0.0,0.0,1.0
1463923602813927821,309,1463923602534525719,,8.66374206543,-3.95117592812,-121.156471252,0.020386999473,1.0,0.0,0.0,0.0,1.0,0.0,0.0,0.0,1.0,23.9024391174,-2.98780488968,-42.6219520569,1.0,0.0,0.0,0.0,1.0,0.0,0.0,0.0,1.0,0.0478840332031,-0.191536132812,8.89206496582,1.0,0.0,0.0,0.0,1.0,0.0,0.0,0.0,1.0
1463923602813973498,310,1463923602554917577,,8.26902484894,-3.71855425835,-122.216690063,0.0204189997166,1.0,0.0,0.0,0.0,1.0,0.0,0.0,0.0,1.0,18.658536911,-9.63414573669,-51.0365867615,1.0,0.0,0.0,0.0,1.0,0.0,0.0,0.0,1.0,-0.076614453125,-0.521935925381,8.80587370605,1.0,0.0,0.0,0.0,1.0,0.0,0.0,0.0,1.0
1463923602814017145,311,1463923602577483258,,7.75442218781,-3.60106158257,-123.520111084,0.021431999281,1.0,0.0,0.0,0.0,1.0,0.0,0.0,0.0,1.0,16.5243911743,-14.9390249252,-59.7560997009,1.0,0.0,0.0,0.0,1.0,0.0,0.0,0.0,1.0,-0.181959326172,-1.00077629395,9.25598361816,1.0,0.0,0.0,0.0,1.0,0.0,0.0,0.0,1.0
1463923602814062874,312,1463923602597686781,,7.22370481491,-3.50189423561,-124.826377869,0.0197429992259,1.0,0.0,0.0,0.0,1.0,0.0,0.0,0.0,1.0,15.4268302917,-17.3780498505,-65.365852356,1.0,0.0,0.0,0.0,1.0,0.0,0.0,0.0,1.0,-0.067037651051,-0.895431420898,9.74440075684,1.0,0.0,0.0,0.0,1.0,0.0,0.0,0.0,1.0
1463923602814100114,313,1463923602617499675,,6.68915271759,-3.46185398102,-126.220832825,0.0200640000403,1.0,0.0,0.0,0.0,1.0,0.0,0.0,0.0,1.0,12.8048782349,-18.3536586761,-68.7195129395,1.0,0.0,0.0,0.0,1.0,0.0,0.0,0.0,1.0,-0.220266552734,-1.03429511719,10.2328178955,1.0,0.0,0.0,0.0,1.0,0.0,0.0,0.0,1.0
1463923602814139906,314,1463923602636519906,,6.14148902893,-3.43460226059,-127.659210205,0.0203970000148,1.0,0.0,0.0,0.0,1.0,0.0,0.0,0.0,1.0,10.4268293381,-17.134147644,-69.8780517578,1.0,0.0,0.0,0.0,1.0,0.0,0.0,0.0,1.0,0.134075302102,-0.837970581055,10.5823713379,1.0,0.0,0.0,0.0,1.0,0.0,0.0,0.0,1.0
1463923602814174125,315,1463923602656990150,,5.69238758087,-3.45973038673,-129.067596436,0.0204380005598,1.0,0.0,0.0,0.0,1.0,0.0,0.0,0.0,1.0,5.54878091812,-13.2926826477,-68.2926864624,1.0,0.0,0.0,0.0,1.0,0.0,0.0,0.0,1.0,0.0574608398438,-0.545877978516,10.6302553711,1.0,0.0,0.0,0.0,1.0,0.0,0.0,0.0,1.0
1463923602814208865,316,1463923602677363102,,5.31272697449,-3.60204458237,-130.457046509,0.020372999832,1.0,0.0,0.0,0.0,1.0,0.0,0.0,0.0,1.0,1.76829278469,-8.90243911743,-67.134147644,1.0,0.0,0.0,0.0,1.0,0.0,0.0,0.0,1.0,0.339976635742,-1.04866025408,10.7978494873,1.0,0.0,0.0,0.0,1.0,0.0,0.0,0.0,1.0
1463923602814244230,317,1463923602698554290,,5.07558393478,-3.8016474247,-131.87008667,0.020422000438,1.0,0.0,0.0,0.0,1.0,0.0,0.0,0.0,1.0,2.25609779358,-2.31707310677,-67.4390258789,1.0,0.0,0.0,0.0,1.0,0.0,0.0,0.0,1.0,0.292092584273,-1.7908628418,10.9319247803,1.0,0.0,0.0,0.0,1.0,0.0,0.0,0.0,1.0
1463923602814302199,318,1463923602718931617,,4.96023416519,-3.93075847626,-133.34211731,0.0204039998353,1.0,0.0,0.0,0.0,1.0,0.0,0.0,0.0,1.0,6.09756088257,1.64634156227,-70.1219482422,1.0,0.0,0.0,0.0,1.0,0.0,0.0,0.0,1.0,-0.129286889648,-1.89141931152,10.8888291504,1.0,0.0,0.0,0.0,1.0,0.0,0.0,0.0,1.0
1463923602814343710,319,1463923602739025660,,4.82599496841,-3.99841380119,-134.949691772,0.0207529999316,1.0,0.0,0.0,0.0,1.0,0.0,0.0,0.0,1.0,11.1585359573,-0.487804889679,-75.4268341064,1.0,0.0,0.0,0.0,1.0,0.0,0.0,0.0,1.0,-0.45489831543,-2.24097275391,10.8026378906,1.0,0.0,0.0,0.0,1.0,0.0,0.0,0.0,1.0
1463923602814379440,320,1463923602759637728,,4.64813995361,-3.91668224335,-136.606887817,0.0200789999217,1.0,0.0,0.0,0.0,1.0,0.0,0.0,0.0,1.0,18.5975627899,-4.63414621353,-80.792678833,1.0,0.0,0.0,0.0,1.0,0.0,0.0,0.0,1.0,-0.790086547852,-2.10210891149,10.1562034424,1.0,0.0,0.0,0.0,1.0,0.0,0.0,0.0,1.0
1463923602814412982,321,1463923602780807093,,4.42228031158,-3.6540389061,-138.386566162,0.0206550005823,1.0,0.0,0.0,0.0,1.0,0.0,0.0,0.0,1.0,23.2317085266,-3.96341490746,-84.6951217651,1.0,0.0,0.0,0.0,1.0,0.0,0.0,0.0,1.0,-0.253785375977,-1.31202250977,9.95987890625,1.0,0.0,0.0,0.0,1.0,0.0,0.0,0.0,1.0
1463923602814458763,322,1463923602800380923,,4.33592271805,-3.32318973541,-140.17930603,0.020137000829,1.0,0.0,0.0,0.0,1.0,0.0,0.0,0.0,1.0,22.7439041138,-0.975609779358,-87.6829299927,1.0,0.0,0.0,0.0,1.0,0.0,0.0,0.0,1.0,-0.76614453125,-0.488417138672,9.35653950337,1.0,0.0,0.0,0.0,1.0,0.0,0.0,0.0,1.0
1463923603132571750,323,1463923602820479914,,4.24615240097,-3.04270911217,-142.02947998,0.0204070005566,1.0,0.0,0.0,0.0,1.0,0.0,0.0,0.0,1.0,18.9024391174,-0.18292683363,-89.3292694092,1.0,0.0,0.0,0.0,1.0,0.0,0.0,0.0,1.0,-0.536301208408,-0.244208569336,9.32780908345,1.0,0.0,0.0,0.0,1.0,0.0,0.0,0.0,1.0
1463923603135239327,324,1463923602842390640,,4.31355047226,-2.84532260895,-143.840866089,0.020433999598,1.0,0.0,0.0,0.0,1.0,0.0,0.0,0.0,1.0,13.4146347046,1.58536589146,-87.3170776367,1.0,0.0,0.0,0.0,1.0,0.0,0.0,0.0,1.0,-1.35032973633,0.00957680664062,8.8154505127,1.0,0.0,0.0,0.0,1.0,0.0,0.0,0.0,1.0
1463923603135348234,325,1463923602863347295,,4.29841804504,-2.79827618599,-145.596328735,0.0204230006784,1.0,0.0,0.0,0.0,1.0,0.0,0.0,0.0,1.0,3.04878044128,-0.304878056049,-84.9390258789,1.0,0.0,0.0,0.0,1.0,0.0,0.0,0.0,1.0,-1.00556469727,0.502782348633,9.13627353516,1.0,0.0,0.0,0.0,1.0,0.0,0.0,0.0,1.0
1463923603135602195,326,1463923602881398871,,4.29593610764,-2.9331510067,-147.258789062,0.0203530006111,1.0,0.0,0.0,0.0,1.0,0.0,0.0,0.0,1.0,-4.02439022064,1.58536589146,-80.4268264771,1.0,0.0,0.0,0.0,1.0,0.0,0.0,0.0,1.0,-0.833182177734,0.162805712891,9.86411083984,1.0,0.0,0.0,0.0,1.0,0.0,0.0,0.0,1.0
1463923603135745425,327,1463923602902302505,,4.33787584305,-3.16834044456,-148.83782959,0.0204610005021,1.0,0.0,0.0,0.0,1.0,0.0,0.0,0.0,1.0,-10.1219511032,-0.0609756112099,-76.0975646973,1.0,0.0,0.0,0.0,1.0,0.0,0.0,0.0,1.0,-1.53707746582,0.31124621582,10.0269165527,1.0,0.0,0.0,0.0,1.0,0.0,0.0,0.0,1.0
1463923603135811884,328,1463923602922720405,,4.22746038437,-3.5656619072,-150.374603271,0.0203970000148,1.0,0.0,0.0,0.0,1.0,0.0,0.0,0.0,1.0,-16.8292694092,-8.96341514587,-74.6951217651,1.0,0.0,0.0,0.0,1.0,0.0,0.0,0.0,1.0,-1.80043964844,0.00957680664062,9.66299848491,1.0,0.0,0.0,0.0,1.0,0.0,0.0,0.0,1.0
1463923603135850895,329,1463923602943184607,,3.92555809021,-4.09554958344,-151.895309448,0.0203740000725,1.0,0.0,0.0,0.0,1.0,0.0,0.0,0.0,1.0,-17.9268302917,-17.9268302917,-74.2682952881,1.0,0.0,0.0,0.0,1.0,0.0,0.0,0.0,1.0,-1.76213242187,-1.03429511719,9.39484672993,1.0,0.0,0.0,0.0,1.0,0.0,0.0,0.0,1.0
1463923603135904333,330,1463923602963435474,,3.37080550194,-4.58720445633,-153.377166748,0.0204000007361,1.0,0.0,0.0,0.0,1.0,0.0,0.0,0.0,1.0,-13.1097564697,-27.1951236725,-72.9878082275,1.0,0.0,0.0,0.0,1.0,0.0,0.0,0.0,1.0,-1.27850368652,-1.73819040527,9.39963513325,1.0,0.0,0.0,0.0,1.0,0.0,0.0,0.0,1.0
1463923603135997980,331,1463923602983794103,,2.72348809242,-4.91867637634,-154.803436279,0.0205509997904,1.0,0.0,0.0,0.0,1.0,0.0,0.0,0.0,1.0,-4.93902444839,-19.9390239716,-69.4512176514,1.0,0.0,0.0,0.0,1.0,0.0,0.0,0.0,1.0,0.727837304687,-1.97282216797,9.2176763916,1.0,0.0,0.0,0.0,1.0,0.0,0.0,0.0,1.0
1463923603136040376,332,1463923603004030439,,2.44898200035,-5.07956171036,-156.170181274,0.0202789995819,1.0,0.0,0.0,0.0,1.0,0.0,0.0,0.0,1.0,1.8292683363,-4.57317066193,-66.3414611816,1.0,0.0,0.0,0.0,1.0,0.0,0.0,0.0,1.0,0.368707055664,-1.83395847168,8.94952580566,1.0,0.0,0.0,0.0,1.0,0.0,0.0,0.0,1.0
1463923603136078918,333,1463923603024485943,,2.35141849518,-5.0834608078,-157.61177063,0.0204210001975,1.0,0.0,0.0,0.0,1.0,0.0,0.0,0.0,1.0,7.92682981491,0.304878056049,-69.207321167,1.0,0.0,0.0,0.0,1.0,0.0,0.0,0.0,1.0,-0.258573779297,-1.51313544922,8.45153127583,1.0,0.0,0.0,0.0,1.0,0.0,0.0,0.0,1.0
1463923603136117147,334,1463923603044993948,,2.20978140831,-4.92523527145,-159.177719116,0.0205119997263,1.0,0.0,0.0,0.0,1.0,0.0,0.0,0.0,1.0,9.5731716156,-2.80487799644,-75.4878082275,1.0,0.0,0.0,0.0,1.0,0.0,0.0,0.0,1.0,-0.45489831543,-0.550666381836,8.45153127583,1.0,0.0,0.0,0.0,1.0,0.0,0.0,0.0,1.0
1463923603136175742,335,1463923603065696903,,2.04760313034,-4.76196670532,-160.82484436,0.0203070007265,1.0,0.0,0.0,0.0,1.0,0.0,0.0,0.0,1.0,5.48780488968,-2.5,-80.3658599854,1.0,0.0,0.0,0.0,1.0,0.0,0.0,0.0,1.0,-0.253785375977,0.129286889648,8.43716606587,1.0,0.0,0.0,0.0,1.0,0.0,0.0,0.0,1.0
1463923603136224076,336,1463923603085819904,,1.83177042007,-4.67429065704,-162.625717163,0.0203910004348,1.0,0.0,0.0,0.0,1.0,0.0,0.0,0.0,1.0,0.304878056049,-5.24390268326,-87.8048782349,1.0,0.0,0.0,0.0,1.0,0.0,0.0,0.0,1.0,-0.320823022461,0.373495458984,8.61433815776,1.0,0.0,0.0,0.0,1.0,0.0,0.0,0.0,1.0
1463923603136527933,337,1463923603105912385,,1.52992618084,-4.71509981155,-164.564788818,0.0204150006175,1.0,0.0,0.0,0.0,1.0,0.0,0.0,0.0,1.0,-7.31707334518,-5.79268312454,-94.5121917725,1.0,0.0,0.0,0.0,1.0,0.0,0.0,0.0,1.0,0.196324536133,0.574608398438,8.88248815918,1.0,0.0,0.0,0.0,1.0,0.0,0.0,0.0,1.0
1463923603136825644,338,1463923603126504766,,1.29462373257,-4.95265436172,-166.620605469,0.0204319991171,1.0,0.0,0.0,0.0,1.0,0.0,0.0,0.0,1.0,-14.6341466904,-2.92682933807,-99.8170776367,1.0,0.0,0.0,0.0,1.0,0.0,0.0,0.0,1.0,0.0718260498047,0.15801730957,9.16021555176,1.0,0.0,0.0,0.0,1.0,0.0,0.0,0.0,1.0
1463923603317898802,339,1463923603146728393,,1.0513907671,-5.31247711182,-168.753540039,0.0203850008547,1.0,0.0,0.0,0.0,1.0,0.0,0.0,0.0,1.0,-19.3902435303,-2.43902444839,-103.780487061,1.0,0.0,0.0,0.0,1.0,0.0,0.0,0.0,1.0,0.119710083008,-0.148440512063,9.69651672363,1.0,0.0,0.0,0.0,1.0,0.0,0.0,0.0,1.0
1463923603318388754,340,1463923603167134209,,0.852283239365,-5.74093294144,-170.925750732,0.0204230006784,1.0,0.0,0.0,0.0,1.0,0.0,0.0,0.0,1.0,-22.3780498505,0.12195122242,-105.304878235,1.0,0.0,0.0,0.0,1.0,0.0,0.0,0.0,1.0,0.076614453125,-0.339976635742,9.89762966309,1.0,0.0,0.0,0.0,1.0,0.0,0.0,0.0,1.0
1463923603318779591,341,1463923603187797164,,0.700887024403,-6.23250055313,-173.111801147,0.0203879997134,1.0,0.0,0.0,0.0,1.0,0.0,0.0,0.0,1.0,-26.0975627899,-0.487804889679,-106.280487061,1.0,0.0,0.0,0.0,1.0,0.0,0.0,0.0,1.0,-0.579396801758,-0.373495458984,10.0939541992,1.0,0.0,0.0,0.0,1.0,0.0,0.0,0.0,1.0
1463923603319181418,342,1463923603208266210,,0.443820476532,-6.80889081955,-175.294708252,0.0204199999571,1.0,0.0,0.0,0.0,1.0,0.0,0.0,0.0,1.0,-28.1097564697,-6.58536624908,-106.707321167,1.0,0.0,0.0,0.0,1.0,0.0,0.0,0.0,1.0,-0.967257470703,-0.972045874023,10.8170031006,1.0,0.0,0.0,0.0,1.0,0.0,0.0,0.0,1.0
1463923603319519130,343,1463923603228532286,,0.0186912938952,-7.37563800812,-177.440048218,0.0204009991139,1.0,0.0,0.0,0.0,1.0,0.0,0.0,0.0,1.0,-26.4634151459,-13.9024391174,-106.036590576,1.0,0.0,0.0,0.0,1.0,0.0,0.0,0.0,1.0,-0.948103857422,-1.4844050293,11.152191333,1.0,0.0,0.0,0.0,1.0,0.0,0.0,0.0,1.0
1463923603322707076,344,1463923603249191490,,-0.521317303181,-7.82976055145,-179.525970459,0.0204799994826,1.0,0.0,0.0,0.0,1.0,0.0,0.0,0.0,1.0,-23.5365848541,-20.0609760284,-103.780487061,1.0,0.0,0.0,0.0,1.0,0.0,0.0,0.0,1.0,-1.13006318359,-1.26413847656,11.4299187256,1.0,0.0,0.0,0.0,1.0,0.0,0.0,0.0,1.0
1463923603322776660,345,1463923603269115427,,-1.20568156242,-8.20881080627,178.430389404,0.0203220006078,1.0,0.0,0.0,0.0,1.0,0.0,0.0,0.0,1.0,-20.6707324982,-28.9634151459,-103.963417053,1.0,0.0,0.0,0.0,1.0,0.0,0.0,0.0,1.0,-1.52750065918,-1.47482822266,11.7076461182,1.0,0.0,0.0,0.0,1.0,0.0,0.0,0.0,1.0
1463923603322816765,346,1463923603289880570,,-2.06464982033,-8.47411346436,176.381958008,0.0204959996045,1.0,0.0,0.0,0.0,1.0,0.0,0.0,0.0,1.0,-15.1829271317,-37.0121955872,-104.756103516,1.0,0.0,0.0,0.0,1.0,0.0,0.0,0.0,1.0,-1.47961662598,-1.79565124512,11.7459533447,1.0,0.0,0.0,0.0,1.0,0.0,0.0,0.0,1.0
1463923603387011065,347,1463923603311828589,,-3.03643846512,-8.57110118866,174.355316162,0.0203389991075,1.0,0.0,0.0,0.0,1.0,0.0,0.0,0.0,1.0,-8.65853691101,-42.682926178,-105.426834106,1.0,0.0,0.0,0.0,1.0,0.0,0.0,0.0,1.0,-1.35032973633,-1.8626888916,11.9231242676,1.0,0.0,0.0,0.0,1.0,0.0,0.0,0.0,1.0
1463923603388459725,348,1463923603332638315,,-4.03751897812,-8.49676322937,172.339981079,0.0203949995339,1.0,0.0,0.0,0.0,1.0,0.0,0.0,0.0,1.0,-1.2804877758,-43.5365867615,-104.695129395,1.0,0.0,0.0,0.0,1.0,0.0,0.0,0.0,1.0,-1.05823706072,-2.08295529821,12.3109849365,1.0,0.0,0.0,0.0,1.0,0.0,0.0,0.0,1.0
1463923603389196502,349,1463923603351180677,,-5.01727819443,-8.25009632111,170.326721191,0.0205639991909,1.0,0.0,0.0,0.0,1.0,0.0,0.0,0.0,1.0,5.85365867615,-42.9878044128,-103.475608826,1.0,0.0,0.0,0.0,1.0,0.0,0.0,0.0,1.0,-0.938527050781,-2.15957004359,12.3205617432,1.0,0.0,0.0,0.0,1.0,0.0,0.0,0.0,1.0
1463923603390083854,350,1463923603371787485,,-5.84215211868,-7.81885576248,168.317001343,0.0205230005085,1.0,0.0,0.0,0.0,1.0,0.0,0.0,0.0,1.0,12.9268293381,-36.6463432312,-102.134155273,1.0,0.0,0.0,0.0,1.0,0.0,0.0,0.0,1.0,-0.828393774414,-2.04943662109,12.5551935059,1.0,0.0,0.0,0.0,1.0,0.0,0.0,0.0,1.0
1463923603428837864,351,1463923603393041122,,-6.56046676636,-7.25665521622,166.292297363,0.0205039996654,1.0,0.0,0.0,0.0,1.0,0.0,0.0,0.0,1.0,18.9024391174,-36.3414611816,-102.500007629,1.0,0.0,0.0,0.0,1.0,0.0,0.0,0.0,1.0,-1.57538469238,-2.16435844691,12.4929442627,1.0,0.0,0.0,0.0,1.0,0.0,0.0,0.0,1.0
1463923603430442046,352,1463923603416012848,,-7.26862287521,-6.50051546097,164.261413574,0.0200440008193,1.0,0.0,0.0,0.0,1.0,0.0,0.0,0.0,1.0,20.1829280853,-37.8048782349,-103.719512939,1.0,0.0,0.0,0.0,1.0,0.0,0.0,0.0,1.0,-1.43173259277,-0.339976635742,12.4450602295,1.0,0.0,0.0,0.0,1.0,0.0,0.0,0.0,1.0
1463923603472757964,353,1463923603435197663,,-8.01212692261,-5.75804901123,161.95539856,0.0223440006375,1.0,0.0,0.0,0.0,1.0,0.0,0.0,0.0,1.0,10.9756097794,-38.4146347046,-104.39025116,1.0,0.0,0.0,0.0,1.0,0.0,0.0,0.0,1.0,-1.62326872559,0.550666381836,12.5073094727,1.0,0.0,0.0,0.0,1.0,0.0,0.0,0.0,1.0
1463923603472813121,354,1463923603453825078,,-8.63867378235,-5.3749833107,160.051101685,0.0184710007161,1.0,0.0,0.0,0.0,1.0,0.0,0.0,0.0,1.0,1.8292683363,-42.8658561707,-104.573173523,1.0,0.0,0.0,0.0,1.0,0.0,0.0,0.0,1.0,-2.08295529821,-0.3064578125,12.4019645996,1.0,0.0,0.0,0.0,1.0,0.0,0.0,0.0,1.0
1463923603507930846,355,1463923603475152934,,-9.44429588318,-5.06265068054,157.942092896,0.0217640008777,1.0,0.0,0.0,0.0,1.0,0.0,0.0,0.0,1.0,-1.2804877758,-42.5609779358,-98.414642334,1.0,0.0,0.0,0.0,1.0,0.0,0.0,0.0,1.0,-0.890643017578,-1.03429511719,12.4450602295,1.0,0.0,0.0,0.0,1.0,0.0,0.0,0.0,1.0
1463923603508238505,356,1463923603493660868,,-9.9619846344,-4.82322072983,156.264007568,0.0190730001777,1.0,0.0,0.0,0.0,1.0,0.0,0.0,0.0,1.0,-3.53658556938,-30.3658542633,-87.9878082275,1.0,0.0,0.0,0.0,1.0,0.0,0.0,0.0,1.0,0.100556469727,-0.76614453125,12.3205617432,1.0,0.0,0.0,0.0,1.0,0.0,0.0,0.0,1.0
1463923603552535223,357,1463923603521316128,,-10.1091594696,-4.64290571213,154.665542603,0.0205140002072,1.0,0.0,0.0,0.0,1.0,0.0,0.0,0.0,1.0,-5.30487823486,-13.9634151459,-76.6463470459,1.0,0.0,0.0,0.0,1.0,0.0,0.0,0.0,1.0,-0.31124621582,-0.871489404297,12.2008516602,1.0,0.0,0.0,0.0,1.0,0.0,0.0,0.0,1.0
1463923603552572203,358,1463923603534818911,,-10.0175008774,-4.47030830383,153.202377319,0.0203380007297,1.0,0.0,0.0,0.0,1.0,0.0,0.0,0.0,1.0,-4.75609779358,-4.57317066193,-69.9390258789,1.0,0.0,0.0,0.0,1.0,0.0,0.0,0.0,1.0,-0.593762048251,-0.76135612793,11.6262432617,1.0,0.0,0.0,0.0,1.0,0.0,0.0,0.0,1.0
1463923603591211836,359,1463923603556037287,,-9.80290031433,-4.24820756912,151.709945679,0.0203629992902,1.0,0.0,0.0,0.0,1.0,0.0,0.0,0.0,1.0,-5.06097555161,-0.426829278469,-70.4878082275,1.0,0.0,0.0,0.0,1.0,0.0,0.0,0.0,1.0,-0.881066210937,-0.148440512063,10.524910498,1.0,0.0,0.0,0.0,1.0,0.0,0.0,0.0,1.0
1463923603593471701,360,1463923603575293093,,-9.61301136017,-3.96165275574,150.122406006,0.0204099994153,1.0,0.0,0.0,0.0,1.0,0.0,0.0,0.0,1.0,-7.80487823486,1.03658533096,-73.9024429321,1.0,0.0,0.0,0.0,1.0,0.0,0.0,0.0,1.0,-0.383072265625,0.842758984375,9.69172832031,1.0,0.0,0.0,0.0,1.0,0.0,0.0,0.0,1.0
1463923603629380892,361,1463923603596989599,,-9.2891740799,-3.75318574905,148.386505127,0.0210299994797,1.0,0.0,0.0,0.0,1.0,0.0,0.0,0.0,1.0,-14.7560987473,13.7804880142,-77.3780517578,1.0,0.0,0.0,0.0,1.0,0.0,0.0,0.0,1.0,0.694318481445,1.23061965332,9.04529387207,1.0,0.0,0.0,0.0,1.0,0.0,0.0,0.0,1.0
1463923603629533863,362,1463923603616503844,,-8.66813755035,-3.68549847603,146.667938232,0.01978199929,1.0,0.0,0.0,0.0,1.0,0.0,0.0,0.0,1.0,-20.4878044128,28.1707324982,-81.0365905762,1.0,0.0,0.0,0.0,1.0,0.0,0.0,0.0,1.0,0.339976635742,1.03908344744,8.30787917622,1.0,0.0,0.0,0.0,1.0,0.0,0.0,0.0,1.0
1463923603671672487,363,1463923603637605188,,-7.77526330948,-3.72812271118,144.840255737,0.0204000007361,1.0,0.0,0.0,0.0,1.0,0.0,0.0,0.0,1.0,-22.5609760284,40.0609741211,-83.6585388184,1.0,0.0,0.0,0.0,1.0,0.0,0.0,0.0,1.0,0.15322890625,0.612915625,8.00621035156,1.0,0.0,0.0,0.0,1.0,0.0,0.0,0.0,1.0
1463923603671997855,364,1463923603657196570,,-6.72530794144,-3.81711626053,143.01902771,0.0204060003161,1.0,0.0,0.0,0.0,1.0,0.0,0.0,0.0,1.0,-22.7439041138,48.8414649963,-83.1097564697,1.0,0.0,0.0,0.0,1.0,0.0,0.0,0.0,1.0,0.172382519531,0.521935925381,7.95353791504,1.0,0.0,0.0,0.0,1.0,0.0,0.0,0.0,1.0
1463923603735320845,365,1463923603677707284,,-5.56038045883,-3.89814829826,141.237228394,0.020408000797,1.0,0.0,0.0,0.0,1.0,0.0,0.0,0.0,1.0,-22.2560977936,54.6951217651,-80.8536605835,1.0,0.0,0.0,0.0,1.0,0.0,0.0,0.0,1.0,0.0526724365234,0.737414111328,7.63271489258,1.0,0.0,0.0,0.0,1.0,0.0,0.0,0.0,1.0
1463923603735648609,366,1463923603698784669,,-4.31569242477,-4.00888824463,139.50201416,0.0204259995371,1.0,0.0,0.0,0.0,1.0,0.0,0.0,0.0,1.0,-21.341463089,58.0487823486,-78.5975570679,1.0,0.0,0.0,0.0,1.0,0.0,0.0,0.0,1.0,-0.167594116211,0.670376464844,7.56088884277,1.0,0.0,0.0,0.0,1.0,0.0,0.0,0.0,1.0
1463923603751997408,367,1463923603719891013,,-3.03305983543,-4.13000106812,137.818115234,0.0203850008547,1.0,0.0,0.0,0.0,1.0,0.0,0.0,0.0,1.0,-19.1463432312,57.4390220642,-76.5853729248,1.0,0.0,0.0,0.0,1.0,0.0,0.0,0.0,1.0,-0.689530078125,0.565031591797,7.59919606934,1.0,0.0,0.0,0.0,1.0,0.0,0.0,0.0,1.0
1463923603752220170,368,1463923603738877597,,-1.83629882336,-4.25427484512,136.183624268,0.0206920001656,1.0,0.0,0.0,0.0,1.0,0.0,0.0,0.0,1.0,-17.1951217651,50.5487785339,-73.6585388184,1.0,0.0,0.0,0.0,1.0,0.0,0.0,0.0,1.0,-1.19710090314,0.588973571866,8.2504189209,1.0,0.0,0.0,0.0,1.0,0.0,0.0,0.0,1.0
1463923603788675252,369,1463923603758759971,,-0.890594363213,-4.41946458817,134.751800537,0.0201130006462,1.0,0.0,0.0,0.0,1.0,0.0,0.0,0.0,1.0,-14.9390249252,42.9268302917,-66.6463470459,1.0,0.0,0.0,0.0,1.0,0.0,0.0,0.0,1.0,-0.938527050781,0.167594116211,9.2942902602,1.0,0.0,0.0,0.0,1.0,0.0,0.0,0.0,1.0
1463923603788722596,370,1463923603779276310,,-0.00380612281151,-4.53782653809,133.488067627,0.0204259995371,1.0,0.0,0.0,0.0,1.0,0.0,0.0,0.0,1.0,-11.2804880142,36.4024391174,-57.8658561707,1.0,0.0,0.0,0.0,1.0,0.0,0.0,0.0,1.0,-1.61848032227,0.15322890625,10.0508585693,1.0,0.0,0.0,0.0,1.0,0.0,0.0,0.0,1.0
1463923603833281192,371,1463923603799725096,,0.659022212029,-4.59892416,132.460250854,0.0203900001943,1.0,0.0,0.0,0.0,1.0,0.0,0.0,0.0,1.0,-8.90243911743,24.9390239716,-47.3780517578,1.0,0.0,0.0,0.0,1.0,0.0,0.0,0.0,1.0,-1.83395847168,0.368707055664,10.6158901611,1.0,0.0,0.0,0.0,1.0,0.0,0.0,0.0,1.0
1463923603835691267,372,1463923603820144194,,1.10918450356,-4.64096832275,131.731033325,0.0204249992967,1.0,0.0,0.0,0.0,1.0,0.0,0.0,0.0,1.0,-5.73170757294,16.4634151459,-33.4146347046,1.0,0.0,0.0,0.0,1.0,0.0,0.0,0.0,1.0,-1.35511813965,-0.0239420166016,10.5967365479,1.0,0.0,0.0,0.0,1.0,0.0,0.0,0.0,1.0
1463923603871058317,373,1463923603840595219,,1.42082512379,-4.56182670593,131.25,0.0204140003771,1.0,0.0,0.0,0.0,1.0,0.0,0.0,0.0,1.0,-0.304878056049,9.02439117432,-21.9512195587,1.0,0.0,0.0,0.0,1.0,0.0,0.0,0.0,1.0,-1.43652099609,0.0622492431641,11.0037508301,1.0,0.0,0.0,0.0,1.0,0.0,0.0,0.0,1.0
1463923603872565415,374,1463923603861017546,,1.56310653687,-4.37572002411,130.96522522,0.0204070005566,1.0,0.0,0.0,0.0,1.0,0.0,0.0,0.0,1.0,4.45121955872,-0.487804889679,-13.1707324982,1.0,0.0,0.0,0.0,1.0,0.0,0.0,0.0,1.0,-1.61848032227,0.148440512063,11.2288057861,1.0,0.0,0.0,0.0,1.0,0.0,0.0,0.0,1.0
1463923603970992849,375,1463923603883028169,,1.38489055634,-4.07766914368,130.723526001,0.0215860009193,1.0,0.0,0.0,0.0,1.0,0.0,0.0,0.0,1.0,10.1219511032,-18.658536911,-11.7682924271,1.0,0.0,0.0,0.0,1.0,0.0,0.0,0.0,1.0,-2.22181914063,-0.0191536132812,11.3006318359,1.0,0.0,0.0,0.0,1.0,0.0,0.0,0.0,1.0
1463923603971354103,376,1463923603904087794,,0.825938403606,-3.71967768669,130.525588989,0.0192339997739,1.0,0.0,0.0,0.0,1.0,0.0,0.0,0.0,1.0,14.8780498505,-37.9878044128,-12.0731716156,1.0,0.0,0.0,0.0,1.0,0.0,0.0,0.0,1.0,-1.9105729248,0.0287304199219,11.6262432617,1.0,0.0,0.0,0.0,1.0,0.0,0.0,0.0,1.0
1463923603971687804,377,1463923603924464964,,-0.101155050099,-3.302765131,130.318389893,0.0204060003161,1.0,0.0,0.0,0.0,1.0,0.0,0.0,0.0,1.0,17.6219520569,-52.1951255798,-12.5,1.0,0.0,0.0,0.0,1.0,0.0,0.0,0.0,1.0,-1.33596452637,-0.124498486328,11.7555301514,1.0,0.0,0.0,0.0,1.0,0.0,0.0,0.0,1.0
1463923603972012598,378,1463923603943248995,,-1.29134118557,-2.81176781654,130.107040405,0.0210599992424,1.0,0.0,0.0,0.0,1.0,0.0,0.0,0.0,1.0,19.5731716156,-60.8536643982,-12.3780488968,1.0,0.0,0.0,0.0,1.0,0.0,0.0,0.0,1.0,-0.593762048251,0.110133276367,11.4011883057,1.0,0.0,0.0,0.0,1.0,0.0,0.0,0.0,1.0
1463923604106327453,379,1463923603966034626,,-2.57391786575,-2.29902291298,129.867324829,0.0216739997268,1.0,0.0,0.0,0.0,1.0,0.0,0.0,0.0,1.0,21.0365848541,-60.8536643982,-12.8048782349,1.0,0.0,0.0,0.0,1.0,0.0,0.0,0.0,1.0,0.177170922852,-0.0622492431641,10.3429511719,1.0,0.0,0.0,0.0,1.0,0.0,0.0,0.0,1.0
1463923604106380005,380,1463923603985987521,,-3.60065197945,-1.80566072464,129.653991699,0.0187960006297,1.0,0.0,0.0,0.0,1.0,0.0,0.0,0.0,1.0,24.3902435303,-53.1707305908,-12.2560977936,1.0,0.0,0.0,0.0,1.0,0.0,0.0,0.0,1.0,0.900219824219,-0.134075302102,9.2655604248,1.0,0.0,0.0,0.0,1.0,0.0,0.0,0.0,1.0
1463923604106697196,381,1463923604005716561,,-4.46095609665,-1.1816419363,129.451187134,0.0206669997424,1.0,0.0,0.0,0.0,1.0,0.0,0.0,0.0,1.0,27.9268302917,-36.2804908752,-9.69512176514,1.0,0.0,0.0,0.0,1.0,0.0,0.0,0.0,1.0,1.61848032227,0.00478840332031,8.57124252788,1.0,0.0,0.0,0.0,1.0,0.0,0.0,0.0,1.0
1463923604106999490,382,1463923604026354619,,-4.93019294739,-0.513530194759,129.244049072,0.0207850001752,1.0,0.0,0.0,0.0,1.0,0.0,0.0,0.0,1.0,28.7804889679,-21.341463089,-9.14634132385,1.0,0.0,0.0,0.0,1.0,0.0,0.0,0.0,1.0,1.14442839355,0.248996972656,8.70052883301,1.0,0.0,0.0,0.0,1.0,0.0,0.0,0.0,1.0
1463923604107485016,383,1463923604046987312,,-5.18232631683,0.0933779850602,128.995773315,0.0200110003352,1.0,0.0,0.0,0.0,1.0,0.0,0.0,0.0,1.0,28.5365848541,-13.2926826477,-11.4634151459,1.0,0.0,0.0,0.0,1.0,0.0,0.0,0.0,1.0,0.981622680664,0.067037651051,9.16500395508,1.0,0.0,0.0,0.0,1.0,0.0,0.0,0.0,1.0
1463923604128477452,384,1463923604066880885,,-5.27228784561,0.713800549507,128.741851807,0.0203939992934,1.0,0.0,0.0,0.0,1.0,0.0,0.0,0.0,1.0,28.2317066193,-5.85365867615,-11.4024391174,1.0,0.0,0.0,0.0,1.0,0.0,0.0,0.0,1.0,0.909796630859,0.220266552734,9.05487067871,1.0,0.0,0.0,0.0,1.0,0.0,0.0,0.0,1.0
1463923604128756674,385,1463923604086228514,,-5.25653600693,1.29412078857,128.450805664,0.0198829993606,1.0,0.0,0.0,0.0,1.0,0.0,0.0,0.0,1.0,24.5121955872,-0.12195122242,-13.4146347046,1.0,0.0,0.0,0.0,1.0,0.0,0.0,0.0,1.0,1.01035310059,0.670376464844,8.82502731934,1.0,0.0,0.0,0.0,1.0,0.0,0.0,0.0,1.0
1463923604197470496,386,1463923604106215785,,-5.13656425476,1.81875562668,128.118621826,0.02054399997,1.0,0.0,0.0,0.0,1.0,0.0,0.0,0.0,1.0,19.5731716156,5.54878091812,-15.0000009537,1.0,0.0,0.0,0.0,1.0,0.0,0.0,0.0,1.0,1.1540052002,0.962469067383,8.96389101563,1.0,0.0,0.0,0.0,1.0,0.0,0.0,0.0,1.0
1463923604197528465,387,1463923604126389152,,-4.85437345505,2.21849322319,127.75957489,0.0202779993415,1.0,0.0,0.0,0.0,1.0,0.0,0.0,0.0,1.0,13.658536911,11.6463422775,-16.8292694092,1.0,0.0,0.0,0.0,1.0,0.0,0.0,0.0,1.0,0.876277807617,1.08217922346,9.27992563477,1.0,0.0,0.0,0.0,1.0,0.0,0.0,0.0,1.0
1463923604197567580,388,1463923604149111292,,-4.53510951996,2.47770309448,127.372619629,0.0204780008644,1.0,0.0,0.0,0.0,1.0,0.0,0.0,0.0,1.0,6.52439069748,14.4512205124,-18.2317085266,1.0,0.0,0.0,0.0,1.0,0.0,0.0,0.0,1.0,1.02950671387,1.14442839355,9.15063874512,1.0,0.0,0.0,0.0,1.0,0.0,0.0,0.0,1.0
1463923604197713936,389,1463923604167097190,,-4.09644699097,2.58275485039,127.007392883,0.0203409995884,1.0,0.0,0.0,0.0,1.0,0.0,0.0,0.0,1.0,1.03658533096,20.4878044128,-17.8048782349,1.0,0.0,0.0,0.0,1.0,0.0,0.0,0.0,1.0,0.995987890625,0.890643017578,9.19852277832,1.0,0.0,0.0,0.0,1.0,0.0,0.0,0.0,1.0
1463923604229117772,390,1463923604187943219,,-3.61837387085,2.58798360825,126.614326477,0.0203980002552,1.0,0.0,0.0,0.0,1.0,0.0,0.0,0.0,1.0,-3.47560977936,22.1341457367,-19.2682914734,1.0,0.0,0.0,0.0,1.0,0.0,0.0,0.0,1.0,0.861912597656,0.814028564453,8.81066210937,1.0,0.0,0.0,0.0,1.0,0.0,0.0,0.0,1.0
1463923604229175741,391,1463923604207992157,,-3.13162636757,2.52228617668,126.189933777,0.0203910004348,1.0,0.0,0.0,0.0,1.0,0.0,0.0,0.0,1.0,-7.13414621353,20.4878044128,-20.7317085266,1.0,0.0,0.0,0.0,1.0,0.0,0.0,0.0,1.0,0.488417138672,0.885854614258,9.15542714844,1.0,0.0,0.0,0.0,1.0,0.0,0.0,0.0,1.0
1463923604295538239,392,1463923604228752717,,-2.75849437714,2.3588142395,125.737342834,0.0204249992967,1.0,0.0,0.0,0.0,1.0,0.0,0.0,0.0,1.0,-11.4024391174,13.2317075729,-21.7682933807,1.0,0.0,0.0,0.0,1.0,0.0,0.0,0.0,1.0,0.15322890625,0.861912597656,9.80665,1.0,0.0,0.0,0.0,1.0,0.0,0.0,0.0,1.0
1463923604295634282,393,1463923604252122936,,-2.59705734253,2.08912205696,125.264587402,0.0205799993128,1.0,0.0,0.0,0.0,1.0,0.0,0.0,0.0,1.0,-14.0243902206,1.64634156227,-22.1951236725,1.0,0.0,0.0,0.0,1.0,0.0,0.0,0.0,1.0,-0.124498486328,0.426167895508,10.1274730225,1.0,0.0,0.0,0.0,1.0,0.0,0.0,0.0,1.0
1463923604313207103,394,1463923604269475443,,-2.675770998,1.77397429943,124.825202942,0.0203889999539,1.0,0.0,0.0,0.0,1.0,0.0,0.0,0.0,1.0,-15.3048791885,-7.86585378647,-20.4878044128,1.0,0.0,0.0,0.0,1.0,0.0,0.0,0.0,1.0,0.215478149414,0.205901342773,10.3860468018,1.0,0.0,0.0,0.0,1.0,0.0,0.0,0.0,1.0
1463923604313252104,395,1463923604289694174,,-2.98517394066,1.44493973255,124.467964172,0.0202569998801,1.0,0.0,0.0,0.0,1.0,0.0,0.0,0.0,1.0,-14.5731706619,-18.0487823486,-16.4024391174,1.0,0.0,0.0,0.0,1.0,0.0,0.0,0.0,1.0,0.421379492187,-0.110133276367,10.5727945312,1.0,0.0,0.0,0.0,1.0,0.0,0.0,0.0,1.0
1463923604353202010,396,1463923604314648158,,-3.4788274765,1.10383152962,124.268226624,0.020524000749,1.0,0.0,0.0,0.0,1.0,0.0,0.0,0.0,1.0,-11.5853662491,-24.7560977936,-8.65853691101,1.0,0.0,0.0,0.0,1.0,0.0,0.0,0.0,1.0,0.876277807617,-0.799663354492,11.3485158691,1.0,0.0,0.0,0.0,1.0,0.0,0.0,0.0,1.0
1463923604353477637,397,1463923604330317941,,-4.0303144455,0.839187502861,124.1720047,0.0202990006655,1.0,0.0,0.0,0.0,1.0,0.0,0.0,0.0,1.0,-7.43902492523,-27.0731716156,-3.84146332741,1.0,0.0,0.0,0.0,1.0,0.0,0.0,0.0,1.0,1.13006318359,-0.952892260742,11.5448404053,1.0,0.0,0.0,0.0,1.0,0.0,0.0,0.0,1.0
1463923604391186741,398,1463923604359981969,,-4.6235537529,0.751365363598,124.170539856,0.0212960001081,1.0,0.0,0.0,0.0,1.0,0.0,0.0,0.0,1.0,-2.68292689323,-26.3414649963,0.975609779358,1.0,0.0,0.0,0.0,1.0,0.0,0.0,0.0,1.0,1.49398183594,-0.0861912597656,11.3533042725,1.0,0.0,0.0,0.0,1.0,0.0,0.0,0.0,1.0
1463923604391260336,399,1463923604371579318,,-5.16780900955,0.707401573658,124.146751404,0.0195090007037,1.0,0.0,0.0,0.0,1.0,0.0,0.0,0.0,1.0,-2.56097555161,-27.0121955872,-0.0609756112099,1.0,0.0,0.0,0.0,1.0,0.0,0.0,0.0,1.0,1.42215578613,0.220266552734,10.8457335205,1.0,0.0,0.0,0.0,1.0,0.0,0.0,0.0,1.0
1463923604434418033,400,1463923604391620496,,-5.78022813797,0.598232388496,124.083518982,0.0204019993544,1.0,0.0,0.0,0.0,1.0,0.0,0.0,0.0,1.0,-2.98780488968,-28.7195110321,-2.19512200356,1.0,0.0,0.0,0.0,1.0,0.0,0.0,0.0,1.0,1.66157595215,-0.354341845703,11.1713449463,1.0,0.0,0.0,0.0,1.0,0.0,0.0,0.0,1.0
1463923604434685119,401,1463923604412942310,,-6.32685184479,0.486354470253,124.050857544,0.0204070005566,1.0,0.0,0.0,0.0,1.0,0.0,0.0,0.0,1.0,-3.47560977936,-23.1707324982,-0.792682945728,1.0,0.0,0.0,0.0,1.0,0.0,0.0,0.0,1.0,2.39899020961,-0.301669427446,11.8896054443,1.0,0.0,0.0,0.0,1.0,0.0,0.0,0.0,1.0
1463923604467838503,402,1463923604432483067,,-6.6560792923,0.368531882763,124.03478241,0.0204210001975,1.0,0.0,0.0,0.0,1.0,0.0,0.0,0.0,1.0,-5.48780488968,-11.4634151459,0.0609756112099,1.0,0.0,0.0,0.0,1.0,0.0,0.0,0.0,1.0,2.71502468262,0.0622492431641,11.7603185547,1.0,0.0,0.0,0.0,1.0,0.0,0.0,0.0,1.0
1463923604467935431,403,1463923604455672711,,-6.75670909882,0.191736847162,123.91986084,0.0219950005412,1.0,0.0,0.0,0.0,1.0,0.0,0.0,0.0,1.0,-8.41463470459,-1.34146344662,-4.39024400711,1.0,0.0,0.0,0.0,1.0,0.0,0.0,0.0,1.0,2.29843359375,0.0622492431641,10.9175595703,1.0,0.0,0.0,0.0,1.0,0.0,0.0,0.0,1.0
1463923604508527218,404,1463923604474895913,,-6.78097915649,0.015676246956,123.638397217,0.0205669999123,1.0,0.0,0.0,0.0,1.0,0.0,0.0,0.0,1.0,-8.04878044128,3.17073178291,-12.9878053665,1.0,0.0,0.0,0.0,1.0,0.0,0.0,0.0,1.0,2.34631748082,-0.320823022461,10.0652237793,1.0,0.0,0.0,0.0,1.0,0.0,0.0,0.0,1.0
1463923604508624927,405,1463923604493507962,,-6.68434524536,-0.0945173427463,123.240715027,0.0186390001327,1.0,0.0,0.0,0.0,1.0,0.0,0.0,0.0,1.0,-6.15853643417,8.84146404266,-20.5487823486,1.0,0.0,0.0,0.0,1.0,0.0,0.0,0.0,1.0,2.20745393066,-0.373495458984,10.0412817627,1.0,0.0,0.0,0.0,1.0,0.0,0.0,0.0,1.0
1463923604551186993,406,1463923604514021488,,-6.49101543427,-0.171931326389,122.684432983,0.0204039998353,1.0,0.0,0.0,0.0,1.0,0.0,0.0,0.0,1.0,-5.06097555161,11.7682924271,-26.3414649963,1.0,0.0,0.0,0.0,1.0,0.0,0.0,0.0,1.0,1.93930334473,-0.320823022461,10.1035310059,1.0,0.0,0.0,0.0,1.0,0.0,0.0,0.0,1.0
1463923604551261369,407,1463923604536674305,,-6.25735139847,-0.22395336628,122.065681458,0.0204429998994,1.0,0.0,0.0,0.0,1.0,0.0,0.0,0.0,1.0,-2.19512200356,12.7439022064,-29.5121974945,1.0,0.0,0.0,0.0,1.0,0.0,0.0,0.0,1.0,1.72861359863,-0.675164868164,10.1753570557,1.0,0.0,0.0,0.0,1.0,0.0,0.0,0.0,1.0
1463923604596423772,408,1463923604574786173,,-6.11174488068,-0.136440768838,121.476028442,0.0211490001529,1.0,0.0,0.0,0.0,1.0,0.0,0.0,0.0,1.0,1.8292683363,7.92682981491,-26.8292694092,1.0,0.0,0.0,0.0,1.0,0.0,0.0,0.0,1.0,1.44609780273,-0.114921679688,8.98304462891,1.0,0.0,0.0,0.0,1.0,0.0,0.0,0.0,1.0
1463923604596621743,409,1463923604579218246,,-5.99366474152,-0.0453038476408,120.908279419,0.0210219994187,1.0,0.0,0.0,0.0,1.0,0.0,0.0,0.0,1.0,2.07317066193,6.52439069748,-25.975610733,1.0,0.0,0.0,0.0,1.0,0.0,0.0,0.0,1.0,1.37427175293,-0.0814028564453,8.76756647949,1.0,0.0,0.0,0.0,1.0,0.0,0.0,0.0,1.0
1463923604672582508,410,1463923604595913299,,-5.97686672211,0.0428708717227,120.448196411,0.0190340001136,1.0,0.0,0.0,0.0,1.0,0.0,0.0,0.0,1.0,3.17073178291,3.29268312454,-23.2317085266,1.0,0.0,0.0,0.0,1.0,0.0,0.0,0.0,1.0,1.5083470459,-0.134075302102,8.2504189209,1.0,0.0,0.0,0.0,1.0,0.0,0.0,0.0,1.0
1463923604675613422,411,1463923604618781795,,-6.07137727737,0.210957199335,120.042144775,0.0204099994153,1.0,0.0,0.0,0.0,1.0,0.0,0.0,0.0,1.0,4.63414621353,-1.64634156227,-18.7195110321,1.0,0.0,0.0,0.0,1.0,0.0,0.0,0.0,1.0,1.48919343262,0.244208569336,7.67581052246,1.0,0.0,0.0,0.0,1.0,0.0,0.0,0.0,1.0
1463923604679656272,412,1463923604636684983,,-6.27163124084,0.422863453627,119.708206177,0.0204150006175,1.0,0.0,0.0,0.0,1.0,0.0,0.0,0.0,1.0,4.87804889679,-7.19512224197,-14.9390249252,1.0,0.0,0.0,0.0,1.0,0.0,0.0,0.0,1.0,1.40300217285,0.555454785156,7.38371791992,1.0,0.0,0.0,0.0,1.0,0.0,0.0,0.0,1.0
1463923604679720492,413,1463923604657071842,,-6.62708997726,0.594719946384,119.465942383,0.0204099994153,1.0,0.0,0.0,0.0,1.0,0.0,0.0,0.0,1.0,3.53658556938,-12.6219520569,-10.4268293381,1.0,0.0,0.0,0.0,1.0,0.0,0.0,0.0,1.0,1.77170922852,0.574608398438,7.55131203613,1.0,0.0,0.0,0.0,1.0,0.0,0.0,0.0,1.0
1463923604743961928,414,1463923604677546877,,-7.05246543884,0.73384475708,119.304634094,0.0204349998385,1.0,0.0,0.0,0.0,1.0,0.0,0.0,0.0,1.0,1.70731711388,-14.3292694092,-6.34146356583,1.0,0.0,0.0,0.0,1.0,0.0,0.0,0.0,1.0,2.14041643031,0.713472094727,7.82903942871,1.0,0.0,0.0,0.0,1.0,0.0,0.0,0.0,1.0
1463923604744230264,415,1463923604699421718,,-7.48175430298,0.805984079838,119.233703613,0.021867999807,1.0,0.0,0.0,0.0,1.0,0.0,0.0,0.0,1.0,-0.426829278469,-11.8902444839,-1.8292683363,1.0,0.0,0.0,0.0,1.0,0.0,0.0,0.0,1.0,2.45645090332,0.632069238281,8.06367119141,1.0,0.0,0.0,0.0,1.0,0.0,0.0,0.0,1.0
1463923604813965658,416,1463923604718308979,,-7.80551767349,0.841703355312,119.192420959,0.0189360007644,1.0,0.0,0.0,0.0,1.0,0.0,0.0,0.0,1.0,-3.47560977936,-9.26829242706,-0.548780500889,1.0,0.0,0.0,0.0,1.0,0.0,0.0,0.0,1.0,2.56179577637,0.9193734375,8.13549724121,1.0,0.0,0.0,0.0,1.0,0.0,0.0,0.0,1.0
1463923604814278994,417,1463923604739646887,,-8.11006355286,0.770573675632,119.143760681,0.0211110003293,1.0,0.0,0.0,0.0,1.0,0.0,0.0,0.0,1.0,-6.28048801422,-6.40243911743,-1.03658533096,1.0,0.0,0.0,0.0,1.0,0.0,0.0,0.0,1.0,2.7102362793,0.560243188477,8.36055161274,1.0,0.0,0.0,0.0,1.0,0.0,0.0,0.0,1.0
1463923604814571080,418,1463923604759723586,,-8.36734294891,0.67388433218,119.080047607,0.0199020002037,1.0,0.0,0.0,0.0,1.0,0.0,0.0,0.0,1.0,-8.10975551605,-5.73170757294,-1.8902438879,1.0,0.0,0.0,0.0,1.0,0.0,0.0,0.0,1.0,2.72938989258,0.603338854892,8.69574042969,1.0,0.0,0.0,0.0,1.0,0.0,0.0,0.0,1.0
1463923604814894208,419,1463923604779654867,,-8.61820220947,0.527220845222,118.973556519,0.0202140007168,1.0,0.0,0.0,0.0,1.0,0.0,0.0,0.0,1.0,-10.0609760284,-6.70731735229,-4.02439022064,1.0,0.0,0.0,0.0,1.0,0.0,0.0,0.0,1.0,2.66714064941,0.488417138672,9.193734375,1.0,0.0,0.0,0.0,1.0,0.0,0.0,0.0,1.0
1463923604828021102,420,1463923604800175997,,-8.92953968048,0.34471642971,118.837013245,0.020372999832,1.0,0.0,0.0,0.0,1.0,0.0,0.0,0.0,1.0,-12.1951217651,-11.6463422775,-5.36585378647,1.0,0.0,0.0,0.0,1.0,0.0,0.0,0.0,1.0,2.46123930664,0.517147558594,9.64384487163,1.0,0.0,0.0,0.0,1.0,0.0,0.0,0.0,1.0
1463923604828075530,421,1463923604820835150,,-9.30425453186,0.0769349336624,118.723991394,0.0204980000854,1.0,0.0,0.0,0.0,1.0,0.0,0.0,0.0,1.0,-15.0000009537,-14.7560987473,-4.39024400711,1.0,0.0,0.0,0.0,1.0,0.0,0.0,0.0,1.0,2.63362182617,0.296881024126,10.1992990723,1.0,0.0,0.0,0.0,1.0,0.0,0.0,0.0,1.0
1463923604868106791,422,1463923604841845451,,-9.68848705292,-0.259684711695,118.680953979,0.0208790004253,1.0,0.0,0.0,0.0,1.0,0.0,0.0,0.0,1.0,-15.4268302917,-15.3658533096,-1.40243899822,1.0,0.0,0.0,0.0,1.0,0.0,0.0,0.0,1.0,2.7341782959,-0.15322890625,10.6972930176,1.0,0.0,0.0,0.0,1.0,0.0,0.0,0.0,1.0
1463923604868161583,423,1463923604863390914,,-10.0370464325,-0.620598852634,118.691459656,0.0214569997042,1.0,0.0,0.0,0.0,1.0,0.0,0.0,0.0,1.0,-12.5609760284,-13.4756097794,0.487804889679,1.0,0.0,0.0,0.0,1.0,0.0,0.0,0.0,1.0,2.78685073242,-0.847547387695,10.7978494873,1.0,0.0,0.0,0.0,1.0,0.0,0.0,0.0,1.0
1463923604912890076,424,1463923604881343374,,-10.2659883499,-0.799905836582,118.680854797,0.0188040006906,1.0,0.0,0.0,0.0,1.0,0.0,0.0,0.0,1.0,-9.14634132385,-11.8902444839,0.0609756112099,1.0,0.0,0.0,0.0,1.0,0.0,0.0,0.0,1.0,2.22660754395,-0.167594116211,10.2280294922,1.0,0.0,0.0,0.0,1.0,0.0,0.0,0.0,1.0
1463923604913165131,425,1463923604902835346,,-10.5646572113,-0.984599530697,118.679206848,0.0204140003771,1.0,0.0,0.0,0.0,1.0,0.0,0.0,0.0,1.0,-6.0365858078,-14.5731706619,0.0,1.0,0.0,0.0,0.0,1.0,0.0,0.0,0.0,1.0,2.64798703613,-0.804451757813,12.1481792236,1.0,0.0,0.0,0.0,1.0,0.0,0.0,0.0,1.0
1463923604949267345,426,1463923604922151778,,-10.7141094208,-1.15209376812,118.78427887,0.020422000438,1.0,0.0,0.0,0.0,1.0,0.0,0.0,0.0,1.0,-2.37804889679,-5.30487823486,4.87804889679,1.0,0.0,0.0,0.0,1.0,0.0,0.0,0.0,1.0,3.33272871094,-1.33117612305,12.7179992187,1.0,0.0,0.0,0.0,1.0,0.0,0.0,0.0,1.0
1463923604949511462,427,1463923604942444677,,-10.6222076416,-1.21469044685,118.922729492,0.0203879997134,1.0,0.0,0.0,0.0,1.0,0.0,0.0,0.0,1.0,2.19512200356,4.20731735229,6.82926845551,1.0,0.0,0.0,0.0,1.0,0.0,0.0,0.0,1.0,2.70544787598,-1.10612116699,12.1864864502,1.0,0.0,0.0,0.0,1.0,0.0,0.0,0.0,1.0
1463923604988462140,428,1463923604963159871,,-10.4550457001,-1.18501329422,118.996444702,0.0206250008196,1.0,0.0,0.0,0.0,1.0,0.0,0.0,0.0,1.0,3.65853667259,6.82926845551,4.20731735229,1.0,0.0,0.0,0.0,1.0,0.0,0.0,0.0,1.0,2.15478164027,-0.497993945312,10.7212350342,1.0,0.0,0.0,0.0,1.0,0.0,0.0,0.0,1.0
1463923604988517817,429,1463923604983205007,,-10.364739418,-1.15121400356,118.940658569,0.0201859995723,1.0,0.0,0.0,0.0,1.0,0.0,0.0,0.0,1.0,4.32926845551,5.48780488968,-2.31707310677,1.0,0.0,0.0,0.0,1.0,0.0,0.0,0.0,1.0,2.44687409668,-0.775721337891,10.2807019287,1.0,0.0,0.0,0.0,1.0,0.0,0.0,0.0,1.0
1463923605030665348,430,1463923605007515027,,-10.259967804,-1.04489290714,118.767433167,0.0204349998385,1.0,0.0,0.0,0.0,1.0,0.0,0.0,0.0,1.0,7.31707334518,6.46341466904,-7.98780536652,1.0,0.0,0.0,0.0,1.0,0.0,0.0,0.0,1.0,2.37983659633,-0.828393774414,9.89762966309,1.0,0.0,0.0,0.0,1.0,0.0,0.0,0.0,1.0
1463923605030699776,431,1463923605024098829,,-10.1272888184,-0.915910243988,118.568611145,0.0203840006143,1.0,0.0,0.0,0.0,1.0,0.0,0.0,0.0,1.0,8.90243911743,8.96341514587,-9.32926845551,1.0,0.0,0.0,0.0,1.0,0.0,0.0,0.0,1.0,2.50912333984,-0.91458503418,9.66778688823,1.0,0.0,0.0,0.0,1.0,0.0,0.0,0.0,1.0
1463923605069783684,432,1463923605044425894,,-9.87718772888,-0.779307901859,118.355171204,0.0203980002552,1.0,0.0,0.0,0.0,1.0,0.0,0.0,0.0,1.0,9.39024448395,14.8170728683,-10.0,1.0,0.0,0.0,0.0,1.0,0.0,0.0,0.0,1.0,2.4756045166,-0.9193734375,9.55286520855,1.0,0.0,0.0,0.0,1.0,0.0,0.0,0.0,1.0
1463923605069935092,433,1463923605065737553,,-9.47773647308,-0.628451704979,118.156494141,0.0204329993576,1.0,0.0,0.0,0.0,1.0,0.0,0.0,0.0,1.0,9.81707286835,21.7073173523,-9.14634132385,1.0,0.0,0.0,0.0,1.0,0.0,0.0,0.0,1.0,2.38941340297,-0.823605371094,9.65821008159,1.0,0.0,0.0,0.0,1.0,0.0,0.0,0.0,1.0
1463923605108400037,434,1463923605085370654,,-9.00487613678,-0.436868429184,117.928977966,0.020386999473,1.0,0.0,0.0,0.0,1.0,0.0,0.0,0.0,1.0,8.23170757294,25.4268302917,-10.0,1.0,0.0,0.0,0.0,1.0,0.0,0.0,0.0,1.0,2.20745393066,-0.172382519531,9.1458503418,1.0,0.0,0.0,0.0,1.0,0.0,0.0,0.0,1.0
1463923605109097960,435,1463923605105660011,,-8.49162578583,-0.248977676034,117.570648193,0.0204249992967,1.0,0.0,0.0,0.0,1.0,0.0,0.0,0.0,1.0,3.7804877758,24.817073822,-15.8536596298,1.0,0.0,0.0,0.0,1.0,0.0,0.0,0.0,1.0,1.6041151123,0.397437475586,8.64306857769,1.0,0.0,0.0,0.0,1.0,0.0,0.0,0.0,1.0
1463923605155427561,436,1463923605126044681,,-8.10035705566,-0.156102195382,117.077613831,0.0203939992934,1.0,0.0,0.0,0.0,1.0,0.0,0.0,0.0,1.0,-1.70731711388,22.8658542633,-22.5,1.0,0.0,0.0,0.0,1.0,0.0,0.0,0.0,1.0,2.09732050817,0.421379492187,8.37012841938,1.0,0.0,0.0,0.0,1.0,0.0,0.0,0.0,1.0
1463923605155888399,437,1463923605147049826,,-7.67310714722,-0.170221209526,116.472335815,0.0207269992679,1.0,0.0,0.0,0.0,1.0,0.0,0.0,0.0,1.0,-7.19512224197,24.3292694092,-27.5609760284,1.0,0.0,0.0,0.0,1.0,0.0,0.0,0.0,1.0,2.06859023437,0.397437475586,8.4802628648,1.0,0.0,0.0,0.0,1.0,0.0,0.0,0.0,1.0
1463923605175697179,438,1463923605167138505,,-7.23263025284,-0.284120738506,115.822822571,0.0201149992645,1.0,0.0,0.0,0.0,1.0,0.0,0.0,0.0,1.0,-13.9024391174,24.1463432312,-30.4268321991,1.0,0.0,0.0,0.0,1.0,0.0,0.0,0.0,1.0,1.79565124512,0.641646044922,8.63349177105,1.0,0.0,0.0,0.0,1.0,0.0,0.0,0.0,1.0
1463923605198983179,439,1463923605187635207,,-6.82198953629,-0.571734011173,115.13192749,0.0204419996589,1.0,0.0,0.0,0.0,1.0,0.0,0.0,0.0,1.0,-21.0365848541,20.9146347046,-32.0731697083,1.0,0.0,0.0,0.0,1.0,0.0,0.0,0.0,1.0,1.52750065918,0.440533105469,8.90164177246,1.0,0.0,0.0,0.0,1.0,0.0,0.0,0.0,1.0
1463923605216676574,440,1463923605208049462,,-6.47261381149,-0.96431106329,114.44178772,0.0203789994121,1.0,0.0,0.0,0.0,1.0,0.0,0.0,0.0,1.0,-24.817073822,16.4634151459,-32.2560958862,1.0,0.0,0.0,0.0,1.0,0.0,0.0,0.0,1.0,1.22104284668,0.205901342773,9.15063874512,1.0,0.0,0.0,0.0,1.0,0.0,0.0,0.0,1.0
1463923605281722601,441,1463923605228408819,,-6.31684398651,-1.40495812893,113.764770508,0.0203820001334,1.0,0.0,0.0,0.0,1.0,0.0,0.0,0.0,1.0,-25.6097564697,8.84146404266,-31.8292694092,1.0,0.0,0.0,0.0,1.0,0.0,0.0,0.0,1.0,1.42215578613,-0.076614453125,9.05965908203,1.0,0.0,0.0,0.0,1.0,0.0,0.0,0.0,1.0
1463923605282002031,442,1463923605248740573,,-6.26624202728,-1.85792517662,113.122703552,0.0204550009221,1.0,0.0,0.0,0.0,1.0,0.0,0.0,0.0,1.0,-24.5121955872,3.84146332741,-30.2439022064,1.0,0.0,0.0,0.0,1.0,0.0,0.0,0.0,1.0,1.44609780273,-0.383072265625,9.40921193989,1.0,0.0,0.0,0.0,1.0,0.0,0.0,0.0,1.0
1463923605282261981,443,1463923605269213629,,-6.26845359802,-2.2406129837,112.538887024,0.0204140003771,1.0,0.0,0.0,0.0,1.0,0.0,0.0,0.0,1.0,-21.5243911743,1.76829278469,-27.4390258789,1.0,0.0,0.0,0.0,1.0,0.0,0.0,0.0,1.0,1.57059628906,-0.349553442383,9.83538041992,1.0,0.0,0.0,0.0,1.0,0.0,0.0,0.0,1.0
1463923605308073525,444,1463923605289758979,,-6.30256223679,-2.57673597336,112.007034302,0.0205470006913,1.0,0.0,0.0,0.0,1.0,0.0,0.0,0.0,1.0,-17.7439022064,-1.8292683363,-25.0,1.0,0.0,0.0,0.0,1.0,0.0,0.0,0.0,1.0,1.26892687988,-0.646434448242,10.4243540283,1.0,0.0,0.0,0.0,1.0,0.0,0.0,0.0,1.0
1463923605324878579,445,1463923605309999794,,-6.42219209671,-2.82278561592,111.526161194,0.0202329996973,1.0,0.0,0.0,0.0,1.0,0.0,0.0,0.0,1.0,-12.4390249252,-6.70731735229,-23.2317085266,1.0,0.0,0.0,0.0,1.0,0.0,0.0,0.0,1.0,1.20188930646,-0.91458503418,10.8696755371,1.0,0.0,0.0,0.0,1.0,0.0,0.0,0.0,1.0
1463923605340224140,446,1463923605330436392,,-6.67099237442,-2.95432305336,111.069023132,0.0203939992934,1.0,0.0,0.0,0.0,1.0,0.0,0.0,0.0,1.0,-6.58536624908,-13.4756097794,-22.2560977936,1.0,0.0,0.0,0.0,1.0,0.0,0.0,0.0,1.0,1.14921679688,-0.991199487305,11.0660000732,1.0,0.0,0.0,0.0,1.0,0.0,0.0,0.0,1.0
1463923605357047787,447,1463923605350868042,,-7.02695178986,-2.9469165802,110.617378235,0.0204150006175,1.0,0.0,0.0,0.0,1.0,0.0,0.0,0.0,1.0,-0.548780500889,-16.9512195587,-22.0731716156,1.0,0.0,0.0,0.0,1.0,0.0,0.0,0.0,1.0,1.56580788574,-0.890643017578,11.2048637695,1.0,0.0,0.0,0.0,1.0,0.0,0.0,0.0,1.0
1463923605389596791,448,1463923605371221879,,-7.41372346878,-2.85587143898,110.124893188,0.0204029995948,1.0,0.0,0.0,0.0,1.0,0.0,0.0,0.0,1.0,3.59756112099,-22.6219520569,-24.3902435303,1.0,0.0,0.0,0.0,1.0,0.0,0.0,0.0,1.0,0.742202514648,-0.9193734375,10.5632177246,1.0,0.0,0.0,0.0,1.0,0.0,0.0,0.0,1.0
1463923605398620834,449,1463923605391544101,,-8.06101226807,-2.7312772274,109.643356323,0.0203990004957,1.0,0.0,0.0,0.0,1.0,0.0,0.0,0.0,1.0,9.51219558716,-31.5853652954,-24.817073822,1.0,0.0,0.0,0.0,1.0,0.0,0.0,0.0,1.0,1.57538469238,-1.78607443848,10.7260234375,1.0,0.0,0.0,0.0,1.0,0.0,0.0,0.0,1.0
1463923605423521224,450,1463923605412150648,,-8.5910692215,-2.44001221657,109.303375244,0.0204349998385,1.0,0.0,0.0,0.0,1.0,0.0,0.0,0.0,1.0,12.7439022064,-21.4634151459,-16.5853652954,1.0,0.0,0.0,0.0,1.0,0.0,0.0,0.0,1.0,3.0406361084,-0.751779321289,12.3732341797,1.0,0.0,0.0,0.0,1.0,0.0,0.0,0.0,1.0
1463923605437850317,451,1463923605432335682,,-8.74329948425,-2.18253588676,109.06427002,0.0203910004348,1.0,0.0,0.0,0.0,1.0,0.0,0.0,0.0,1.0,10.0,-6.70731735229,-10.7926826477,1.0,0.0,0.0,0.0,1.0,0.0,0.0,0.0,1.0,2.37983659633,-0.292092584273,12.4259066162,1.0,0.0,0.0,0.0,1.0,0.0,0.0,0.0,1.0
1463923605458539052,452,1463923605452957333,,-8.68995380402,-1.98880279064,108.797447205,0.02054399997,1.0,0.0,0.0,0.0,1.0,0.0,0.0,0.0,1.0,6.52439069748,1.52439022064,-11.7073173523,1.0,0.0,0.0,0.0,1.0,0.0,0.0,0.0,1.0,1.82438166504,-0.201112939453,11.3389390625,1.0,0.0,0.0,0.0,1.0,0.0,0.0,0.0,1.0
1463923605479799773,453,1463923605473478359,,-8.60115432739,-1.83621871471,108.436256409,0.0202939994633,1.0,0.0,0.0,0.0,1.0,0.0,0.0,0.0,1.0,6.95121955872,7.98780536652,-16.7073173523,1.0,0.0,0.0,0.0,1.0,0.0,0.0,0.0,1.0,2.58573779297,-0.742202514648,10.5967365479,1.0,0.0,0.0,0.0,1.0,0.0,0.0,0.0,1.0
1463923605500195329,454,1463923605493757091,,-8.31607627869,-1.63753783703,107.95009613,0.020408000797,1.0,0.0,0.0,0.0,1.0,0.0,0.0,0.0,1.0,7.25609779358,18.5365848541,-22.1951236725,1.0,0.0,0.0,0.0,1.0,0.0,0.0,0.0,1.0,2.62883342285,-0.483628735352,10.1992990723,1.0,0.0,0.0,0.0,1.0,0.0,0.0,0.0,1.0
1463923605525542442,455,1463923605514005198,,-7.76753568649,-1.42896878719,107.371887207,0.0203789994121,1.0,0.0,0.0,0.0,1.0,0.0,0.0,0.0,1.0,5.73170757294,31.0365867615,-26.2195129395,1.0,0.0,0.0,0.0,1.0,0.0,0.0,0.0,1.0,2.59052619629,-0.162805712891,10.658985791,1.0,0.0,0.0,0.0,1.0,0.0,0.0,0.0,1.0
1463923605546573681,456,1463923605534470234,,-6.95660305023,-1.30258309841,106.710723877,0.0204249992967,1.0,0.0,0.0,0.0,1.0,0.0,0.0,0.0,1.0,0.975609779358,41.7682952881,-30.0000019073,1.0,0.0,0.0,0.0,1.0,0.0,0.0,0.0,1.0,2.11168571813,-0.0239420166016,10.8600987305,1.0,0.0,0.0,0.0,1.0,0.0,0.0,0.0,1.0
1463923605560147454,457,1463923605555105532,,-5.96507263184,-1.28715872765,106.009620667,0.0203980002552,1.0,0.0,0.0,0.0,1.0,0.0,0.0,0.0,1.0,-5.0,50.182926178,-31.8292694092,1.0,0.0,0.0,0.0,1.0,0.0,0.0,0.0,1.0,1.838746875,0.15801730957,10.7834842773,1.0,0.0,0.0,0.0,1.0,0.0,0.0,0.0,1.0
1463923605581831824,458,1463923605575371868,,-4.86351919174,-1.41738903522,105.311904907,0.0204230006784,1.0,0.0,0.0,0.0,1.0,0.0,0.0,0.0,1.0,-12.5,60.1219520569,-31.341463089,1.0,0.0,0.0,0.0,1.0,0.0,0.0,0.0,1.0,2.35589428746,0.335188232422,9.94551369629,1.0,0.0,0.0,0.0,1.0,0.0,0.0,0.0,1.0
1463923605599699388,459,1463923605595751226,,-3.47814321518,-1.69767451286,104.626091003,0.0204189997166,1.0,0.0,0.0,0.0,1.0,0.0,0.0,0.0,1.0,-17.3780498505,79.7560958862,-30.3048782349,1.0,0.0,0.0,0.0,1.0,0.0,0.0,0.0,1.0,2.94007963867,0.00957680664062,9.05008227539,1.0,0.0,0.0,0.0,1.0,0.0,0.0,0.0,1.0
1463923605652616916,460,1463923605616119021,,-1.7047252655,-2.01165366173,103.81212616,0.0203900001943,1.0,0.0,0.0,0.0,1.0,0.0,0.0,0.0,1.0,-20.8536586761,97.6829299927,-35.5487823486,1.0,0.0,0.0,0.0,1.0,0.0,0.0,0.0,1.0,2.18830031738,0.330399829102,8.18338127441,1.0,0.0,0.0,0.0,1.0,0.0,0.0,0.0,1.0
1463923605652791866,461,1463923605636478171,,0.304422855377,-2.46033167839,102.835227966,0.0204119998962,1.0,0.0,0.0,0.0,1.0,0.0,0.0,0.0,1.0,-25.7926845551,112.012199402,-42.4390258789,1.0,0.0,0.0,0.0,1.0,0.0,0.0,0.0,1.0,2.31758720703,0.225054956055,8.31266757954,1.0,0.0,0.0,0.0,1.0,0.0,0.0,0.0,1.0
1463923605688686421,462,1463923605656943415,,2.718719244,-3.06920599937,101.775901794,0.0203939992934,1.0,0.0,0.0,0.0,1.0,0.0,0.0,0.0,1.0,-28.6585388184,134.146347046,-44.5121955872,1.0,0.0,0.0,0.0,1.0,0.0,0.0,0.0,1.0,2.29364519043,-0.31124621582,8.43237766255,1.0,0.0,0.0,0.0,1.0,0.0,0.0,0.0,1.0
1463923605688753818,463,1463923605677366888,,5.59870481491,-3.77447199821,100.648139954,0.0204329993576,1.0,0.0,0.0,0.0,1.0,0.0,0.0,0.0,1.0,-28.0487804413,156.463409424,-44.6341438293,1.0,0.0,0.0,0.0,1.0,0.0,0.0,0.0,1.0,1.77649763184,-0.809240161133,8.46110808247,1.0,0.0,0.0,0.0,1.0,0.0,0.0,0.0,1.0
1463923605705496787,464,1463923605697824424,,8.83980941772,-4.48849868774,99.3916244507,0.0204000007361,1.0,0.0,0.0,0.0,1.0,0.0,0.0,0.0,1.0,-25.6707324982,169.146347046,-47.7439041138,1.0,0.0,0.0,0.0,1.0,0.0,0.0,0.0,1.0,0.363918652344,-0.76614453125,8.33182119282,1.0,0.0,0.0,0.0,1.0,0.0,0.0,0.0,1.0
1463923605727622828,465,1463923605718211386,,12.1614532471,-5.25902557373,97.9709243774,0.0204130001366,1.0,0.0,0.0,0.0,1.0,0.0,0.0,0.0,1.0,-22.3170719147,167.012207031,-52.7439041138,1.0,0.0,0.0,0.0,1.0,0.0,0.0,0.0,1.0,-1.25935007324,-1.11090957031,8.79150849609,1.0,0.0,0.0,0.0,1.0,0.0,0.0,0.0,1.0
1463923605743848918,466,1463923605738811579,,15.2551059723,-6.00776195526,96.4812393188,0.0203980002552,1.0,0.0,0.0,0.0,1.0,0.0,0.0,0.0,1.0,-18.5365848541,152.073165894,-54.7560997009,1.0,0.0,0.0,0.0,1.0,0.0,0.0,0.0,1.0,-2.67671745605,-0.962469067383,9.03571706543,1.0,0.0,0.0,0.0,1.0,0.0,0.0,0.0,1.0
1463923605766214545,467,1463923605758967862,,17.9890460968,-6.77710294724,95.0172271729,0.020469000563,1.0,0.0,0.0,0.0,1.0,0.0,0.0,0.0,1.0,-16.341463089,133.719528198,-52.3780517578,1.0,0.0,0.0,0.0,1.0,0.0,0.0,0.0,1.0,-3.52905324707,-1.12527478027,9.45230756977,1.0,0.0,0.0,0.0,1.0,0.0,0.0,0.0,1.0
1463923605783150277,468,1463923605779331439,,20.2339401245,-7.50084352493,93.6810684204,0.0203419998288,1.0,0.0,0.0,0.0,1.0,0.0,0.0,0.0,1.0,-12.9268293381,110.975616455,-46.8902435303,1.0,0.0,0.0,0.0,1.0,0.0,0.0,0.0,1.0,-4.01268198242,-1.34075292969,9.52892319194,1.0,0.0,0.0,0.0,1.0,0.0,0.0,0.0,1.0
1463923605824100401,469,1463923605799648348,,22.1126403809,-8.05642700195,92.707649231,0.0204009991139,1.0,0.0,0.0,0.0,1.0,0.0,0.0,0.0,1.0,-8.96341514587,94.8780517578,-30.2439022064,1.0,0.0,0.0,0.0,1.0,0.0,0.0,0.0,1.0,-3.78283862305,-1.47961662598,9.76834277344,1.0,0.0,0.0,0.0,1.0,0.0,0.0,0.0,1.0
1463923605824185089,470,1463923605820202968,,23.6882171631,-8.37917041779,92.0849761963,0.0204189997166,1.0,0.0,0.0,0.0,1.0,0.0,0.0,0.0,1.0,-5.24390268326,71.158531189,-17.3780498505,1.0,0.0,0.0,0.0,1.0,0.0,0.0,0.0,1.0,-5.66946953125,-1.08217922346,9.77791958008,1.0,0.0,0.0,0.0,1.0,0.0,0.0,0.0,1.0
1463923605850089811,471,1463923605840628941,,24.7626037598,-8.54537677765,91.8154296875,0.0203959997743,1.0,0.0,0.0,0.0,1.0,0.0,0.0,0.0,1.0,-2.98780488968,44.5731735229,-4.51219558716,1.0,0.0,0.0,0.0,1.0,0.0,0.0,0.0,1.0,-6.06211860352,-1.35990654297,9.77791958008,1.0,0.0,0.0,0.0,1.0,0.0,0.0,0.0,1.0
1463923605869382180,472,1463923605861085383,,25.2762718201,-8.4936580658,91.8938293457,0.0204179994762,1.0,0.0,0.0,0.0,1.0,0.0,0.0,0.0,1.0,2.13414645195,18.3536586761,7.86585378647,1.0,0.0,0.0,0.0,1.0,0.0,0.0,0.0,1.0,-5.60243188477,-1.73819040527,9.90720646973,1.0,0.0,0.0,0.0,1.0,0.0,0.0,0.0,1.0
1463923605895059296,473,1463923605881598024,,25.3900527954,-8.20083618164,92.2613601685,0.0204269997776,1.0,0.0,0.0,0.0,1.0,0.0,0.0,0.0,1.0,9.51219558716,-0.914634168148,18.5975627899,1.0,0.0,0.0,0.0,1.0,0.0,0.0,0.0,1.0,-5.31033928223,-2.11168571813,9.99339772949,1.0,0.0,0.0,0.0,1.0,0.0,0.0,0.0,1.0
1463923605931308751,474,1463923605901782172,,25.1100540161,-7.65380716324,92.7716217041,0.0203830003738,1.0,0.0,0.0,0.0,1.0,0.0,0.0,0.0,1.0,17.4390239716,-22.4390239716,21.158536911,1.0,0.0,0.0,0.0,1.0,0.0,0.0,0.0,1.0,-5.65510432129,-1.67594116211,9.89762966309,1.0,0.0,0.0,0.0,1.0,0.0,0.0,0.0,1.0
1463923605931711619,475,1463923605922240749,,24.2799720764,-6.95283508301,93.2750015259,0.0204559992999,1.0,0.0,0.0,0.0,1.0,0.0,0.0,0.0,1.0,20.1219520569,-50.8536605835,14.8780498505,1.0,0.0,0.0,0.0,1.0,0.0,0.0,0.0,1.0,-6.20577070312,-0.407014282227,10.1466266357,1.0,0.0,0.0,0.0,1.0,0.0,0.0,0.0,1.0
1463923605949288295,476,1463923605942526200,,22.726360321,-6.35203742981,93.6898345947,0.0203719995916,1.0,0.0,0.0,0.0,1.0,0.0,0.0,0.0,1.0,15.1219511032,-85.6097564697,6.58536624908,1.0,0.0,0.0,0.0,1.0,0.0,0.0,0.0,1.0,-5.85621726074,0.248996972656,9.95987890625,1.0,0.0,0.0,0.0,1.0,0.0,0.0,0.0,1.0
1463923605980964686,477,1463923605962948944,,20.527009964,-5.97161149979,94.0267105103,0.0204019993544,1.0,0.0,0.0,0.0,1.0,0.0,0.0,0.0,1.0,9.20731735229,-114.634155273,2.25609779358,1.0,0.0,0.0,0.0,1.0,0.0,0.0,0.0,1.0,-4.83149924246,-0.320823022461,9.52892319194,1.0,0.0,0.0,0.0,1.0,0.0,0.0,0.0,1.0
1463923605997133796,478,1463923605983339916,,17.7601776123,-5.70799922943,94.3487319946,0.0204070005566,1.0,0.0,0.0,0.0,1.0,0.0,0.0,0.0,1.0,6.70731735229,-144.390258789,0.426829278469,1.0,0.0,0.0,0.0,1.0,0.0,0.0,0.0,1.0,-4.53940634766,-0.694318481445,8.96389101563,1.0,0.0,0.0,0.0,1.0,0.0,0.0,0.0,1.0
1463923606012787432,479,1463923606003777452,,14.3952646255,-5.48312044144,94.7253036499,0.0204039998353,1.0,0.0,0.0,0.0,1.0,0.0,0.0,0.0,1.0,5.67073154449,-169.329269409,1.76829278469,1.0,0.0,0.0,0.0,1.0,0.0,0.0,0.0,1.0,-3.19865341797,-0.823605371094,9.07881269531,1.0,0.0,0.0,0.0,1.0,0.0,0.0,0.0,1.0
1463923606055963046,480,1463923606024185300,,10.6896886826,-5.33338403702,95.1446990967,0.0204160008579,1.0,0.0,0.0,0.0,1.0,0.0,0.0,0.0,1.0,5.06097555161,-184.451217651,3.90243911743,1.0,0.0,0.0,0.0,1.0,0.0,0.0,0.0,1.0,-2.38941340297,-1.2497732666,9.34217429341,1.0,0.0,0.0,0.0,1.0,0.0,0.0,0.0,1.0
1463923606056381592,481,1463923606045469927,,6.65433311462,-5.17385673523,95.6170654297,0.0207959990948,1.0,0.0,0.0,0.0,1.0,0.0,0.0,0.0,1.0,6.58536624908,-196.097564697,5.67073154449,1.0,0.0,0.0,0.0,1.0,0.0,0.0,0.0,1.0,-1.63284553223,-1.2976572998,9.75397756348,1.0,0.0,0.0,0.0,1.0,0.0,0.0,0.0,1.0
1463923606143931632,482,1463923606067159974,,2.49230289459,-4.97356843948,96.2311096191,0.0210040006787,1.0,0.0,0.0,0.0,1.0,0.0,0.0,0.0,1.0,5.97560977936,-199.695114136,12.1341466904,1.0,0.0,0.0,0.0,1.0,0.0,0.0,0.0,1.0,-0.732625708008,-0.632069238281,9.66778688823,1.0,0.0,0.0,0.0,1.0,0.0,0.0,0.0,1.0
1463923606143976320,483,1463923606085882077,,-1.41070210934,-4.91587400436,96.9138641357,0.0194290000945,1.0,0.0,0.0,0.0,1.0,0.0,0.0,0.0,1.0,2.43902444839,-194.817077637,19.2073173523,1.0,0.0,0.0,0.0,1.0,0.0,0.0,0.0,1.0,1.40779057617,-0.790086547852,9.81622680664,1.0,0.0,0.0,0.0,1.0,0.0,0.0,0.0,1.0
1463923606144011841,484,1463923606105873098,,-4.98407363892,-4.93775367737,97.7870559692,0.0204099994153,1.0,0.0,0.0,0.0,1.0,0.0,0.0,0.0,1.0,0.365853667259,-173.353668213,28.7804889679,1.0,0.0,0.0,0.0,1.0,0.0,0.0,0.0,1.0,1.30723410645,-0.588973571866,8.9112185791,1.0,0.0,0.0,0.0,1.0,0.0,0.0,0.0,1.0
1463923606177121267,485,1463923606126252925,,-8.26770973206,-5.05093955994,98.7911376953,0.0204060003161,1.0,0.0,0.0,0.0,1.0,0.0,0.0,0.0,1.0,-5.24390268326,-153.658538818,36.9512214661,1.0,0.0,0.0,0.0,1.0,0.0,0.0,0.0,1.0,2.75333190918,0.143652099609,8.34139799946,1.0,0.0,0.0,0.0,1.0,0.0,0.0,0.0,1.0
1463923606177561792,486,1463923606146689835,,-11.0467033386,-5.31540441513,99.7028274536,0.0205550007522,1.0,0.0,0.0,0.0,1.0,0.0,0.0,0.0,1.0,-13.1097564697,-130.975616455,34.0243911743,1.0,0.0,0.0,0.0,1.0,0.0,0.0,0.0,1.0,2.60967980957,0.474051928711,7.9439611084,1.0,0.0,0.0,0.0,1.0,0.0,0.0,0.0,1.0
1463923606178250965,487,1463923606166930911,,-13.3014440536,-5.79365682602,100.58895874,0.0202399995178,1.0,0.0,0.0,0.0,1.0,0.0,0.0,0.0,1.0,-18.9634151459,-111.341468811,33.9634132385,1.0,0.0,0.0,0.0,1.0,0.0,0.0,0.0,1.0,2.54743056641,-0.0335188255255,8.3749168227,1.0,0.0,0.0,0.0,1.0,0.0,0.0,0.0,1.0
1463923606210602675,488,1463923606187363707,,-15.1846542358,-6.4435300827,101.511222839,0.0204089991748,1.0,0.0,0.0,0.0,1.0,0.0,0.0,0.0,1.0,-25.3048782349,-92.8048782349,36.0975646973,1.0,0.0,0.0,0.0,1.0,0.0,0.0,0.0,1.0,3.064578125,-0.0909796630859,8.83460412598,1.0,0.0,0.0,0.0,1.0,0.0,0.0,0.0,1.0
1463923606210793874,489,1463923606208160673,,-16.5531787872,-7.26465463638,102.534507751,0.0204160008579,1.0,0.0,0.0,0.0,1.0,0.0,0.0,0.0,1.0,-28.7804889679,-68.5365905762,41.8292694092,1.0,0.0,0.0,0.0,1.0,0.0,0.0,0.0,1.0,3.51947644043,-0.593762048251,9.06923588867,1.0,0.0,0.0,0.0,1.0,0.0,0.0,0.0,1.0
1463923606232705903,490,1463923606228530864,,-17.338262558,-8.15609359741,103.640388489,0.0204380005598,1.0,0.0,0.0,0.0,1.0,0.0,0.0,0.0,1.0,-29.0243911743,-42.317073822,47.7439041138,1.0,0.0,0.0,0.0,1.0,0.0,0.0,0.0,1.0,3.90254870605,-1.00556469727,9.90720646973,1.0,0.0,0.0,0.0,1.0,0.0,0.0,0.0,1.0
1463923606254396836,491,1463923606248707407,,-17.617767334,-9.01669788361,104.670524597,0.0204879995435,1.0,0.0,0.0,0.0,1.0,0.0,0.0,0.0,1.0,-28.7804889679,-19.9390239716,47.0121994019,1.0,0.0,0.0,0.0,1.0,0.0,0.0,0.0,1.0,3.68707055664,-1.03429511719,9.97903251953,1.0,0.0,0.0,0.0,1.0,0.0,0.0,0.0,1.0
1463923606276754546,492,1463923606269318747,,-17.525396347,-9.77862644196,105.504631042,0.0202929992229,1.0,0.0,0.0,0.0,1.0,0.0,0.0,0.0,1.0,-27.2560977936,-5.18292713165,40.5487823486,1.0,0.0,0.0,0.0,1.0,0.0,0.0,0.0,1.0,2.98317526855,-1.15879360352,10.0748005859,1.0,0.0,0.0,0.0,1.0,0.0,0.0,0.0,1.0
1463923606312855666,493,1463923606289457217,,-17.2678833008,-10.4215898514,106.117576599,0.0204039998353,1.0,0.0,0.0,0.0,1.0,0.0,0.0,0.0,1.0,-23.2926845551,3.41463422775,31.0365867615,1.0,0.0,0.0,0.0,1.0,0.0,0.0,0.0,1.0,2.93529123535,-1.62326872559,10.4530844482,1.0,0.0,0.0,0.0,1.0,0.0,0.0,0.0,1.0
1463923606312974625,494,1463923606309990795,,-16.9526920319,-10.8491449356,106.41444397,0.0204109996557,1.0,0.0,0.0,0.0,1.0,0.0,0.0,0.0,1.0,-18.3536586761,9.93902492523,17.6829280853,1.0,0.0,0.0,0.0,1.0,0.0,0.0,0.0,1.0,3.22738383789,-1.58496149902,10.6829278076,1.0,0.0,0.0,0.0,1.0,0.0,0.0,0.0,1.0
1463923606333045074,495,1463923606330792449,,-16.5227966309,-11.1615114212,106.385307312,0.020469000563,1.0,0.0,0.0,0.0,1.0,0.0,0.0,0.0,1.0,-14.0243902206,19.5731716156,3.10975623131,1.0,0.0,0.0,0.0,1.0,0.0,0.0,0.0,1.0,3.62003291016,-2.48996972656,11.1857101562,1.0,0.0,0.0,0.0,1.0,0.0,0.0,0.0,1.0
1463923606352593018,496,1463923606350522999,,-15.8526887894,-11.1888332367,106.107208252,0.0203399993479,1.0,0.0,0.0,0.0,1.0,0.0,0.0,0.0,1.0,-4.2682929039,34.0243911743,-5.67073154449,1.0,0.0,0.0,0.0,1.0,0.0,0.0,0.0,1.0,3.62482131348,-2.37504819301,11.166556543,1.0,0.0,0.0,0.0,1.0,0.0,0.0,0.0,1.0
1463923606416632317,497,1463923606371096629,,-14.935842514,-11.0150375366,105.593605042,0.0204360000789,1.0,0.0,0.0,0.0,1.0,0.0,0.0,0.0,1.0,2.92682933807,47.8048782349,-14.3292694092,1.0,0.0,0.0,0.0,1.0,0.0,0.0,0.0,1.0,3.40934316406,-2.38462499965,10.9845972168,1.0,0.0,0.0,0.0,1.0,0.0,0.0,0.0,1.0
1463923606420832513,498,1463923606391557811,,-13.8345193863,-10.7147111893,104.94594574,0.0203930009156,1.0,0.0,0.0,0.0,1.0,0.0,0.0,0.0,1.0,13.4146347046,55.5487785339,-21.158536911,1.0,0.0,0.0,0.0,1.0,0.0,0.0,0.0,1.0,2.68150585937,-3.55778366699,10.9798088135,1.0,0.0,0.0,0.0,1.0,0.0,0.0,0.0,1.0
1463923606420981264,499,1463923606412058837,,-12.6903181076,-10.0816268921,104.20249176,0.0204440001398,1.0,0.0,0.0,0.0,1.0,0.0,0.0,0.0,1.0,25.9146347046,60.5487823486,-24.3902435303,1.0,0.0,0.0,0.0,1.0,0.0,0.0,0.0,1.0,3.04542451172,-2.82515795898,11.2479593994,1.0,0.0,0.0,0.0,1.0,0.0,0.0,0.0,1.0
1463923606436417347,500,1463923606432386059,,-11.4233427048,-9.2810754776,103.387969971,0.0203830003738,1.0,0.0,0.0,0.0,1.0,0.0,0.0,0.0,1.0,29.6951236725,66.2195129395,-26.7682933807,1.0,0.0,0.0,0.0,1.0,0.0,0.0,0.0,1.0,2.64319863281,-1.70945998535,11.3006318359,1.0,0.0,0.0,0.0,1.0,0.0,0.0,0.0,1.0
1463923606454897780,501,1463923606452847865,,-10.1213111877,-8.47615337372,102.486427307,0.0204160008579,1.0,0.0,0.0,0.0,1.0,0.0,0.0,0.0,1.0,27.8048782349,64.5121917725,-31.8902454376,1.0,0.0,0.0,0.0,1.0,0.0,0.0,0.0,1.0,1.52750065918,-1.04387185076,10.6350437744,1.0,0.0,0.0,0.0,1.0,0.0,0.0,0.0,1.0
1463923606476654755,502,1463923606473255609,,-9.09674167633,-7.77027225494,101.430130005,0.0203930009156,1.0,0.0,0.0,0.0,1.0,0.0,0.0,0.0,1.0,23.9024391174,47.4390258789,-43.2317085266,1.0,0.0,0.0,0.0,1.0,0.0,0.0,0.0,1.0,0.416591088867,-1.08696755371,10.0269165527,1.0,0.0,0.0,0.0,1.0,0.0,0.0,0.0,1.0
1463923606495711549,503,1463923606493627050,,-8.49570083618,-7.13841867447,100.279052734,0.0204300004989,1.0,0.0,0.0,0.0,1.0,0.0,0.0,0.0,1.0,22.0121955872,30.3048782349,-50.9146347046,1.0,0.0,0.0,0.0,1.0,0.0,0.0,0.0,1.0,0.871489404297,-1.30723410645,10.2136642822,1.0,0.0,0.0,0.0,1.0,0.0,0.0,0.0,1.0
1463923606521279862,504,1463923606514019273,,-8.10172462463,-6.58268547058,99.1651306152,0.020408000797,1.0,0.0,0.0,0.0,1.0,0.0,0.0,0.0,1.0,18.9024391174,21.4024391174,-50.5487785339,1.0,0.0,0.0,0.0,1.0,0.0,0.0,0.0,1.0,1.14921679688,-1.20667770978,10.5823713379,1.0,0.0,0.0,0.0,1.0,0.0,0.0,0.0,1.0
1463923606569634899,505,1463923606534418735,,-7.77416753769,-6.0938782692,98.1471176147,0.0203910004348,1.0,0.0,0.0,0.0,1.0,0.0,0.0,0.0,1.0,14.2682924271,20.1829280853,-45.9146347046,1.0,0.0,0.0,0.0,1.0,0.0,0.0,0.0,1.0,1.56580788574,-0.61770402832,10.0748005859,1.0,0.0,0.0,0.0,1.0,0.0,0.0,0.0,1.0
1463923606570241780,506,1463923606554889969,,-7.34254264832,-5.77457952499,97.2192230225,0.020447999239,1.0,0.0,0.0,0.0,1.0,0.0,0.0,0.0,1.0,8.5365858078,21.9512195587,-41.6463432312,1.0,0.0,0.0,0.0,1.0,0.0,0.0,0.0,1.0,1.06781401349,-0.852335791016,10.1753570557,1.0,0.0,0.0,0.0,1.0,0.0,0.0,0.0,1.0
1463923606646348328,507,1463923606575281515,,-6.82171440125,-5.54174661636,96.4805679321,0.0203569997102,1.0,0.0,0.0,0.0,1.0,0.0,0.0,0.0,1.0,3.04878044128,28.7804889679,-31.7073192596,1.0,0.0,0.0,0.0,1.0,0.0,0.0,0.0,1.0,1.57059628906,-0.268150604204,9.83538041992,1.0,0.0,0.0,0.0,1.0,0.0,0.0,0.0,1.0
1463923606646835155,508,1463923606595595403,,-6.25187015533,-5.40835952759,95.8926086426,0.0204189997166,1.0,0.0,0.0,0.0,1.0,0.0,0.0,0.0,1.0,-3.90243911743,32.0121955872,-23.7195129395,1.0,0.0,0.0,0.0,1.0,0.0,0.0,0.0,1.0,1.60890351563,0.316034619141,8.85375773926,1.0,0.0,0.0,0.0,1.0,0.0,0.0,0.0,1.0
1463923606647124585,509,1463923606616117888,,-5.61682128906,-5.47245979309,95.4219284058,0.0204130001366,1.0,0.0,0.0,0.0,1.0,0.0,0.0,0.0,1.0,-11.9512195587,35.7317085266,-17.8658542633,1.0,0.0,0.0,0.0,1.0,0.0,0.0,0.0,1.0,1.47003981934,0.191536132812,7.6853873291,1.0,0.0,0.0,0.0,1.0,0.0,0.0,0.0,1.0
1463923606647475578,510,1463923606636437349,,-4.91035842896,-5.6346244812,94.9793243408,0.0203939992934,1.0,0.0,0.0,0.0,1.0,0.0,0.0,0.0,1.0,-16.6463413239,37.5609779358,-16.341463089,1.0,0.0,0.0,0.0,1.0,0.0,0.0,0.0,1.0,1.06781401349,0.196324536133,7.0964137207,1.0,0.0,0.0,0.0,1.0,0.0,0.0,0.0,1.0
1463923606704320538,511,1463923606656887489,,-4.34467029572,-5.8976764679,94.5484390259,0.0204199999571,1.0,0.0,0.0,0.0,1.0,0.0,0.0,0.0,1.0,-18.9634151459,32.7439041138,-16.4024391174,1.0,0.0,0.0,0.0,1.0,0.0,0.0,0.0,1.0,1.24498486328,-0.119710083008,7.08683691406,1.0,0.0,0.0,0.0,1.0,0.0,0.0,0.0,1.0
1463923606704385174,512,1463923606677374869,,-3.8019080162,-6.2467007637,94.188621521,0.020408000797,1.0,0.0,0.0,0.0,1.0,0.0,0.0,0.0,1.0,-22.0121955872,32.865852356,-12.8658542633,1.0,0.0,0.0,0.0,1.0,0.0,0.0,0.0,1.0,1.36948334961,-0.244208569336,7.0964137207,1.0,0.0,0.0,0.0,1.0,0.0,0.0,0.0,1.0
1463923606704435227,513,1463923606697715893,,-3.24779748917,-6.63057136536,93.8846511841,0.0204179994762,1.0,0.0,0.0,0.0,1.0,0.0,0.0,0.0,1.0,-21.4024391174,33.6585388184,-10.0,1.0,0.0,0.0,0.0,1.0,0.0,0.0,0.0,1.0,1.4604630127,-0.579396801758,7.59919606934,1.0,0.0,0.0,0.0,1.0,0.0,0.0,0.0,1.0
1463923606752340208,514,1463923606718179627,,-2.60250067711,-6.97792005539,93.572845459,0.0204269997776,1.0,0.0,0.0,0.0,1.0,0.0,0.0,0.0,1.0,-18.841463089,34.3902435303,-10.1219511032,1.0,0.0,0.0,0.0,1.0,0.0,0.0,0.0,1.0,0.905008227539,-0.76135612793,8.0397291748,1.0,0.0,0.0,0.0,1.0,0.0,0.0,0.0,1.0
1463923606752909797,515,1463923606738455026,,-2.05662298203,-7.2553653717,93.259727478,0.0203660000116,1.0,0.0,0.0,0.0,1.0,0.0,0.0,0.0,1.0,-16.4634151459,30.0609760284,-10.548781395,1.0,0.0,0.0,0.0,1.0,0.0,0.0,0.0,1.0,0.928950244141,-0.694318481445,8.66222219097,1.0,0.0,0.0,0.0,1.0,0.0,0.0,0.0,1.0
1463923606803446417,516,1463923606758875321,,-1.53375172615,-7.52618932724,93.0337219238,0.0204160008579,1.0,0.0,0.0,0.0,1.0,0.0,0.0,0.0,1.0,-13.9634151459,30.1829280853,-6.15853643417,1.0,0.0,0.0,0.0,1.0,0.0,0.0,0.0,1.0,1.23061965332,-1.11569797363,9.41878874653,1.0,0.0,0.0,0.0,1.0,0.0,0.0,0.0,1.0
1463923606803487667,517,1463923606779287961,,-0.989083766937,-7.73353099823,92.8924636841,0.0204009991139,1.0,0.0,0.0,0.0,1.0,0.0,0.0,0.0,1.0,-9.81707286835,32.4390220642,-1.58536589146,1.0,0.0,0.0,0.0,1.0,0.0,0.0,0.0,1.0,1.51313544922,-1.37427175293,9.91199487305,1.0,0.0,0.0,0.0,1.0,0.0,0.0,0.0,1.0
1463923606803559543,518,1463923606799655548,,-0.378489136696,-7.83979558945,92.7964630127,0.0204130001366,1.0,0.0,0.0,0.0,1.0,0.0,0.0,0.0,1.0,-7.37804937363,35.0609741211,1.15853655338,1.0,0.0,0.0,0.0,1.0,0.0,0.0,0.0,1.0,1.43652099609,-0.995987890625,10.4722380615,1.0,0.0,0.0,0.0,1.0,0.0,0.0,0.0,1.0
1463923606869026355,519,1463923606820112927,,0.270989179611,-7.93086481094,92.7294769287,0.020408000797,1.0,0.0,0.0,0.0,1.0,0.0,0.0,0.0,1.0,-7.50000047684,34.5121955872,2.56097555161,1.0,0.0,0.0,0.0,1.0,0.0,0.0,0.0,1.0,0.92416184082,-0.876277807617,10.8409451172,1.0,0.0,0.0,0.0,1.0,0.0,0.0,0.0,1.0
1463923606869271566,520,1463923606840531921,,0.845863878727,-8.05801105499,92.717048645,0.0204050000757,1.0,0.0,0.0,0.0,1.0,0.0,0.0,0.0,1.0,-8.71951198578,30.3048782349,4.69512224197,1.0,0.0,0.0,0.0,1.0,0.0,0.0,0.0,1.0,0.799663354492,-1.0534486574,11.4347071289,1.0,0.0,0.0,0.0,1.0,0.0,0.0,0.0,1.0
1463923606869443807,521,1463923606861044041,,1.30030071735,-8.22615814209,92.7580490112,0.0204240009189,1.0,0.0,0.0,0.0,1.0,0.0,0.0,0.0,1.0,-7.50000047684,24.817073822,6.64634132385,1.0,0.0,0.0,0.0,1.0,0.0,0.0,0.0,1.0,0.876277807617,-1.81001645508,11.8273562012,1.0,0.0,0.0,0.0,1.0,0.0,0.0,0.0,1.0
1463923606934711451,522,1463923606881396576,,1.67460298538,-8.36307621002,92.8795013428,0.0204169992357,1.0,0.0,0.0,0.0,1.0,0.0,0.0,0.0,1.0,-3.90243911743,23.475610733,10.548781395,1.0,0.0,0.0,0.0,1.0,0.0,0.0,0.0,1.0,1.54665427246,-2.44208569336,12.4450602295,1.0,0.0,0.0,0.0,1.0,0.0,0.0,0.0,1.0
1463923606936915222,523,1463923606901739423,,2.15206360817,-8.49764823914,93.0852813721,0.0203889999539,1.0,0.0,0.0,0.0,1.0,0.0,0.0,0.0,1.0,-1.52439022064,25.9146347046,15.2439022064,1.0,0.0,0.0,0.0,1.0,0.0,0.0,0.0,1.0,1.06781401349,-3.16992299805,12.9813614014,1.0,0.0,0.0,0.0,1.0,0.0,0.0,0.0,1.0
1463923606936968608,524,1463923606922229667,,2.5147049427,-8.41314792633,93.3572616577,0.0203959997743,1.0,0.0,0.0,0.0,1.0,0.0,0.0,0.0,1.0,10.9756097794,19.0243911743,17.6219520569,1.0,0.0,0.0,0.0,1.0,0.0,0.0,0.0,1.0,0.814028564453,-3.89297189941,13.7187755127,1.0,0.0,0.0,0.0,1.0,0.0,0.0,0.0,1.0
1463923606951438275,525,1463923606942632307,,2.78093481064,-8.0434513092,93.701751709,0.0204419996589,1.0,0.0,0.0,0.0,1.0,0.0,0.0,0.0,1.0,16.7682933807,16.5853652954,20.4268302917,1.0,0.0,0.0,0.0,1.0,0.0,0.0,0.0,1.0,1.34554133301,-1.83395847168,13.5416045898,1.0,0.0,0.0,0.0,1.0,0.0,0.0,0.0,1.0
1463923606970170690,526,1463923606963046405,,3.0321559906,-7.69636201859,94.0737075806,0.020380999893,1.0,0.0,0.0,0.0,1.0,0.0,0.0,0.0,1.0,8.29268264771,17.5000019073,21.4634151459,1.0,0.0,0.0,0.0,1.0,0.0,0.0,0.0,1.0,1.56580788574,0.0239420166016,12.6222311523,1.0,0.0,0.0,0.0,1.0,0.0,0.0,0.0,1.0
1463923607010910344,527,1463923606983373679,,3.23151755333,-7.61178445816,94.3474807739,0.0204169992357,1.0,0.0,0.0,0.0,1.0,0.0,0.0,0.0,1.0,-4.45121955872,13.5365858078,15.9146347046,1.0,0.0,0.0,0.0,1.0,0.0,0.0,0.0,1.0,0.952892260742,0.0957680664062,11.8512982178,1.0,0.0,0.0,0.0,1.0,0.0,0.0,0.0,1.0
1463923607012690308,528,1463923607003806475,,3.27989602089,-7.80687379837,94.4356002808,0.0204050000757,1.0,0.0,0.0,0.0,1.0,0.0,0.0,0.0,1.0,-11.0975618362,4.14634132385,5.85365867615,1.0,0.0,0.0,0.0,1.0,0.0,0.0,0.0,1.0,0.196324536133,-1.13963999023,10.5488525146,1.0,0.0,0.0,0.0,1.0,0.0,0.0,0.0,1.0
1463923607032954821,529,1463923607024174218,,3.05849480629,-8.08014774323,94.3481674194,0.0204089991748,1.0,0.0,0.0,0.0,1.0,0.0,0.0,0.0,1.0,-10.548781395,-6.40243911743,-4.02439022064,1.0,0.0,0.0,0.0,1.0,0.0,0.0,0.0,1.0,0.445321508789,-1.85311208496,10.1897222656,1.0,0.0,0.0,0.0,1.0,0.0,0.0,0.0,1.0
1463923607179733751,530,1463923607044559982,,2.69762301445,-8.33595561981,94.1993942261,0.0204000007361,1.0,0.0,0.0,0.0,1.0,0.0,0.0,0.0,1.0,-7.50000047684,-10.0,-7.50000047684,1.0,0.0,0.0,0.0,1.0,0.0,0.0,0.0,1.0,1.04866025408,-2.38941340297,10.6063133545,1.0,0.0,0.0,0.0,1.0,0.0,0.0,0.0,1.0
1463923607180043494,531,1463923607065169967,,2.43348026276,-8.51017284393,94.0749130249,0.0204150006175,1.0,0.0,0.0,0.0,1.0,0.0,0.0,0.0,1.0,-2.01219511032,-5.48780488968,-5.60975599289,1.0,0.0,0.0,0.0,1.0,0.0,0.0,0.0,1.0,1.19710090314,-2.94007963867,11.3149970459,1.0,0.0,0.0,0.0,1.0,0.0,0.0,0.0,1.0
1463923607181657051,532,1463923607085546773,,2.2933344841,-8.53271198273,93.996711731,0.0204099994153,1.0,0.0,0.0,0.0,1.0,0.0,0.0,0.0,1.0,4.81707286835,-0.487804889679,-2.62195134163,1.0,0.0,0.0,0.0,1.0,0.0,0.0,0.0,1.0,1.08696755371,-2.8299463623,11.1569797363,1.0,0.0,0.0,0.0,1.0,0.0,0.0,0.0,1.0
1463923607181713249,533,1463923607105864516,,2.27024626732,-8.38715934753,93.9426956177,0.0204380005598,1.0,0.0,0.0,0.0,1.0,0.0,0.0,0.0,1.0,9.63414573669,5.48780488968,-0.670731723309,1.0,0.0,0.0,0.0,1.0,0.0,0.0,0.0,1.0,1.07739082014,-1.92972653809,10.0843773926,1.0,0.0,0.0,0.0,1.0,0.0,0.0,0.0,1.0
1463923607181886167,534,1463923607126328198,,2.31527209282,-8.17889022827,93.8134078979,0.0203789994121,1.0,0.0,0.0,0.0,1.0,0.0,0.0,0.0,1.0,11.5243911743,8.96341514587,-3.96341490746,1.0,0.0,0.0,0.0,1.0,0.0,0.0,0.0,1.0,0.876277807617,-1.43652099609,8.76756647949,1.0,0.0,0.0,0.0,1.0,0.0,0.0,0.0,1.0
1463923607189622438,535,1463923607146705264,,2.41188645363,-7.94734621048,93.5648040771,0.020408000797,1.0,0.0,0.0,0.0,1.0,0.0,0.0,0.0,1.0,5.60975599289,8.96341514587,-10.1829271317,1.0,0.0,0.0,0.0,1.0,0.0,0.0,0.0,1.0,0.301669427446,-0.234631762695,7.92480749512,1.0,0.0,0.0,0.0,1.0,0.0,0.0,0.0,1.0
1463923607238391281,536,1463923607167087435,,2.39143514633,-7.94781780243,93.1831512451,0.0204009991139,1.0,0.0,0.0,0.0,1.0,0.0,0.0,0.0,1.0,-3.65853667259,5.48780488968,-17.1951217651,1.0,0.0,0.0,0.0,1.0,0.0,0.0,0.0,1.0,0.488417138672,-0.469263525391,8.09719001465,1.0,0.0,0.0,0.0,1.0,0.0,0.0,0.0,1.0
1463923607238427583,537,1463923607187601794,,2.33881998062,-8.15272903442,92.6935272217,0.0204429998994,1.0,0.0,0.0,0.0,1.0,0.0,0.0,0.0,1.0,-10.0609760284,11.6463422775,-21.4634151459,1.0,0.0,0.0,0.0,1.0,0.0,0.0,0.0,1.0,1.43652099609,-0.895431420898,7.56567724609,1.0,0.0,0.0,0.0,1.0,0.0,0.0,0.0,1.0
1463923607238479511,538,1463923607207992246,,2.5149974823,-8.48276519775,92.1480865479,0.0203939992934,1.0,0.0,0.0,0.0,1.0,0.0,0.0,0.0,1.0,-16.5853652954,23.658536911,-22.5,1.0,0.0,0.0,0.0,1.0,0.0,0.0,0.0,1.0,1.37906015625,-0.785298144531,6.96233842773,1.0,0.0,0.0,0.0,1.0,0.0,0.0,0.0,1.0
1463923607238775712,539,1463923607228376656,,2.98285698891,-8.97755336761,91.5286865234,0.0203949995339,1.0,0.0,0.0,0.0,1.0,0.0,0.0,0.0,1.0,-24.817073822,28.1097564697,-25.3048782349,1.0,0.0,0.0,0.0,1.0,0.0,0.0,0.0,1.0,0.0239420166016,-0.775721337891,7.0006456543,1.0,0.0,0.0,0.0,1.0,0.0,0.0,0.0,1.0
1463923607296130104,540,1463923607249012995,,3.32317352295,-9.68189239502,90.843536377,0.0205099992454,1.0,0.0,0.0,0.0,1.0,0.0,0.0,0.0,1.0,-30.0609760284,18.7804889679,-29.3902435303,1.0,0.0,0.0,0.0,1.0,0.0,0.0,0.0,1.0,-0.588973571866,-1.59453830566,7.94874951172,1.0,0.0,0.0,0.0,1.0,0.0,0.0,0.0,1.0
1463923607296173386,541,1463923607269096100,,3.50055480003,-10.5285015106,90.1256790161,0.0203089993447,1.0,0.0,0.0,0.0,1.0,0.0,0.0,0.0,1.0,-36.0975646973,20.975610733,-30.7317066193,1.0,0.0,0.0,0.0,1.0,0.0,0.0,0.0,1.0,0.708683691406,-1.84832368164,7.92959589844,1.0,0.0,0.0,0.0,1.0,0.0,0.0,0.0,1.0
1463923607373311245,542,1463923607289465094,,3.65490365028,-11.4552211761,89.3269958496,0.0204109996557,1.0,0.0,0.0,0.0,1.0,0.0,0.0,0.0,1.0,-34.3292694092,15.4878053665,-35.0000038147,1.0,0.0,0.0,0.0,1.0,0.0,0.0,0.0,1.0,-0.124498486328,-2.79163913574,8.0157871582,1.0,0.0,0.0,0.0,1.0,0.0,0.0,0.0,1.0
1463923607373738385,543,1463923607309914557,,3.69082736969,-12.3019790649,88.5411071777,0.0203939992934,1.0,0.0,0.0,0.0,1.0,0.0,0.0,0.0,1.0,-31.7073192596,13.4146347046,-34.7560997009,1.0,0.0,0.0,0.0,1.0,0.0,0.0,0.0,1.0,0.339976635742,-2.77248552246,8.13549724121,1.0,0.0,0.0,0.0,1.0,0.0,0.0,0.0,1.0
1463923607373812240,544,1463923607330260737,,3.70517492294,-13.1362895966,87.7089157104,0.0204060003161,1.0,0.0,0.0,0.0,1.0,0.0,0.0,0.0,1.0,-26.5853652954,10.9146347046,-37.1951255798,1.0,0.0,0.0,0.0,1.0,0.0,0.0,0.0,1.0,-0.0383072265625,-3.87381828613,8.65264538433,1.0,0.0,0.0,0.0,1.0,0.0,0.0,0.0,1.0
1463923607374152399,545,1463923607350716867,,3.63949513435,-13.7119369507,86.8114395142,0.0204150006175,1.0,0.0,0.0,0.0,1.0,0.0,0.0,0.0,1.0,-17.134147644,7.13414621353,-41.5243911743,1.0,0.0,0.0,0.0,1.0,0.0,0.0,0.0,1.0,-0.272938989258,-3.67270534668,9.36132790669,1.0,0.0,0.0,0.0,1.0,0.0,0.0,0.0,1.0
1463923607402125162,546,1463923607371148152,,3.56667494774,-14.1141624451,85.8078994751,0.0204060003161,1.0,0.0,0.0,0.0,1.0,0.0,0.0,0.0,1.0,-7.80487823486,10.9756097794,-45.9146347046,1.0,0.0,0.0,0.0,1.0,0.0,0.0,0.0,1.0,0.229843359375,-4.22337143625,10.1609918457,1.0,0.0,0.0,0.0,1.0,0.0,0.0,0.0,1.0
1463923607402490894,547,1463923607391512093,,3.42811655998,-14.3012294769,84.7381896973,0.0204150006175,1.0,0.0,0.0,0.0,1.0,0.0,0.0,0.0,1.0,1.95121955872,8.17073154449,-50.0,1.0,0.0,0.0,0.0,1.0,0.0,0.0,0.0,1.0,0.105344873047,-4.50109912109,11.1090957031,1.0,0.0,0.0,0.0,1.0,0.0,0.0,0.0,1.0
1463923607440893390,548,1463923607411888222,,3.20886731148,-14.2419033051,83.6315689087,0.0204070005566,1.0,0.0,0.0,0.0,1.0,0.0,0.0,0.0,1.0,13.2926826477,5.06097555161,-52.7439041138,1.0,0.0,0.0,0.0,1.0,0.0,0.0,0.0,1.0,0.181959326172,-4.50109912109,11.3963999023,1.0,0.0,0.0,0.0,1.0,0.0,0.0,0.0,1.0
1463923607441175737,549,1463923607432420186,,2.95656752586,-14.0088014603,82.4825744629,0.0204119998962,1.0,0.0,0.0,0.0,1.0,0.0,0.0,0.0,1.0,23.5365848541,2.74390244484,-55.365852356,1.0,0.0,0.0,0.0,1.0,0.0,0.0,0.0,1.0,-0.0143652099609,-5.14753356934,11.9135474609,1.0,0.0,0.0,0.0,1.0,0.0,0.0,0.0,1.0
1463923607483301809,550,1463923607452829127,,2.60758543015,-13.4963989258,81.2853393555,0.020422000438,1.0,0.0,0.0,0.0,1.0,0.0,0.0,0.0,1.0,42.0121955872,-1.76829278469,-58.5975608826,1.0,0.0,0.0,0.0,1.0,0.0,0.0,0.0,1.0,0.0478840332031,-7.03895288086,13.0867062744,1.0,0.0,0.0,0.0,1.0,0.0,0.0,0.0,1.0
1463923607483602020,551,1463923607473324841,,2.23588609695,-12.4349956512,80.0794067383,0.0203859992325,1.0,0.0,0.0,0.0,1.0,0.0,0.0,0.0,1.0,62.7439041138,-2.13414645195,-59.390247345,1.0,0.0,0.0,0.0,1.0,0.0,0.0,0.0,1.0,0.483628735352,-5.39174213867,13.5799118164,1.0,0.0,0.0,0.0,1.0,0.0,0.0,0.0,1.0
1463923607524267402,552,1463923607493635344,,1.99040877819,-11.1387443542,78.882774353,0.0204060003161,1.0,0.0,0.0,0.0,1.0,0.0,0.0,0.0,1.0,64.5731735229,6.09756088257,-57.2560997009,1.0,0.0,0.0,0.0,1.0,0.0,0.0,0.0,1.0,1.33117612305,-2.53306535645,12.8616513184,1.0,0.0,0.0,0.0,1.0,0.0,0.0,0.0,1.0
1463923607524309538,553,1463923607513972826,,1.98148572445,-9.98020648956,77.5902862549,0.020422000438,1.0,0.0,0.0,0.0,1.0,0.0,0.0,0.0,1.0,53.8414649963,18.2926826477,-59.7560997009,1.0,0.0,0.0,0.0,1.0,0.0,0.0,0.0,1.0,1.5083470459,-1.19231249982,11.7746837646,1.0,0.0,0.0,0.0,1.0,0.0,0.0,0.0,1.0
1463923607614453092,554,1463923607534451404,,2.17587280273,-9.13401126862,76.1203842163,0.0204199999571,1.0,0.0,0.0,0.0,1.0,0.0,0.0,0.0,1.0,41.2804908752,25.3048782349,-67.5,1.0,0.0,0.0,0.0,1.0,0.0,0.0,0.0,1.0,0.76135612793,-1.34075292969,10.9031943604,1.0,0.0,0.0,0.0,1.0,0.0,0.0,0.0,1.0
1463923607614507780,555,1463923607554716594,,2.38668823242,-8.55510807037,74.42918396,0.0203980002552,1.0,0.0,0.0,0.0,1.0,0.0,0.0,0.0,1.0,33.5365867615,24.0853652954,-78.7804946899,1.0,0.0,0.0,0.0,1.0,0.0,0.0,0.0,1.0,0.167594116211,-2.08774370153,10.8936175537,1.0,0.0,0.0,0.0,1.0,0.0,0.0,0.0,1.0
1463923607614884711,556,1463923607575181057,,2.47811770439,-8.08857631683,72.5625686646,0.0204039998353,1.0,0.0,0.0,0.0,1.0,0.0,0.0,0.0,1.0,31.4024391174,19.0243911743,-88.1707305908,1.0,0.0,0.0,0.0,1.0,0.0,0.0,0.0,1.0,0.177170922852,-2.53785375977,10.9031943604,1.0,0.0,0.0,0.0,1.0,0.0,0.0,0.0,1.0
1463923607615199089,557,1463923607595679114,,2.51101875305,-7.65367555618,70.5735015869,0.0204199999571,1.0,0.0,0.0,0.0,1.0,0.0,0.0,0.0,1.0,29.4512195587,17.0121955872,-94.5121917725,1.0,0.0,0.0,0.0,1.0,0.0,0.0,0.0,1.0,0.296881024126,-2.26491477051,10.7643306641,1.0,0.0,0.0,0.0,1.0,0.0,0.0,0.0,1.0
1463923607672063633,558,1463923607616037066,,2.50809335709,-7.27409410477,68.5191955566,0.0204009991139,1.0,0.0,0.0,0.0,1.0,0.0,0.0,0.0,1.0,26.3414649963,18.1097564697,-97.7439041138,1.0,0.0,0.0,0.0,1.0,0.0,0.0,0.0,1.0,0.909796630859,-2.09732050817,10.9319247803,1.0,0.0,0.0,0.0,1.0,0.0,0.0,0.0,1.0
1463923607672357282,559,1463923607636811427,,2.70411014557,-6.92953157425,66.5349578857,0.0203910004348,1.0,0.0,0.0,0.0,1.0,0.0,0.0,0.0,1.0,22.5609760284,31.4024391174,-92.8048782349,1.0,0.0,0.0,0.0,1.0,0.0,0.0,0.0,1.0,1.74776721191,-1.52750065918,10.3812583984,1.0,0.0,0.0,0.0,1.0,0.0,0.0,0.0,1.0
1463923607672706816,560,1463923607656820001,,3.21043300629,-6.61635398865,64.5602874756,0.0204199999571,1.0,0.0,0.0,0.0,1.0,0.0,0.0,0.0,1.0,18.1707305908,45.4268302917,-90.792678833,1.0,0.0,0.0,0.0,1.0,0.0,0.0,0.0,1.0,1.36948334961,-0.703895288086,8.84418093262,1.0,0.0,0.0,0.0,1.0,0.0,0.0,0.0,1.0
1463923607713136571,561,1463923607677361704,,3.91423654556,-6.44354820251,62.552154541,0.0204070005566,1.0,0.0,0.0,0.0,1.0,0.0,0.0,0.0,1.0,9.20731735229,52.0121955872,-92.0731735229,1.0,0.0,0.0,0.0,1.0,0.0,0.0,0.0,1.0,0.656011254883,-0.119710083008,7.0485296875,1.0,0.0,0.0,0.0,1.0,0.0,0.0,0.0,1.0
1463923607713422667,562,1463923607697748197,,4.73285341263,-6.47811126709,60.4921913147,0.0204150006175,1.0,0.0,0.0,0.0,1.0,0.0,0.0,0.0,1.0,-0.853658556938,48.0487823486,-95.1829223633,1.0,0.0,0.0,0.0,1.0,0.0,0.0,0.0,1.0,-0.603338854892,0.0718260498047,6.51222851562,1.0,0.0,0.0,0.0,1.0,0.0,0.0,0.0,1.0
1463923607762461930,563,1463923607718216514,,5.18288469315,-6.71468019485,58.3418388367,0.0204000007361,1.0,0.0,0.0,0.0,1.0,0.0,0.0,0.0,1.0,-9.08536529541,35.8536605835,-101.036590576,1.0,0.0,0.0,0.0,1.0,0.0,0.0,0.0,1.0,-0.110133276367,0.0430956298828,6.12436784668,1.0,0.0,0.0,0.0,1.0,0.0,0.0,0.0,1.0
1463923607762731984,564,1463923607738700613,,5.48182487488,-7.16878175735,56.1606750488,0.0204700008035,1.0,0.0,0.0,0.0,1.0,0.0,0.0,0.0,1.0,-15.0000009537,28.6585388184,-102.560974121,1.0,0.0,0.0,0.0,1.0,0.0,0.0,0.0,1.0,-0.225054956055,-0.421379492187,6.3637880127,1.0,0.0,0.0,0.0,1.0,0.0,0.0,0.0,1.0
1463923607803340699,565,1463923607758853927,,5.61314296722,-7.75896549225,54.0322303772,0.0203430000693,1.0,0.0,0.0,0.0,1.0,0.0,0.0,0.0,1.0,-17.5000019073,23.1707324982,-100.792686462,1.0,0.0,0.0,0.0,1.0,0.0,0.0,0.0,1.0,-0.0383072265625,-0.967257470703,6.52659372559,1.0,0.0,0.0,0.0,1.0,0.0,0.0,0.0,1.0
1463923607803682056,566,1463923607779272140,,5.69151592255,-8.38452625275,52.0048332214,0.0204009991139,1.0,0.0,0.0,0.0,1.0,0.0,0.0,0.0,1.0,-17.1951217651,20.4268302917,-95.5487823486,1.0,0.0,0.0,0.0,1.0,0.0,0.0,0.0,1.0,-0.119710083008,-1.44609780273,7.20654699707,1.0,0.0,0.0,0.0,1.0,0.0,0.0,0.0,1.0
1463923607832798215,567,1463923607799735248,,5.73553657532,-8.98598194122,50.1234436035,0.0204610005021,1.0,0.0,0.0,0.0,1.0,0.0,0.0,0.0,1.0,-16.341463089,19.8780498505,-88.0487823486,1.0,0.0,0.0,0.0,1.0,0.0,0.0,0.0,1.0,0.0335188255255,-1.70945998535,7.90565388184,1.0,0.0,0.0,0.0,1.0,0.0,0.0,0.0,1.0
1463923607833123426,568,1463923607820105960,,5.74586057663,-9.53154659271,48.3756904602,0.0203740000725,1.0,0.0,0.0,0.0,1.0,0.0,0.0,0.0,1.0,-13.5975618362,18.2317085266,-81.9512176514,1.0,0.0,0.0,0.0,1.0,0.0,0.0,0.0,1.0,0.0430956298828,-2.04943662109,8.528146898,1.0,0.0,0.0,0.0,1.0,0.0,0.0,0.0,1.0
1463923607870506329,569,1463923607840520215,,5.75991010666,-9.97459888458,46.7452926636,0.0203949995339,1.0,0.0,0.0,0.0,1.0,0.0,0.0,0.0,1.0,-10.9146347046,20.1829280853,-75.8536605835,1.0,0.0,0.0,0.0,1.0,0.0,0.0,0.0,1.0,0.383072265625,-1.98239897461,9.1458503418,1.0,0.0,0.0,0.0,1.0,0.0,0.0,0.0,1.0
1463923607870775342,570,1463923607860883635,,5.82633829117,-10.3630962372,45.1710929871,0.020408000797,1.0,0.0,0.0,0.0,1.0,0.0,0.0,0.0,1.0,-8.47560977936,20.975610733,-72.8048782349,1.0,0.0,0.0,0.0,1.0,0.0,0.0,0.0,1.0,0.0814028564453,-2.14999323695,9.57680722515,1.0,0.0,0.0,0.0,1.0,0.0,0.0,0.0,1.0
1463923607926684878,571,1463923607881280233,,5.87666606903,-10.7000646591,43.6371536255,0.0204060003161,1.0,0.0,0.0,0.0,1.0,0.0,0.0,0.0,1.0,-7.31707334518,20.1219520569,-71.0365905762,1.0,0.0,0.0,0.0,1.0,0.0,0.0,0.0,1.0,0.0335188255255,-2.18830031738,10.4961800781,1.0,0.0,0.0,0.0,1.0,0.0,0.0,0.0,1.0
1463923607926973109,572,1463923607901655163,,5.893450737,-10.9966821671,42.1465682983,0.0204199999571,1.0,0.0,0.0,0.0,1.0,0.0,0.0,0.0,1.0,-4.14634132385,16.5243911743,-69.3292694092,1.0,0.0,0.0,0.0,1.0,0.0,0.0,0.0,1.0,-0.373495458984,-2.67192905273,11.1282493164,1.0,0.0,0.0,0.0,1.0,0.0,0.0,0.0,1.0
1463923607952091210,573,1463923607922111397,,5.82975387573,-11.2066411972,40.7139968872,0.0204109996557,1.0,0.0,0.0,0.0,1.0,0.0,0.0,0.0,1.0,-0.426829278469,10.4268293381,-67.6829299927,1.0,0.0,0.0,0.0,1.0,0.0,0.0,0.0,1.0,-0.837970581055,-2.85388837891,11.7986257812,1.0,0.0,0.0,0.0,1.0,0.0,0.0,0.0,1.0
1463923607952341577,574,1463923607942575495,,5.61707830429,-11.3380937576,39.3747062683,0.0203949995339,1.0,0.0,0.0,0.0,1.0,0.0,0.0,0.0,1.0,2.13414645195,1.40243899822,-65.0,1.0,0.0,0.0,0.0,1.0,0.0,0.0,0.0,1.0,-1.17794714373,-2.98796367187,12.8041904785,1.0,0.0,0.0,0.0,1.0,0.0,0.0,0.0,1.0
1463923607987782066,575,1463923607962867457,,5.22473573685,-11.3842287064,38.1875648499,0.0204060003161,1.0,0.0,0.0,0.0,1.0,0.0,0.0,0.0,1.0,3.47560977936,-6.70731735229,-59.2682914734,1.0,0.0,0.0,0.0,1.0,0.0,0.0,0.0,1.0,-0.751779321289,-2.84431157227,14.0539637451,1.0,0.0,0.0,0.0,1.0,0.0,0.0,0.0,1.0
1463923607988040245,576,1463923607983379889,,4.78703355789,-11.4022874832,37.1486282349,0.0204450003803,1.0,0.0,0.0,0.0,1.0,0.0,0.0,0.0,1.0,1.76829278469,-10.548781395,-52.8048782349,1.0,0.0,0.0,0.0,1.0,0.0,0.0,0.0,1.0,-0.746990917969,-2.38462499965,14.350844751,1.0,0.0,0.0,0.0,1.0,0.0,0.0,0.0,1.0
1463923608028962244,577,1463923608003815810,,4.30064821243,-11.4459705353,36.2179946899,0.0203779991716,1.0,0.0,0.0,0.0,1.0,0.0,0.0,0.0,1.0,-4.14634132385,-13.841463089,-48.5975608826,1.0,0.0,0.0,0.0,1.0,0.0,0.0,0.0,1.0,-0.569819995117,-1.2976572998,13.3452800537,1.0,0.0,0.0,0.0,1.0,0.0,0.0,0.0,1.0
1463923608029163964,578,1463923608024318086,,3.76056456566,-11.6531200409,35.3144874573,0.0204140003771,1.0,0.0,0.0,0.0,1.0,0.0,0.0,0.0,1.0,-17.8048782349,-17.2560977936,-48.2926864624,1.0,0.0,0.0,0.0,1.0,0.0,0.0,0.0,1.0,-0.565031591797,-0.067037651051,12.0332575439,1.0,0.0,0.0,0.0,1.0,0.0,0.0,0.0,1.0
1463923608068562772,579,1463923608044637026,,3.16328763962,-12.1523151398,34.3405418396,0.0204009991139,1.0,0.0,0.0,0.0,1.0,0.0,0.0,0.0,1.0,-30.975610733,-20.1219520569,-52.4390258789,1.0,0.0,0.0,0.0,1.0,0.0,0.0,0.0,1.0,-0.641646044922,-0.383072265625,11.1186725098,1.0,0.0,0.0,0.0,1.0,0.0,0.0,0.0,1.0
1463923608068761055,580,1463923608065942383,,2.44142794609,-12.8998727798,33.2720069885,0.0204029995948,1.0,0.0,0.0,0.0,1.0,0.0,0.0,0.0,1.0,-34.8780479431,-21.7073173523,-57.3170776367,1.0,0.0,0.0,0.0,1.0,0.0,0.0,0.0,1.0,0.0478840332031,-2.14999323695,10.8170031006,1.0,0.0,0.0,0.0,1.0,0.0,0.0,0.0,1.0
1463923608089351769,581,1463923608085317408,,1.77467429638,-13.6007003784,32.1148796082,0.0204119998962,1.0,0.0,0.0,0.0,1.0,0.0,0.0,0.0,1.0,-29.0853672028,-15.7317075729,-60.6097564697,1.0,0.0,0.0,0.0,1.0,0.0,0.0,0.0,1.0,0.531512805087,-3.13161577148,10.9175595703,1.0,0.0,0.0,0.0,1.0,0.0,0.0,0.0,1.0
1463923608109349092,582,1463923608106436409,,1.26020622253,-14.0972757339,30.8983974457,0.0207390002906,1.0,0.0,0.0,0.0,1.0,0.0,0.0,0.0,1.0,-16.8902435303,-7.92682981491,-60.9756088257,1.0,0.0,0.0,0.0,1.0,0.0,0.0,0.0,1.0,0.488417138672,-3.84508786621,11.1186725098,1.0,0.0,0.0,0.0,1.0,0.0,0.0,0.0,1.0
1463923608128701982,583,1463923608126190136,,0.871859908104,-14.3083095551,29.6702785492,0.0200709998608,1.0,0.0,0.0,0.0,1.0,0.0,0.0,0.0,1.0,-3.47560977936,-5.60975599289,-63.1707305908,1.0,0.0,0.0,0.0,1.0,0.0,0.0,0.0,1.0,-0.272938989258,-4.19942941965,11.5544172119,1.0,0.0,0.0,0.0,1.0,0.0,0.0,0.0,1.0
1463923608148314875,584,1463923608146509389,,0.426018834114,-14.1721553802,28.3691520691,0.0204119998962,1.0,0.0,0.0,0.0,1.0,0.0,0.0,0.0,1.0,10.3048782349,-7.98780536652,-66.5243911743,1.0,0.0,0.0,0.0,1.0,0.0,0.0,0.0,1.0,-0.330399829102,-3.55299526367,11.5161099854,1.0,0.0,0.0,0.0,1.0,0.0,0.0,0.0,1.0
1463923608169862994,585,1463923608166901976,,-0.0569883324206,-13.8032569885,27.0042419434,0.0204029995948,1.0,0.0,0.0,0.0,1.0,0.0,0.0,0.0,1.0,18.5365848541,-9.32926845551,-70.0609741211,1.0,0.0,0.0,0.0,1.0,0.0,0.0,0.0,1.0,-0.220266552734,-2.67192905273,10.4818148682,1.0,0.0,0.0,0.0,1.0,0.0,0.0,0.0,1.0
1463923608193857021,586,1463923608187590816,,-0.543772518635,-13.3345565796,25.5479106903,0.0204290002584,1.0,0.0,0.0,0.0,1.0,0.0,0.0,0.0,1.0,21.5853652954,-7.56097555161,-73.9634170532,1.0,0.0,0.0,0.0,1.0,0.0,0.0,0.0,1.0,0.138863696289,-2.24097275391,9.95030209961,1.0,0.0,0.0,0.0,1.0,0.0,0.0,0.0,1.0
1463923608213841844,587,1463923608208350803,,-0.971939206123,-12.8198766708,23.9950828552,0.020428000018,1.0,0.0,0.0,0.0,1.0,0.0,0.0,0.0,1.0,22.9268302917,-4.14634132385,-77.8048782349,1.0,0.0,0.0,0.0,1.0,0.0,0.0,0.0,1.0,0.239420166016,-1.92972653809,9.12669672852,1.0,0.0,0.0,0.0,1.0,0.0,0.0,0.0,1.0
1463923608236453931,588,1463923608228637608,,-1.33528923988,-12.2932243347,22.3626117706,0.0203789994121,1.0,0.0,0.0,0.0,1.0,0.0,0.0,0.0,1.0,23.4146347046,-0.18292683363,-80.9146347046,1.0,0.0,0.0,0.0,1.0,0.0,0.0,0.0,1.0,0.411802685547,-1.82438166504,8.67658681641,1.0,0.0,0.0,0.0,1.0,0.0,0.0,0.0,1.0
1463923608252633927,589,1463923608248695609,,-1.57956159115,-11.7519617081,20.6551837921,0.020428000018,1.0,0.0,0.0,0.0,1.0,0.0,0.0,0.0,1.0,22.9268302917,3.96341490746,-83.4146347046,1.0,0.0,0.0,0.0,1.0,0.0,0.0,0.0,1.0,0.210689746094,-1.58496149902,8.37970522602,1.0,0.0,0.0,0.0,1.0,0.0,0.0,0.0,1.0
1463923608275990292,590,1463923608271084621,,-1.76039874554,-11.2298984528,18.8880023956,0.0203970000148,1.0,0.0,0.0,0.0,1.0,0.0,0.0,0.0,1.0,22.1951236725,3.29268312454,-86.5853729248,1.0,0.0,0.0,0.0,1.0,0.0,0.0,0.0,1.0,-0.292092584273,-1.57059628906,8.27914934082,1.0,0.0,0.0,0.0,1.0,0.0,0.0,0.0,1.0
1463923608298043311,591,1463923608289508075,,-1.96764171124,-10.6953754425,17.0691432953,0.0203949995339,1.0,0.0,0.0,0.0,1.0,0.0,0.0,0.0,1.0,22.1951236725,1.8292683363,-89.3292694092,1.0,0.0,0.0,0.0,1.0,0.0,0.0,0.0,1.0,-0.234631762695,-1.39821376953,7.94874951172,1.0,0.0,0.0,0.0,1.0,0.0,0.0,0.0,1.0
1463923608312822721,592,1463923608309964673,,-2.20003986359,-10.1820869446,15.1940526962,0.0203980002552,1.0,0.0,0.0,0.0,1.0,0.0,0.0,0.0,1.0,20.0,-1.70731711388,-92.6219482422,1.0,0.0,0.0,0.0,1.0,0.0,0.0,0.0,1.0,-0.488417138672,-1.20667770978,7.86734665527,1.0,0.0,0.0,0.0,1.0,0.0,0.0,0.0,1.0
1463923608332945827,593,1463923608330314916,,-2.48343658447,-9.7466545105,13.2755823135,0.0204240009189,1.0,0.0,0.0,0.0,1.0,0.0,0.0,0.0,1.0,17.9268302917,-5.42682933807,-95.2439041138,1.0,0.0,0.0,0.0,1.0,0.0,0.0,0.0,1.0,-0.603338854892,-1.51313544922,8.15943925781,1.0,0.0,0.0,0.0,1.0,0.0,0.0,0.0,1.0
1463923608352597417,594,1463923608350661826,,-2.84063625336,-9.33397769928,11.3333892822,0.0204140003771,1.0,0.0,0.0,0.0,1.0,0.0,0.0,0.0,1.0,17.3780498505,-8.65853691101,-96.8902511597,1.0,0.0,0.0,0.0,1.0,0.0,0.0,0.0,1.0,-0.469263525391,-1.74776721191,8.81066210937,1.0,0.0,0.0,0.0,1.0,0.0,0.0,0.0,1.0
1463923608373749230,595,1463923608370925923,,-3.19611239433,-8.93599414825,9.41474914551,0.020386999473,1.0,0.0,0.0,0.0,1.0,0.0,0.0,0.0,1.0,15.4878053665,-8.17073154449,-95.5487823486,1.0,0.0,0.0,0.0,1.0,0.0,0.0,0.0,1.0,-0.225054956055,-1.73340200195,9.69172832031,1.0,0.0,0.0,0.0,1.0,0.0,0.0,0.0,1.0
1463923608397107471,596,1463923608392257894,,-3.52069377899,-8.52718067169,7.44044494629,0.0211379993707,1.0,0.0,0.0,0.0,1.0,0.0,0.0,0.0,1.0,13.7804880142,-6.82926845551,-94.3902511597,1.0,0.0,0.0,0.0,1.0,0.0,0.0,0.0,1.0,-0.15322890625,-1.54665427246,10.0843773926,1.0,0.0,0.0,0.0,1.0,0.0,0.0,0.0,1.0
1463923608413560229,597,1463923608411936516,,-3.77203655243,-8.19044971466,5.55658054352,0.019701000303,1.0,0.0,0.0,0.0,1.0,0.0,0.0,0.0,1.0,9.69512176514,-6.40243911743,-96.3414611816,1.0,0.0,0.0,0.0,1.0,0.0,0.0,0.0,1.0,-0.435744702148,-1.2737152832,10.2711251221,1.0,0.0,0.0,0.0,1.0,0.0,0.0,0.0,1.0
1463923608435840074,598,1463923608432310666,,-4.08884048462,-7.91702032089,3.49964523315,0.0203949995339,1.0,0.0,0.0,0.0,1.0,0.0,0.0,0.0,1.0,5.91463422775,-11.8902444839,-102.317077637,1.0,0.0,0.0,0.0,1.0,0.0,0.0,0.0,1.0,-0.976834277344,-1.39821376953,10.6494089844,1.0,0.0,0.0,0.0,1.0,0.0,0.0,0.0,1.0
1463923608456314276,599,1463923608452636638,,-4.59065008163,-7.70160531998,1.27945542336,0.0204029995948,1.0,0.0,0.0,0.0,1.0,0.0,0.0,0.0,1.0,1.8902438879,-18.1097564697,-111.036590576,1.0,0.0,0.0,0.0,1.0,0.0,0.0,0.0,1.0,-0.526724328702,-1.43652099609,11.1186725098,1.0,0.0,0.0,0.0,1.0,0.0,0.0,0.0,1.0
1463923608481382272,600,1463923608473289852,,-5.16977357864,-7.52890110016,-1.15015280247,0.0206889994442,1.0,0.0,0.0,0.0,1.0,0.0,0.0,0.0,1.0,-2.19512200356,-20.0,-119.756103516,1.0,0.0,0.0,0.0,1.0,0.0,0.0,0.0,1.0,-0.282515795898,-1.37906015625,11.1761333496,1.0,0.0,0.0,0.0,1.0,0.0,0.0,0.0,1.0
1463923608502734920,601,1463923608496833407,,-5.69898986816,-7.4000043869,-3.63532853127,0.0201169997454,1.0,0.0,0.0,0.0,1.0,0.0,0.0,0.0,1.0,-6.40243911743,-18.4146347046,-125.426834106,1.0,0.0,0.0,0.0,1.0,0.0,0.0,0.0,1.0,-0.277727392578,-1.24019645996,11.2288057861,1.0,0.0,0.0,0.0,1.0,0.0,0.0,0.0,1.0
1463923608527042596,602,1463923608516931564,,-6.07610702515,-7.35857152939,-6.21049594879,0.020408000797,1.0,0.0,0.0,0.0,1.0,0.0,0.0,0.0,1.0,-11.0365858078,-7.37804937363,-126.585365295,1.0,0.0,0.0,0.0,1.0,0.0,0.0,0.0,1.0,0.45968671875,-1.42215578613,11.286266626,1.0,0.0,0.0,0.0,1.0,0.0,0.0,0.0,1.0
1463923608546307569,603,1463923608537727332,,-6.20236539841,-7.37205505371,-8.88822364807,0.0204099994153,1.0,0.0,0.0,0.0,1.0,0.0,0.0,0.0,1.0,-11.5853662491,6.7682929039,-130.06098938,1.0,0.0,0.0,0.0,1.0,0.0,0.0,0.0,1.0,0.780509741211,-2.01591779785,10.9462899902,1.0,0.0,0.0,0.0,1.0,0.0,0.0,0.0,1.0
1463923608566556769,604,1463923608558733675,,-6.06172418594,-7.37649774551,-12.234085083,0.0243480000645,1.0,0.0,0.0,0.0,1.0,0.0,0.0,0.0,1.0,-8.65853691101,17.2560977936,-135.304870605,1.0,0.0,0.0,0.0,1.0,0.0,0.0,0.0,1.0,0.363918652344,-2.70065947266,11.1569797363,1.0,0.0,0.0,0.0,1.0,0.0,0.0,0.0,1.0
1463923608582151812,605,1463923608578768447,,-5.83079242706,-7.2869682312,-15.0829811096,0.0200989991426,1.0,0.0,0.0,0.0,1.0,0.0,0.0,0.0,1.0,-2.56097555161,21.0975627899,-139.329269409,1.0,0.0,0.0,0.0,1.0,0.0,0.0,0.0,1.0,-0.15322890625,-3.23696064453,11.9901619141,1.0,0.0,0.0,0.0,1.0,0.0,0.0,0.0,1.0
1463923608600409691,606,1463923608597065441,,-5.60675621033,-7.08726358414,-17.6997661591,0.0182939991355,1.0,0.0,0.0,0.0,1.0,0.0,0.0,0.0,1.0,4.45121955872,17.3780498505,-141.158538818,1.0,0.0,0.0,0.0,1.0,0.0,0.0,0.0,1.0,-1.19710090314,-3.33751711426,12.3157733398,1.0,0.0,0.0,0.0,1.0,0.0,0.0,0.0,1.0
1463923608618680280,607,1463923608615966712,,-5.57434558868,-6.68355131149,-20.4419975281,0.0189130008221,1.0,0.0,0.0,0.0,1.0,0.0,0.0,0.0,1.0,10.3658542633,7.25609779358,-143.902435303,1.0,0.0,0.0,0.0,1.0,0.0,0.0,0.0,1.0,-1.01992990723,-2.24576115723,12.497732666,1.0,0.0,0.0,0.0,1.0,0.0,0.0,0.0,1.0
1463923608642677015,608,1463923608638914063,,-5.64285087585,-6.08749485016,-23.723072052,0.0227499995381,1.0,0.0,0.0,0.0,1.0,0.0,0.0,0.0,1.0,6.34146356583,5.42682933807,-142.378051758,1.0,0.0,0.0,0.0,1.0,0.0,0.0,0.0,1.0,-0.0383072265625,-0.138863696289,11.1761333496,1.0,0.0,0.0,0.0,1.0,0.0,0.0,0.0,1.0
1463923608665361499,609,1463923608658833677,,-5.62707805634,-5.74871921539,-26.2862739563,0.0180500000715,1.0,0.0,0.0,0.0,1.0,0.0,0.0,0.0,1.0,-3.17073178291,15.1219511032,-138.780487061,1.0,0.0,0.0,0.0,1.0,0.0,0.0,0.0,1.0,1.2737152832,0.392649072266,10.0412817627,1.0,0.0,0.0,0.0,1.0,0.0,0.0,0.0,1.0
1463923608688331194,610,1463923608683578910,,-4.95478200912,-5.59779882431,-29.182308197,0.0204249992967,1.0,0.0,0.0,0.0,1.0,0.0,0.0,0.0,1.0,-15.2439022064,46.5853691101,-135.365859985,1.0,0.0,0.0,0.0,1.0,0.0,0.0,0.0,1.0,1.16837033709,0.660799658203,9.01177504883,1.0,0.0,0.0,0.0,1.0,0.0,0.0,0.0,1.0
1463923608703267584,611,1463923608699847187,,-4.06487941742,-5.62500762939,-32.1100997925,0.0204109996557,1.0,0.0,0.0,0.0,1.0,0.0,0.0,0.0,1.0,-21.4634151459,54.207321167,-136.646347046,1.0,0.0,0.0,0.0,1.0,0.0,0.0,0.0,1.0,0.560243188477,0.550666381836,8.8872765625,1.0,0.0,0.0,0.0,1.0,0.0,0.0,0.0,1.0
1463923608726935358,612,1463923608719589664,,-3.00690460205,-5.89560937881,-35.1010360718,0.0204029995948,1.0,0.0,0.0,0.0,1.0,0.0,0.0,0.0,1.0,-25.975610733,59.024394989,-139.878051758,1.0,0.0,0.0,0.0,1.0,0.0,0.0,0.0,1.0,-0.239420166016,-0.292092584273,9.38048151997,1.0,0.0,0.0,0.0,1.0,0.0,0.0,0.0,1.0
1463923608745460116,613,1463923608738734375,,-1.95502603054,-6.28142690659,-38.0480270386,0.0204099994153,1.0,0.0,0.0,0.0,1.0,0.0,0.0,0.0,1.0,-24.4512195587,59.207321167,-137.804885864,1.0,0.0,0.0,0.0,1.0,0.0,0.0,0.0,1.0,-0.474051928711,-1.16358193377,10.2376062988,1.0,0.0,0.0,0.0,1.0,0.0,0.0,0.0,1.0
1463923608764191021,614,1463923608759298891,,-0.89234149456,-6.61017465591,-40.8804969788,0.0204119998962,1.0,0.0,0.0,0.0,1.0,0.0,0.0,0.0,1.0,-20.2439022064,64.5731735229,-131.280487061,1.0,0.0,0.0,0.0,1.0,0.0,0.0,0.0,1.0,0.181959326172,-0.991199487305,10.3860468018,1.0,0.0,0.0,0.0,1.0,0.0,0.0,0.0,1.0
1463923608785430855,615,1463923608779624030,,0.440960943699,-6.88584804535,-43.5513763428,0.0204440001398,1.0,0.0,0.0,0.0,1.0,0.0,0.0,0.0,1.0,-14.7560987473,80.1219482422,-121.036590576,1.0,0.0,0.0,0.0,1.0,0.0,0.0,0.0,1.0,0.502782348633,-1.05823706072,10.5967365479,1.0,0.0,0.0,0.0,1.0,0.0,0.0,0.0,1.0
1463923608809781969,616,1463923608799991565,,2.12220454216,-7.08585071564,-46.0556869507,0.0204099994153,1.0,0.0,0.0,0.0,1.0,0.0,0.0,0.0,1.0,-8.23170757294,94.4512176514,-110.975616455,1.0,0.0,0.0,0.0,1.0,0.0,0.0,0.0,1.0,-0.167594116211,-1.00077629395,10.3094323486,1.0,0.0,0.0,0.0,1.0,0.0,0.0,0.0,1.0
1463923608826239780,617,1463923608820487903,,4.10437440872,-7.23195457458,-48.4197158813,0.020433999598,1.0,0.0,0.0,0.0,1.0,0.0,0.0,0.0,1.0,-1.58536589146,108.536582947,-101.768295288,1.0,0.0,0.0,0.0,1.0,0.0,0.0,0.0,1.0,-0.435744702148,-1.07260241682,9.88326445312,1.0,0.0,0.0,0.0,1.0,0.0,0.0,0.0,1.0
1463923608852711279,618,1463923608840943720,,6.31832551956,-7.30506801605,-50.6589698792,0.0203680004925,1.0,0.0,0.0,0.0,1.0,0.0,0.0,0.0,1.0,6.58536624908,119.817070007,-94.0243988037,1.0,0.0,0.0,0.0,1.0,0.0,0.0,0.0,1.0,-0.732625708008,-1.24019645996,9.75397756348,1.0,0.0,0.0,0.0,1.0,0.0,0.0,0.0,1.0
1463923608863343618,619,1463923608861201983,,8.85059261322,-7.29063034058,-52.8265037537,0.0204109996557,1.0,0.0,0.0,0.0,1.0,0.0,0.0,0.0,1.0,16.4024391174,135.853652954,-87.5,1.0,0.0,0.0,0.0,1.0,0.0,0.0,0.0,1.0,-0.885854614258,-1.49877023926,9.65342167827,1.0,0.0,0.0,0.0,1.0,0.0,0.0,0.0,1.0
