%time,field.header.seq,field.header.stamp,field.header.frame_id,field.orientation.x,field.orientation.y,field.orientation.z,field.orientation.w,field.orientation_covariance0,field.orientation_covariance1,field.orientation_covariance2,field.orientation_covariance3,field.orientation_covariance4,field.orientation_covariance5,field.orientation_covariance6,field.orientation_covariance7,field.orientation_covariance8,field.angular_velocity.x,field.angular_velocity.y,field.angular_velocity.z,field.angular_velocity_covariance0,field.angular_velocity_covariance1,field.angular_velocity_covariance2,field.angular_velocity_covariance3,field.angular_velocity_covariance4,field.angular_velocity_covariance5,field.angular_velocity_covariance6,field.angular_velocity_covariance7,field.angular_velocity_covariance8,field.linear_acceleration.x,field.linear_acceleration.y,field.linear_acceleration.z,field.linear_acceleration_covariance0,field.linear_acceleration_covariance1,field.linear_acceleration_covariance2,field.linear_acceleration_covariance3,field.linear_acceleration_covariance4,field.linear_acceleration_covariance5,field.linear_acceleration_covariance6,field.linear_acceleration_covariance7,field.linear_acceleration_covariance8
1463993290395259912,247,1463993290103100796,,11.7387599945,-32.9418106079,-41.760761261,0.0147470002994,1.0,0.0,0.0,0.0,1.0,0.0,0.0,0.0,1.0,-7.80487823486,5.48780488968,0.914634168148,1.0,0.0,0.0,0.0,1.0,0.0,0.0,0.0,1.0,-0.991199487305,-3.76368500977,9.2655604248,1.0,0.0,0.0,0.0,1.0,0.0,0.0,0.0,1.0
1463993290401236397,248,1463993290124584402,,11.8228025436,-33.0864181519,-41.8596725464,0.00266400002874,1.0,0.0,0.0,0.0,1.0,0.0,0.0,0.0,1.0,-6.70731735229,3.04878044128,1.03658533096,1.0,0.0,0.0,0.0,1.0,0.0,0.0,0.0,1.0,-0.943315454102,-3.85466467285,9.31344387349,1.0,0.0,0.0,0.0,1.0,0.0,0.0,0.0,1.0
1463993290401390354,249,1463993290145744677,,11.8674154282,-33.1815948486,-41.9110908508,0.00291800010018,1.0,0.0,0.0,0.0,1.0,0.0,0.0,0.0,1.0,-4.81707286835,2.25609779358,2.86585378647,1.0,0.0,0.0,0.0,1.0,0.0,0.0,0.0,1.0,-1.07739082014,-3.83551105957,9.21288798828,1.0,0.0,0.0,0.0,1.0,0.0,0.0,0.0,1.0
1463993290401592541,250,1463993290165124906,,11.9373502731,-33.2182846069,-41.914150238,0.00223300000653,1.0,0.0,0.0,0.0,1.0,0.0,0.0,0.0,1.0,-3.29268312454,1.15853655338,3.71951246262,1.0,0.0,0.0,0.0,1.0,0.0,0.0,0.0,1.0,-1.17794714373,-3.78762702637,9.27513723145,1.0,0.0,0.0,0.0,1.0,0.0,0.0,0.0,1.0
1463993290402073737,251,1463993290188203714,,11.9768133163,-33.2117729187,-41.8924102783,0.00365399988368,1.0,0.0,0.0,0.0,1.0,0.0,0.0,0.0,1.0,-1.58536589146,-0.18292683363,4.45121955872,1.0,0.0,0.0,0.0,1.0,0.0,0.0,0.0,1.0,-0.981622680664,-3.82114584961,9.32780908345,1.0,0.0,0.0,0.0,1.0,0.0,0.0,0.0,1.0
1463993290402159466,252,1463993290212897462,,11.9918174744,-33.1551437378,-41.8591384888,0.00657500000671,1.0,0.0,0.0,0.0,1.0,0.0,0.0,0.0,1.0,0.18292683363,-0.731707334518,3.59756112099,1.0,0.0,0.0,0.0,1.0,0.0,0.0,0.0,1.0,-0.981622680664,-3.81156904297,9.35653950337,1.0,0.0,0.0,0.0,1.0,0.0,0.0,0.0,1.0
1463993290402200038,253,1463993290235772781,,11.9922943115,-33.0697669983,-41.8372039795,0.00354399997741,1.0,0.0,0.0,0.0,1.0,0.0,0.0,0.0,1.0,1.15853655338,-1.46341466904,3.04878044128,1.0,0.0,0.0,0.0,1.0,0.0,0.0,0.0,1.0,-1.01035310059,-3.67270534668,9.22725319824,1.0,0.0,0.0,0.0,1.0,0.0,0.0,0.0,1.0
1463993290402235195,254,1463993290256926285,,11.9793014526,-32.9629058838,-41.8176956177,0.00128800002858,1.0,0.0,0.0,0.0,1.0,0.0,0.0,0.0,1.0,2.31707310677,-2.25609779358,2.62195134163,1.0,0.0,0.0,0.0,1.0,0.0,0.0,0.0,1.0,-0.972045874023,-3.69185895996,9.34217429341,1.0,0.0,0.0,0.0,1.0,0.0,0.0,0.0,1.0
1463993290402270976,255,1463993290278393537,,11.9486970901,-32.820766449,-41.7830696106,0.00127600005362,1.0,0.0,0.0,0.0,1.0,0.0,0.0,0.0,1.0,3.17073178291,-1.64634156227,3.10975623131,1.0,0.0,0.0,0.0,1.0,0.0,0.0,0.0,1.0,-0.818816967773,-3.55299526367,9.35653950337,1.0,0.0,0.0,0.0,1.0,0.0,0.0,0.0,1.0
1463993290402361704,256,1463993290299363186,,11.9238729477,-32.6676940918,-41.7567520142,0.00124000001233,1.0,0.0,0.0,0.0,1.0,0.0,0.0,0.0,1.0,2.31707310677,-0.853658556938,2.68292689323,1.0,0.0,0.0,0.0,1.0,0.0,0.0,0.0,1.0,-0.847547387695,-3.38540114746,9.57201882183,1.0,0.0,0.0,0.0,1.0,0.0,0.0,0.0,1.0
1463993290402469569,257,1463993290321793611,,11.896987915,-32.5394477844,-41.7607879639,0.00119800004177,1.0,0.0,0.0,0.0,1.0,0.0,0.0,0.0,1.0,2.01219511032,0.0,1.09756100178,1.0,0.0,0.0,0.0,1.0,0.0,0.0,0.0,1.0,-0.818816967773,-3.46680400391,9.49061596538,1.0,0.0,0.0,0.0,1.0,0.0,0.0,0.0,1.0
1463993290402572224,258,1463993290342456804,,11.8781280518,-32.4221687317,-41.8076286316,0.00429000006989,1.0,0.0,0.0,0.0,1.0,0.0,0.0,0.0,1.0,1.52439022064,0.12195122242,-0.243902444839,1.0,0.0,0.0,0.0,1.0,0.0,0.0,0.0,1.0,-0.890643017578,-3.46201560059,9.56723041851,1.0,0.0,0.0,0.0,1.0,0.0,0.0,0.0,1.0
1463993290402656912,259,1463993290363036612,,11.8399419785,-32.3343048096,-41.8574676514,0.00109999999404,1.0,0.0,0.0,0.0,1.0,0.0,0.0,0.0,1.0,0.609756112099,0.243902444839,0.0609756112099,1.0,0.0,0.0,0.0,1.0,0.0,0.0,0.0,1.0,-0.809240161133,-3.46680400391,9.67257470703,1.0,0.0,0.0,0.0,1.0,0.0,0.0,0.0,1.0
1463993290402790244,260,1463993290384839696,,11.8188619614,-32.2597541809,-41.9029350281,0.00136100000236,1.0,0.0,0.0,0.0,1.0,0.0,0.0,0.0,1.0,-0.731707334518,2.01219511032,1.34146344662,1.0,0.0,0.0,0.0,1.0,0.0,0.0,0.0,1.0,-0.61770402832,-3.39018955078,9.55286520855,1.0,0.0,0.0,0.0,1.0,0.0,0.0,0.0,1.0
1463993290421764955,261,1463993290405899137,,11.8300895691,-32.2186813354,-41.9527702332,0.00526000000536,1.0,0.0,0.0,0.0,1.0,0.0,0.0,0.0,1.0,-2.25609779358,2.74390244484,0.914634168148,1.0,0.0,0.0,0.0,1.0,0.0,0.0,0.0,1.0,-0.794874951172,-3.38540114746,9.48582756206,1.0,0.0,0.0,0.0,1.0,0.0,0.0,0.0,1.0
1463993290452178314,262,1463993290426859204,,11.8454847336,-32.2104644775,-42.0184326172,0.00129399995785,1.0,0.0,0.0,0.0,1.0,0.0,0.0,0.0,1.0,-2.98780488968,3.04878044128,0.609756112099,1.0,0.0,0.0,0.0,1.0,0.0,0.0,0.0,1.0,-0.852335791016,-3.50032282715,9.52413478862,1.0,0.0,0.0,0.0,1.0,0.0,0.0,0.0,1.0
1463993290453098102,263,1463993290447735052,,11.8710250854,-32.2193145752,-42.0890884399,0.00128900003619,1.0,0.0,0.0,0.0,1.0,0.0,0.0,0.0,1.0,-3.59756112099,2.98780488968,0.548780500889,1.0,0.0,0.0,0.0,1.0,0.0,0.0,0.0,1.0,-0.814028564453,-3.62003291016,9.54807680523,1.0,0.0,0.0,0.0,1.0,0.0,0.0,0.0,1.0
1463993290470289174,264,1463993290468595067,,11.8928337097,-32.2504844666,-42.1651878357,0.00134099996649,1.0,0.0,0.0,0.0,1.0,0.0,0.0,0.0,1.0,-4.20731735229,2.56097555161,0.0,1.0,0.0,0.0,0.0,1.0,0.0,0.0,0.0,1.0,-0.928950244141,-3.60087929687,9.4954043687,1.0,0.0,0.0,0.0,1.0,0.0,0.0,0.0,1.0
1463993290500433056,265,1463993290490133256,,11.9155836105,-32.2998046875,-42.2478294373,0.00139800005127,1.0,0.0,0.0,0.0,1.0,0.0,0.0,0.0,1.0,-4.39024400711,3.29268312454,0.548780500889,1.0,0.0,0.0,0.0,1.0,0.0,0.0,0.0,1.0,-0.895431420898,-3.66312854004,9.43315395649,1.0,0.0,0.0,0.0,1.0,0.0,0.0,0.0,1.0
1463993290512694618,266,1463993290511075094,,11.9486703873,-32.352268219,-42.3234558105,0.00117499998305,1.0,0.0,0.0,0.0,1.0,0.0,0.0,0.0,1.0,-5.18292713165,3.10975623131,0.548780500889,1.0,0.0,0.0,0.0,1.0,0.0,0.0,0.0,1.0,-0.905008227539,-3.60087929687,9.38526992329,1.0,0.0,0.0,0.0,1.0,0.0,0.0,0.0,1.0
1463993290550053938,267,1463993290532093546,,11.9852161407,-32.417842865,-42.3925018311,0.00113500002772,1.0,0.0,0.0,0.0,1.0,0.0,0.0,0.0,1.0,-5.0,3.41463422775,1.09756100178,1.0,0.0,0.0,0.0,1.0,0.0,0.0,0.0,1.0,-0.842758984375,-3.52905324707,9.45230756977,1.0,0.0,0.0,0.0,1.0,0.0,0.0,0.0,1.0
1463993290579012043,268,1463993290553657985,,12.0237760544,-32.4877281189,-42.4542388916,0.00113300001249,1.0,0.0,0.0,0.0,1.0,0.0,0.0,0.0,1.0,-5.42682933807,2.98780488968,1.2804877758,1.0,0.0,0.0,0.0,1.0,0.0,0.0,0.0,1.0,-0.885854614258,-3.71580097656,9.36132790669,1.0,0.0,0.0,0.0,1.0,0.0,0.0,0.0,1.0
1463993290579115011,269,1463993290574104720,,12.0599870682,-32.5553283691,-42.5063819885,0.00112300005276,1.0,0.0,0.0,0.0,1.0,0.0,0.0,0.0,1.0,-5.48780488968,2.80487799644,1.52439022064,1.0,0.0,0.0,0.0,1.0,0.0,0.0,0.0,1.0,-0.885854614258,-3.68228215332,9.50976957866,1.0,0.0,0.0,0.0,1.0,0.0,0.0,0.0,1.0
1463993290613775592,270,1463993290595312234,,12.0910978317,-32.6182823181,-42.5578384399,0.00114800001029,1.0,0.0,0.0,0.0,1.0,0.0,0.0,0.0,1.0,-4.87804889679,2.37804889679,1.40243899822,1.0,0.0,0.0,0.0,1.0,0.0,0.0,0.0,1.0,-0.943315454102,-3.68228215332,9.38048151997,1.0,0.0,0.0,0.0,1.0,0.0,0.0,0.0,1.0
1463993290639584076,271,1463993290616304384,,12.1093587875,-32.6887245178,-42.6106262207,0.00133600004483,1.0,0.0,0.0,0.0,1.0,0.0,0.0,0.0,1.0,-5.0,1.2804877758,1.09756100178,1.0,0.0,0.0,0.0,1.0,0.0,0.0,0.0,1.0,-0.933738647461,-3.77805021973,9.27513723145,1.0,0.0,0.0,0.0,1.0,0.0,0.0,0.0,1.0
1463993290647170033,272,1463993290645937434,,12.1330518723,-32.7659988403,-42.671962738,0.0111919995397,1.0,0.0,0.0,0.0,1.0,0.0,0.0,0.0,1.0,-3.65853667259,2.07317066193,2.07317066193,1.0,0.0,0.0,0.0,1.0,0.0,0.0,0.0,1.0,-0.847547387695,-3.84987626953,9.38048151997,1.0,0.0,0.0,0.0,1.0,0.0,0.0,0.0,1.0
1463993290679966143,273,1463993290670286757,,12.1782474518,-32.8152770996,-42.7094230652,0.00560500007123,1.0,0.0,0.0,0.0,1.0,0.0,0.0,0.0,1.0,-3.41463422775,2.31707310677,2.56097555161,1.0,0.0,0.0,0.0,1.0,0.0,0.0,0.0,1.0,-0.972045874023,-3.84987626953,9.34217429341,1.0,0.0,0.0,0.0,1.0,0.0,0.0,0.0,1.0
1463993290701288395,274,1463993290694477383,,12.2045698166,-32.8388595581,-42.7533836365,0.00938799977303,1.0,0.0,0.0,0.0,1.0,0.0,0.0,0.0,1.0,-2.56097555161,2.01219511032,1.58536589146,1.0,0.0,0.0,0.0,1.0,0.0,0.0,0.0,1.0,-0.866701000977,-3.80678063965,9.38048151997,1.0,0.0,0.0,0.0,1.0,0.0,0.0,0.0,1.0
1463993290723498404,275,1463993290714990055,,12.226111412,-32.8533935547,-42.8081054688,0.00147100002505,1.0,0.0,0.0,0.0,1.0,0.0,0.0,0.0,1.0,-1.70731711388,1.64634156227,0.731707334518,1.0,0.0,0.0,0.0,1.0,0.0,0.0,0.0,1.0,-0.976834277344,-3.73974299316,9.32780908345,1.0,0.0,0.0,0.0,1.0,0.0,0.0,0.0,1.0
1463993290739737137,276,1463993290735004032,,12.2384586334,-32.8552894592,-42.8599739075,0.00137900002301,1.0,0.0,0.0,0.0,1.0,0.0,0.0,0.0,1.0,-1.15853655338,1.64634156227,1.03658533096,1.0,0.0,0.0,0.0,1.0,0.0,0.0,0.0,1.0,-0.981622680664,-3.86424147949,9.29907866352,1.0,0.0,0.0,0.0,1.0,0.0,0.0,0.0,1.0
1463993290768689826,277,1463993290756512013,,12.2500295639,-32.8295249939,-42.9069595337,0.00147300004028,1.0,0.0,0.0,0.0,1.0,0.0,0.0,0.0,1.0,-0.548780500889,1.95121955872,1.46341466904,1.0,0.0,0.0,0.0,1.0,0.0,0.0,0.0,1.0,-0.842758984375,-3.78283862305,9.37090471333,1.0,0.0,0.0,0.0,1.0,0.0,0.0,0.0,1.0
1463993290817880605,278,1463993290778368222,,12.2500171661,-32.7991065979,-42.9632377625,0.00140599999577,1.0,0.0,0.0,0.0,1.0,0.0,0.0,0.0,1.0,-0.609756112099,1.2804877758,0.12195122242,1.0,0.0,0.0,0.0,1.0,0.0,0.0,0.0,1.0,-0.861912597656,-3.64876333008,9.43315395649,1.0,0.0,0.0,0.0,1.0,0.0,0.0,0.0,1.0
1463993290818141021,279,1463993290801967444,,12.2353610992,-32.7735710144,-43.0356445312,0.00197499990463,1.0,0.0,0.0,0.0,1.0,0.0,0.0,0.0,1.0,-0.365853667259,1.70731711388,-0.548780500889,1.0,0.0,0.0,0.0,1.0,0.0,0.0,0.0,1.0,-0.833182177734,-3.71580097656,9.39484672993,1.0,0.0,0.0,0.0,1.0,0.0,0.0,0.0,1.0
1463993290835961153,280,1463993290820854342,,12.2297954559,-32.7489280701,-43.1047286987,0.00117800000589,1.0,0.0,0.0,0.0,1.0,0.0,0.0,0.0,1.0,-0.548780500889,1.76829278469,0.731707334518,1.0,0.0,0.0,0.0,1.0,0.0,0.0,0.0,1.0,-0.866701000977,-3.72058937988,9.44751916645,1.0,0.0,0.0,0.0,1.0,0.0,0.0,0.0,1.0
1463993290847162407,281,1463993290842337532,,12.2433433533,-32.7260169983,-43.1624221802,0.00131099997088,1.0,0.0,0.0,0.0,1.0,0.0,0.0,0.0,1.0,-0.914634168148,1.64634156227,0.670731723309,1.0,0.0,0.0,0.0,1.0,0.0,0.0,0.0,1.0,-0.933738647461,-3.75889660645,9.39963513325,1.0,0.0,0.0,0.0,1.0,0.0,0.0,0.0,1.0
1463993290874933642,282,1463993290863673013,,12.2367525101,-32.7126922607,-43.2207489014,0.00135999999475,1.0,0.0,0.0,0.0,1.0,0.0,0.0,0.0,1.0,-1.2804877758,1.76829278469,0.731707334518,1.0,0.0,0.0,0.0,1.0,0.0,0.0,0.0,1.0,-0.756567724609,-3.7493197998,9.2176763916,1.0,0.0,0.0,0.0,1.0,0.0,0.0,0.0,1.0
1463993290915968727,283,1463993290885606774,,12.2447309494,-32.7068214417,-43.2805709839,0.00313300010748,1.0,0.0,0.0,0.0,1.0,0.0,0.0,0.0,1.0,-1.2804877758,1.8292683363,0.792682945728,1.0,0.0,0.0,0.0,1.0,0.0,0.0,0.0,1.0,-0.943315454102,-3.81156904297,9.41400034321,1.0,0.0,0.0,0.0,1.0,0.0,0.0,0.0,1.0
1463993290917919448,284,1463993290908989330,,12.250582695,-32.7062110901,-43.3351860046,0.00189499999397,1.0,0.0,0.0,0.0,1.0,0.0,0.0,0.0,1.0,-1.58536589146,1.09756100178,0.853658556938,1.0,0.0,0.0,0.0,1.0,0.0,0.0,0.0,1.0,-0.938527050781,-3.73016618652,9.33259748677,1.0,0.0,0.0,0.0,1.0,0.0,0.0,0.0,1.0
1463993291059108480,285,1463993290929837262,,12.2418899536,-32.7034950256,-43.3832092285,0.00183900003321,1.0,0.0,0.0,0.0,1.0,0.0,0.0,0.0,1.0,-1.64634156227,1.64634156227,0.975609779358,1.0,0.0,0.0,0.0,1.0,0.0,0.0,0.0,1.0,-0.703895288086,-3.80199223633,9.25598361816,1.0,0.0,0.0,0.0,1.0,0.0,0.0,0.0,1.0
1463993291059340666,286,1463993290951270608,,12.2478752136,-32.7065696716,-43.4406852722,0.00222099991515,1.0,0.0,0.0,0.0,1.0,0.0,0.0,0.0,1.0,-1.76829278469,2.37804889679,0.853658556938,1.0,0.0,0.0,0.0,1.0,0.0,0.0,0.0,1.0,-0.842758984375,-3.85945307617,9.28471345356,1.0,0.0,0.0,0.0,1.0,0.0,0.0,0.0,1.0
1463993291059406812,287,1463993290972451298,,12.2643089294,-32.7184906006,-43.5130653381,0.00183399999514,1.0,0.0,0.0,0.0,1.0,0.0,0.0,0.0,1.0,-1.76829278469,2.31707310677,0.18292683363,1.0,0.0,0.0,0.0,1.0,0.0,0.0,0.0,1.0,-0.948103857422,-3.84508786621,9.44273076313,1.0,0.0,0.0,0.0,1.0,0.0,0.0,0.0,1.0
1463993291059452489,288,1463993290994997869,,12.2863826752,-32.7296142578,-43.5938606262,0.00209999992512,1.0,0.0,0.0,0.0,1.0,0.0,0.0,0.0,1.0,-1.8902438879,3.04878044128,0.18292683363,1.0,0.0,0.0,0.0,1.0,0.0,0.0,0.0,1.0,-0.981622680664,-3.75889660645,9.33259748677,1.0,0.0,0.0,0.0,1.0,0.0,0.0,0.0,1.0
1463993291061948676,289,1463993291015546635,,12.3052377701,-32.7427215576,-43.6868019104,0.00347099988721,1.0,0.0,0.0,0.0,1.0,0.0,0.0,0.0,1.0,-1.76829278469,3.35365867615,-0.853658556938,1.0,0.0,0.0,0.0,1.0,0.0,0.0,0.0,1.0,-0.871489404297,-3.75889660645,9.44273076313,1.0,0.0,0.0,0.0,1.0,0.0,0.0,0.0,1.0
1463993291061987166,290,1463993291037140553,,12.3169631958,-32.7603340149,-43.806552887,0.00122400000691,1.0,0.0,0.0,0.0,1.0,0.0,0.0,0.0,1.0,-2.31707310677,3.96341490746,-2.07317066193,1.0,0.0,0.0,0.0,1.0,0.0,0.0,0.0,1.0,-0.986411083984,-3.67270534668,9.24640681152,1.0,0.0,0.0,0.0,1.0,0.0,0.0,0.0,1.0
1463993291111599870,291,1463993291059452228,,12.333231926,-32.7965545654,-43.9554786682,0.0024230000563,1.0,0.0,0.0,0.0,1.0,0.0,0.0,0.0,1.0,-2.13414645195,4.2682929039,-2.86585378647,1.0,0.0,0.0,0.0,1.0,0.0,0.0,0.0,1.0,-0.938527050781,-3.80199223633,9.43794235981,1.0,0.0,0.0,0.0,1.0,0.0,0.0,0.0,1.0
1463993291113633559,292,1463993291080728023,,12.3441886902,-32.8491516113,-44.1108283997,0.00121699995361,1.0,0.0,0.0,0.0,1.0,0.0,0.0,0.0,1.0,-2.13414645195,4.69512224197,-2.31707310677,1.0,0.0,0.0,0.0,1.0,0.0,0.0,0.0,1.0,-0.871489404297,-3.92170231934,9.35653950337,1.0,0.0,0.0,0.0,1.0,0.0,0.0,0.0,1.0
1463993291113684913,293,1463993291101197310,,12.3697185516,-32.8902931213,-44.2607955933,0.00127899996005,1.0,0.0,0.0,0.0,1.0,0.0,0.0,0.0,1.0,-1.8292683363,5.06097555161,-2.07317066193,1.0,0.0,0.0,0.0,1.0,0.0,0.0,0.0,1.0,-0.943315454102,-3.92170231934,9.37090471333,1.0,0.0,0.0,0.0,1.0,0.0,0.0,0.0,1.0
1463993291322771311,294,1463993291121836493,,12.3952760696,-32.9231452942,-44.4115562439,0.00119400001131,1.0,0.0,0.0,0.0,1.0,0.0,0.0,0.0,1.0,-1.03658533096,5.48780488968,-2.19512200356,1.0,0.0,0.0,0.0,1.0,0.0,0.0,0.0,1.0,-0.871489404297,-4.0078935791,9.16500395508,1.0,0.0,0.0,0.0,1.0,0.0,0.0,0.0,1.0
1463993291322839904,295,1463993291143121975,,12.4258832932,-32.9465446472,-44.5680847168,0.00114599999506,1.0,0.0,0.0,0.0,1.0,0.0,0.0,0.0,1.0,-0.487804889679,4.51219558716,-2.56097555161,1.0,0.0,0.0,0.0,1.0,0.0,0.0,0.0,1.0,-0.92416184082,-3.95522114258,9.22246479492,1.0,0.0,0.0,0.0,1.0,0.0,0.0,0.0,1.0
1463993291322881883,296,1463993291164394071,,12.4494848251,-32.9534072876,-44.7222938538,0.0012229999993,1.0,0.0,0.0,0.0,1.0,0.0,0.0,0.0,1.0,0.670731723309,3.90243911743,-2.56097555161,1.0,0.0,0.0,0.0,1.0,0.0,0.0,0.0,1.0,-1.05823706072,-3.92649072266,9.16021555176,1.0,0.0,0.0,0.0,1.0,0.0,0.0,0.0,1.0
1463993291325173592,297,1463993291185366794,,12.4656476974,-32.9301605225,-44.8558578491,0.00134299998172,1.0,0.0,0.0,0.0,1.0,0.0,0.0,0.0,1.0,1.2195122242,2.98780488968,-1.58536589146,1.0,0.0,0.0,0.0,1.0,0.0,0.0,0.0,1.0,-0.957680664062,-3.99352836914,9.21288798828,1.0,0.0,0.0,0.0,1.0,0.0,0.0,0.0,1.0
1463993291326379994,298,1463993291206733578,,12.4692697525,-32.8814277649,-44.9662971497,0.00133300002199,1.0,0.0,0.0,0.0,1.0,0.0,0.0,0.0,1.0,2.5,2.62195134163,-1.09756100178,1.0,0.0,0.0,0.0,1.0,0.0,0.0,0.0,1.0,-0.92416184082,-3.9121255127,9.31344387349,1.0,0.0,0.0,0.0,1.0,0.0,0.0,0.0,1.0
1463993291326431868,299,1463993291227767498,,12.4725008011,-32.8169059753,-45.0585670471,0.0011930000037,1.0,0.0,0.0,0.0,1.0,0.0,0.0,0.0,1.0,2.5,2.5,-0.365853667259,1.0,0.0,0.0,0.0,1.0,0.0,0.0,0.0,1.0,-0.952892260742,-3.83551105957,9.40442353657,1.0,0.0,0.0,0.0,1.0,0.0,0.0,0.0,1.0
1463993291329858052,300,1463993291248849804,,12.4612588882,-32.7412185669,-45.1459884644,0.00117099995259,1.0,0.0,0.0,0.0,1.0,0.0,0.0,0.0,1.0,2.19512200356,1.64634156227,-0.792682945728,1.0,0.0,0.0,0.0,1.0,0.0,0.0,0.0,1.0,-0.861912597656,-3.80199223633,9.39484672993,1.0,0.0,0.0,0.0,1.0,0.0,0.0,0.0,1.0
1463993291329915291,301,1463993291270007057,,12.4417190552,-32.6812515259,-45.2349662781,0.0012150000548,1.0,0.0,0.0,0.0,1.0,0.0,0.0,0.0,1.0,1.64634156227,2.25609779358,-0.548780500889,1.0,0.0,0.0,0.0,1.0,0.0,0.0,0.0,1.0,-0.938527050781,-3.82593425293,9.43794235981,1.0,0.0,0.0,0.0,1.0,0.0,0.0,0.0,1.0
1463993291329954249,302,1463993291291263321,,12.4460344315,-32.6303443909,-45.3203468323,0.00153300003149,1.0,0.0,0.0,0.0,1.0,0.0,0.0,0.0,1.0,0.792682945728,2.19512200356,-0.548780500889,1.0,0.0,0.0,0.0,1.0,0.0,0.0,0.0,1.0,-1.09175595703,-3.77326181641,9.40442353657,1.0,0.0,0.0,0.0,1.0,0.0,0.0,0.0,1.0
1463993291331373149,303,1463993291312199585,,12.4411582947,-32.5777206421,-45.3960914612,0.00121699995361,1.0,0.0,0.0,0.0,1.0,0.0,0.0,0.0,1.0,-0.0609756112099,2.01219511032,-0.304878056049,1.0,0.0,0.0,0.0,1.0,0.0,0.0,0.0,1.0,-0.847547387695,-3.74453139648,9.37569311665,1.0,0.0,0.0,0.0,1.0,0.0,0.0,0.0,1.0
1463993291580459480,304,1463993291332661790,,12.4300451279,-32.5564422607,-45.4758605957,0.00116900005378,1.0,0.0,0.0,0.0,1.0,0.0,0.0,0.0,1.0,-1.40243899822,3.04878044128,-0.304878056049,1.0,0.0,0.0,0.0,1.0,0.0,0.0,0.0,1.0,-0.794874951172,-3.79241542969,9.37090471333,1.0,0.0,0.0,0.0,1.0,0.0,0.0,0.0,1.0
1463993291580734062,305,1463993291353359253,,12.4429502487,-32.570526123,-45.5703163147,0.0011190000223,1.0,0.0,0.0,0.0,1.0,0.0,0.0,0.0,1.0,-2.01219511032,3.71951246262,-0.548780500889,1.0,0.0,0.0,0.0,1.0,0.0,0.0,0.0,1.0,-0.885854614258,-3.86424147949,9.45230756977,1.0,0.0,0.0,0.0,1.0,0.0,0.0,0.0,1.0
1463993291581020728,306,1463993291373957082,,12.4751186371,-32.602016449,-45.6700401306,0.00119400001131,1.0,0.0,0.0,0.0,1.0,0.0,0.0,0.0,1.0,-2.43902444839,3.7804877758,-0.365853667259,1.0,0.0,0.0,0.0,1.0,0.0,0.0,0.0,1.0,-1.05823706072,-3.77326181641,9.36132790669,1.0,0.0,0.0,0.0,1.0,0.0,0.0,0.0,1.0
1463993291582637023,307,1463993291395093710,,12.5064992905,-32.632358551,-45.7701225281,0.00117399997544,1.0,0.0,0.0,0.0,1.0,0.0,0.0,0.0,1.0,-2.56097555161,3.84146332741,-0.365853667259,1.0,0.0,0.0,0.0,1.0,0.0,0.0,0.0,1.0,-0.928950244141,-3.78283862305,9.35653950337,1.0,0.0,0.0,0.0,1.0,0.0,0.0,0.0,1.0
1463993291582935615,308,1463993291415400446,,12.5275554657,-32.6671333313,-45.8745040894,0.00124300003517,1.0,0.0,0.0,0.0,1.0,0.0,0.0,0.0,1.0,-2.74390244484,4.14634132385,-0.670731723309,1.0,0.0,0.0,0.0,1.0,0.0,0.0,0.0,1.0,-0.967257470703,-3.75410820312,9.36611631001,1.0,0.0,0.0,0.0,1.0,0.0,0.0,0.0,1.0
1463993291584477380,309,1463993291436393586,,12.5548391342,-32.7216072083,-45.9989471436,0.001615999965,1.0,0.0,0.0,0.0,1.0,0.0,0.0,0.0,1.0,-3.41463422775,4.51219558716,-1.64634156227,1.0,0.0,0.0,0.0,1.0,0.0,0.0,0.0,1.0,-0.986411083984,-3.90254870605,9.2416184082,1.0,0.0,0.0,0.0,1.0,0.0,0.0,0.0,1.0
1463993291584785191,310,1463993291457153080,,12.5918703079,-32.7809104919,-46.1387481689,0.00117800000589,1.0,0.0,0.0,0.0,1.0,0.0,0.0,0.0,1.0,-2.5,5.12195110321,-2.07317066193,1.0,0.0,0.0,0.0,1.0,0.0,0.0,0.0,1.0,-1.0534486574,-3.86424147949,9.07402429199,1.0,0.0,0.0,0.0,1.0,0.0,0.0,0.0,1.0
1463993291585065242,311,1463993291478177574,,12.6368818283,-32.8284301758,-46.2898521423,0.001215999946,1.0,0.0,0.0,0.0,1.0,0.0,0.0,0.0,1.0,-1.46341466904,5.06097555161,-2.43902444839,1.0,0.0,0.0,0.0,1.0,0.0,0.0,0.0,1.0,-1.14442839355,-3.83551105957,9.25119521484,1.0,0.0,0.0,0.0,1.0,0.0,0.0,0.0,1.0
1463993291585365032,312,1463993291498858267,,12.6605558395,-32.8625831604,-46.4311294556,0.0012529999949,1.0,0.0,0.0,0.0,1.0,0.0,0.0,0.0,1.0,-1.46341466904,4.02439022064,-2.07317066193,1.0,0.0,0.0,0.0,1.0,0.0,0.0,0.0,1.0,-0.991199487305,-3.93127912598,9.11233151855,1.0,0.0,0.0,0.0,1.0,0.0,0.0,0.0,1.0
1463993291585646385,313,1463993291519971822,,12.6728820801,-32.8900184631,-46.5672569275,0.00126699998509,1.0,0.0,0.0,0.0,1.0,0.0,0.0,0.0,1.0,-0.853658556938,4.02439022064,-1.8292683363,1.0,0.0,0.0,0.0,1.0,0.0,0.0,0.0,1.0,-0.895431420898,-3.87860668945,9.28471345356,1.0,0.0,0.0,0.0,1.0,0.0,0.0,0.0,1.0
1463993291585910707,314,1463993291540798868,,12.6857948303,-32.91563797,-46.7020683289,0.00123900000472,1.0,0.0,0.0,0.0,1.0,0.0,0.0,0.0,1.0,-0.18292683363,4.32926845551,-1.52439022064,1.0,0.0,0.0,0.0,1.0,0.0,0.0,0.0,1.0,-1.09654436035,-4.02225878906,9.1697923584,1.0,0.0,0.0,0.0,1.0,0.0,0.0,0.0,1.0
1463993291588482415,315,1463993291562337735,,12.7149877548,-32.9209594727,-46.8343315125,0.00126100005582,1.0,0.0,0.0,0.0,1.0,0.0,0.0,0.0,1.0,0.426829278469,4.02439022064,-1.34146344662,1.0,0.0,0.0,0.0,1.0,0.0,0.0,0.0,1.0,-1.11569797363,-3.89776030273,9.2176763916,1.0,0.0,0.0,0.0,1.0,0.0,0.0,0.0,1.0
1463993291590123814,316,1463993291583259312,,12.7415485382,-32.9110183716,-46.9504737854,0.00123699998949,1.0,0.0,0.0,0.0,1.0,0.0,0.0,0.0,1.0,0.365853667259,2.86585378647,-1.2804877758,1.0,0.0,0.0,0.0,1.0,0.0,0.0,0.0,1.0,-1.13485158691,-3.90733710937,9.193734375,1.0,0.0,0.0,0.0,1.0,0.0,0.0,0.0,1.0
1463993291668776290,317,1463993291604405367,,12.7323446274,-32.8933181763,-47.0608024597,0.00122199999169,1.0,0.0,0.0,0.0,1.0,0.0,0.0,0.0,1.0,0.487804889679,2.5,-1.76829278469,1.0,0.0,0.0,0.0,1.0,0.0,0.0,0.0,1.0,-0.952892260742,-3.96479794922,9.35653950337,1.0,0.0,0.0,0.0,1.0,0.0,0.0,0.0,1.0
1463993291669275819,318,1463993291625454600,,12.7297286987,-32.872127533,-47.1643333435,0.00125800003298,1.0,0.0,0.0,0.0,1.0,0.0,0.0,0.0,1.0,0.670731723309,3.23170733452,-0.792682945728,1.0,0.0,0.0,0.0,1.0,0.0,0.0,0.0,1.0,-1.03429511719,-3.92649072266,9.36132790669,1.0,0.0,0.0,0.0,1.0,0.0,0.0,0.0,1.0
1463993291669587797,319,1463993291646972790,,12.737159729,-32.8536262512,-47.2719726562,0.00161100004334,1.0,0.0,0.0,0.0,1.0,0.0,0.0,0.0,1.0,0.853658556938,2.86585378647,-1.34146344662,1.0,0.0,0.0,0.0,1.0,0.0,0.0,0.0,1.0,-0.995987890625,-3.92170231934,9.15542714844,1.0,0.0,0.0,0.0,1.0,0.0,0.0,0.0,1.0
1463993291670017795,320,1463993291667729628,,12.7427253723,-32.8311080933,-47.3840522766,0.00119400001131,1.0,0.0,0.0,0.0,1.0,0.0,0.0,0.0,1.0,1.58536589146,2.62195134163,-1.58536589146,1.0,0.0,0.0,0.0,1.0,0.0,0.0,0.0,1.0,-1.15879360352,-3.85945307617,9.23204160156,1.0,0.0,0.0,0.0,1.0,0.0,0.0,0.0,1.0
1463993291717237541,321,1463993291689085266,,12.7604017258,-32.7810935974,-47.4864349365,0.00125600001775,1.0,0.0,0.0,0.0,1.0,0.0,0.0,0.0,1.0,1.46341466904,2.31707310677,-0.670731723309,1.0,0.0,0.0,0.0,1.0,0.0,0.0,0.0,1.0,-1.12527478027,-3.81635744629,9.2942902602,1.0,0.0,0.0,0.0,1.0,0.0,0.0,0.0,1.0
1463993291719762530,322,1463993291710692830,,12.7519550323,-32.7195777893,-47.5807533264,0.00124400004279,1.0,0.0,0.0,0.0,1.0,0.0,0.0,0.0,1.0,1.2195122242,2.25609779358,-1.2804877758,1.0,0.0,0.0,0.0,1.0,0.0,0.0,0.0,1.0,-0.852335791016,-3.77326181641,9.35175110005,1.0,0.0,0.0,0.0,1.0,0.0,0.0,0.0,1.0
1463993291745312682,323,1463993291731615240,,12.7283267975,-32.6798210144,-47.6879768372,0.00133899995126,1.0,0.0,0.0,0.0,1.0,0.0,0.0,0.0,1.0,0.548780500889,2.80487799644,-2.07317066193,1.0,0.0,0.0,0.0,1.0,0.0,0.0,0.0,1.0,-0.876277807617,-3.76847341309,9.27034882812,1.0,0.0,0.0,0.0,1.0,0.0,0.0,0.0,1.0
1463993291761885475,324,1463993291752654994,,12.7170648575,-32.658706665,-47.8105964661,0.00125900004059,1.0,0.0,0.0,0.0,1.0,0.0,0.0,0.0,1.0,0.0609756112099,3.65853667259,-1.76829278469,1.0,0.0,0.0,0.0,1.0,0.0,0.0,0.0,1.0,-0.995987890625,-3.91691391602,9.39963513325,1.0,0.0,0.0,0.0,1.0,0.0,0.0,0.0,1.0
1463993291781555287,325,1463993291773855112,,12.7367372513,-32.6555366516,-47.9354095459,0.00127500004601,1.0,0.0,0.0,0.0,1.0,0.0,0.0,0.0,1.0,-0.12195122242,3.7804877758,-1.2195122242,1.0,0.0,0.0,0.0,1.0,0.0,0.0,0.0,1.0,-1.08696755371,-3.94085593262,9.41400034321,1.0,0.0,0.0,0.0,1.0,0.0,0.0,0.0,1.0
1463993291800651560,326,1463993291795592727,,12.7682361603,-32.6518478394,-48.0501708984,0.00123499997426,1.0,0.0,0.0,0.0,1.0,0.0,0.0,0.0,1.0,-0.731707334518,4.02439022064,-1.03658533096,1.0,0.0,0.0,0.0,1.0,0.0,0.0,0.0,1.0,-1.11569797363,-3.76847341309,9.39484672993,1.0,0.0,0.0,0.0,1.0,0.0,0.0,0.0,1.0
1463993291819344448,327,1463993291815508944,,12.790058136,-32.656452179,-48.1636390686,0.00126100005582,1.0,0.0,0.0,0.0,1.0,0.0,0.0,0.0,1.0,-1.64634156227,3.47560977936,-1.76829278469,1.0,0.0,0.0,0.0,1.0,0.0,0.0,0.0,1.0,-0.933738647461,-3.79241542969,9.27034882812,1.0,0.0,0.0,0.0,1.0,0.0,0.0,0.0,1.0
1463993291844679080,328,1463993291836713645,,12.7828369141,-32.6891860962,-48.299041748,0.00132899999153,1.0,0.0,0.0,0.0,1.0,0.0,0.0,0.0,1.0,-2.56097555161,4.2682929039,-2.56097555161,1.0,0.0,0.0,0.0,1.0,0.0,0.0,0.0,1.0,-0.885854614258,-3.84508786621,9.36132790669,1.0,0.0,0.0,0.0,1.0,0.0,0.0,0.0,1.0
1463993291876119414,329,1463993291858030220,,12.8002920151,-32.742099762,-48.4494018555,0.00133799994364,1.0,0.0,0.0,0.0,1.0,0.0,0.0,0.0,1.0,-2.56097555161,5.24390268326,-2.13414645195,1.0,0.0,0.0,0.0,1.0,0.0,0.0,0.0,1.0,-1.00556469727,-3.87381828613,9.33259748677,1.0,0.0,0.0,0.0,1.0,0.0,0.0,0.0,1.0
1463993291896456150,330,1463993291879652993,,12.8443660736,-32.789352417,-48.6009902954,0.00141100003384,1.0,0.0,0.0,0.0,1.0,0.0,0.0,0.0,1.0,-2.62195134163,5.54878091812,-1.58536589146,1.0,0.0,0.0,0.0,1.0,0.0,0.0,0.0,1.0,-1.07739082014,-3.90254870605,9.29907866352,1.0,0.0,0.0,0.0,1.0,0.0,0.0,0.0,1.0
1463993291917845486,331,1463993291900590247,,12.8926591873,-32.834602356,-48.7420845032,0.00128700002097,1.0,0.0,0.0,0.0,1.0,0.0,0.0,0.0,1.0,-2.68292689323,5.24390268326,-1.46341466904,1.0,0.0,0.0,0.0,1.0,0.0,0.0,0.0,1.0,-1.02471831055,-3.85945307617,9.2655604248,1.0,0.0,0.0,0.0,1.0,0.0,0.0,0.0,1.0
1463993291936215407,332,1463993291921951614,,12.9306983948,-32.9055938721,-48.8955459595,0.00132399995346,1.0,0.0,0.0,0.0,1.0,0.0,0.0,0.0,1.0,-3.35365867615,4.63414621353,-2.80487799644,1.0,0.0,0.0,0.0,1.0,0.0,0.0,0.0,1.0,-1.09654436035,-3.9839515625,9.31344387349,1.0,0.0,0.0,0.0,1.0,0.0,0.0,0.0,1.0
1463993291967518190,333,1463993291942633505,,12.9527864456,-32.9796295166,-49.0547714233,0.00126399996225,1.0,0.0,0.0,0.0,1.0,0.0,0.0,0.0,1.0,-2.80487799644,5.30487823486,-2.74390244484,1.0,0.0,0.0,0.0,1.0,0.0,0.0,0.0,1.0,-1.10612116699,-3.91691391602,9.37090471333,1.0,0.0,0.0,0.0,1.0,0.0,0.0,0.0,1.0
1463993291969360526,334,1463993291963731591,,13.0003271103,-33.0381698608,-49.2109107971,0.00138000003062,1.0,0.0,0.0,0.0,1.0,0.0,0.0,0.0,1.0,-2.62195134163,5.67073154449,-2.13414645195,1.0,0.0,0.0,0.0,1.0,0.0,0.0,0.0,1.0,-1.13006318359,-3.90733710937,9.16500395508,1.0,0.0,0.0,0.0,1.0,0.0,0.0,0.0,1.0
1463993291997016918,335,1463993291984553950,,13.0406923294,-33.0947532654,-49.3575325012,0.00125600001775,1.0,0.0,0.0,0.0,1.0,0.0,0.0,0.0,1.0,-2.86585378647,5.0,-1.95121955872,1.0,0.0,0.0,0.0,1.0,0.0,0.0,0.0,1.0,-1.11569797363,-3.85945307617,9.20331118164,1.0,0.0,0.0,0.0,1.0,0.0,0.0,0.0,1.0
1463993292011185139,336,1463993292005251674,,13.06823349,-33.1565742493,-49.4983901978,0.00123699998949,1.0,0.0,0.0,0.0,1.0,0.0,0.0,0.0,1.0,-2.80487799644,4.93902444839,-1.8292683363,1.0,0.0,0.0,0.0,1.0,0.0,0.0,0.0,1.0,-1.03429511719,-3.94085593262,9.28471345356,1.0,0.0,0.0,0.0,1.0,0.0,0.0,0.0,1.0
1463993292030811096,337,1463993292026286949,,13.1101522446,-33.2199630737,-49.6410903931,0.00140499998815,1.0,0.0,0.0,0.0,1.0,0.0,0.0,0.0,1.0,-2.25609779358,4.81707286835,-1.64634156227,1.0,0.0,0.0,0.0,1.0,0.0,0.0,0.0,1.0,-1.11569797363,-4.04620080566,9.2416184082,1.0,0.0,0.0,0.0,1.0,0.0,0.0,0.0,1.0
1463993292057715617,338,1463993292046801184,,13.1355400085,-33.2746009827,-49.774066925,0.00182899995707,1.0,0.0,0.0,0.0,1.0,0.0,0.0,0.0,1.0,-2.43902444839,4.08536577225,-1.8292683363,1.0,0.0,0.0,0.0,1.0,0.0,0.0,0.0,1.0,-1.08696755371,-4.01268198242,9.35653950337,1.0,0.0,0.0,0.0,1.0,0.0,0.0,0.0,1.0
1463993292071340923,339,1463993292067700678,,13.1499071121,-33.3243637085,-49.9014091492,0.00127699994482,1.0,0.0,0.0,0.0,1.0,0.0,0.0,0.0,1.0,-2.19512200356,3.84146332741,-1.40243899822,1.0,0.0,0.0,0.0,1.0,0.0,0.0,0.0,1.0,-0.967257470703,-4.08929643555,9.20809958496,1.0,0.0,0.0,0.0,1.0,0.0,0.0,0.0,1.0
1463993292163631935,340,1463993292088734495,,13.1762475967,-33.3816223145,-50.0177536011,0.001111999969,1.0,0.0,0.0,0.0,1.0,0.0,0.0,0.0,1.0,-2.37804889679,3.71951246262,-0.609756112099,1.0,0.0,0.0,0.0,1.0,0.0,0.0,0.0,1.0,-1.1875240965,-4.06535441895,9.25119521484,1.0,0.0,0.0,0.0,1.0,0.0,0.0,0.0,1.0
1463993292164123391,341,1463993292110205288,,13.2208967209,-33.4257774353,-50.122051239,0.00568800000474,1.0,0.0,0.0,0.0,1.0,0.0,0.0,0.0,1.0,-2.01219511032,3.41463422775,-0.304878056049,1.0,0.0,0.0,0.0,1.0,0.0,0.0,0.0,1.0,-1.29286889648,-3.9121255127,9.12669672852,1.0,0.0,0.0,0.0,1.0,0.0,0.0,0.0,1.0
1463993292164672034,342,1463993292131224000,,13.2468824387,-33.452255249,-50.2156219482,0.00110999995377,1.0,0.0,0.0,0.0,1.0,0.0,0.0,0.0,1.0,-1.76829278469,3.29268312454,-0.18292683363,1.0,0.0,0.0,0.0,1.0,0.0,0.0,0.0,1.0,-1.13006318359,-3.9839515625,9.2416184082,1.0,0.0,0.0,0.0,1.0,0.0,0.0,0.0,1.0
1463993292166201768,343,1463993292151939068,,13.2623052597,-33.4698448181,-50.3032951355,0.00113900005817,1.0,0.0,0.0,0.0,1.0,0.0,0.0,0.0,1.0,-2.01219511032,2.68292689323,-0.487804889679,1.0,0.0,0.0,0.0,1.0,0.0,0.0,0.0,1.0,-1.10133276367,-3.9121255127,9.22246479492,1.0,0.0,0.0,0.0,1.0,0.0,0.0,0.0,1.0
1463993292250633438,344,1463993292172518407,,13.2662363052,-33.5022735596,-50.3908500671,0.00112799997441,1.0,0.0,0.0,0.0,1.0,0.0,0.0,0.0,1.0,-2.13414645195,2.98780488968,-0.18292683363,1.0,0.0,0.0,0.0,1.0,0.0,0.0,0.0,1.0,-1.00077629395,-4.05098920898,9.35175110005,1.0,0.0,0.0,0.0,1.0,0.0,0.0,0.0,1.0
1463993292253071344,345,1463993292193143319,,13.2872457504,-33.5414123535,-50.4804534912,0.00115499994718,1.0,0.0,0.0,0.0,1.0,0.0,0.0,0.0,1.0,-2.37804889679,3.47560977936,-0.0609756112099,1.0,0.0,0.0,0.0,1.0,0.0,0.0,0.0,1.0,-1.11090957031,-4.02704719238,9.28950185688,1.0,0.0,0.0,0.0,1.0,0.0,0.0,0.0,1.0
1463993292253392332,346,1463993292213540680,,13.310046196,-33.5902290344,-50.578453064,0.00114299997222,1.0,0.0,0.0,0.0,1.0,0.0,0.0,0.0,1.0,-2.56097555161,3.59756112099,-0.487804889679,1.0,0.0,0.0,0.0,1.0,0.0,0.0,0.0,1.0,-1.15879360352,-4.07971962891,9.25119521484,1.0,0.0,0.0,0.0,1.0,0.0,0.0,0.0,1.0
1463993292255473886,347,1463993292234553663,,13.3352813721,-33.6435585022,-50.6779098511,0.00112399994396,1.0,0.0,0.0,0.0,1.0,0.0,0.0,0.0,1.0,-2.5,3.10975623131,-0.426829278469,1.0,0.0,0.0,0.0,1.0,0.0,0.0,0.0,1.0,-1.24498486328,-4.08929643555,9.23683000488,1.0,0.0,0.0,0.0,1.0,0.0,0.0,0.0,1.0
1463993292259213037,348,1463993292255938571,,13.3677463531,-33.6833496094,-50.7684707642,0.00157800002489,1.0,0.0,0.0,0.0,1.0,0.0,0.0,0.0,1.0,-2.01219511032,2.92682933807,-0.12195122242,1.0,0.0,0.0,0.0,1.0,0.0,0.0,0.0,1.0,-1.21625444336,-4.01268198242,9.1219083252,1.0,0.0,0.0,0.0,1.0,0.0,0.0,0.0,1.0
1463993292619757276,349,1463993292277309834,,13.3749599457,-33.7197799683,-50.8550834656,0.0011419999646,1.0,0.0,0.0,0.0,1.0,0.0,0.0,0.0,1.0,-1.52439022064,2.68292689323,-0.243902444839,1.0,0.0,0.0,0.0,1.0,0.0,0.0,0.0,1.0,-1.0534486574,-4.10366164551,9.11711992188,1.0,0.0,0.0,0.0,1.0,0.0,0.0,0.0,1.0
1463993292619892744,350,1463993292298453390,,13.3825130463,-33.7497634888,-50.9445228577,0.00113900005817,1.0,0.0,0.0,0.0,1.0,0.0,0.0,0.0,1.0,-1.40243899822,3.17073178291,0.243902444839,1.0,0.0,0.0,0.0,1.0,0.0,0.0,0.0,1.0,-1.21625444336,-4.09408483887,9.16021555176,1.0,0.0,0.0,0.0,1.0,0.0,0.0,0.0,1.0
1463993292626470737,351,1463993292319390175,,13.4107255936,-33.765827179,-51.0285110474,0.00117099995259,1.0,0.0,0.0,0.0,1.0,0.0,0.0,0.0,1.0,-0.304878056049,2.37804889679,0.18292683363,1.0,0.0,0.0,0.0,1.0,0.0,0.0,0.0,1.0,-1.22583125,-4.05098920898,9.13627353516,1.0,0.0,0.0,0.0,1.0,0.0,0.0,0.0,1.0
1463993292628950518,352,1463993292340787323,,13.4252119064,-33.7663879395,-51.1088409424,0.00115300004836,1.0,0.0,0.0,0.0,1.0,0.0,0.0,0.0,1.0,0.18292683363,1.95121955872,-0.0609756112099,1.0,0.0,0.0,0.0,1.0,0.0,0.0,0.0,1.0,-1.27850368652,-4.07971962891,9.03092866211,1.0,0.0,0.0,0.0,1.0,0.0,0.0,0.0,1.0
1463993292631280352,353,1463993292361448016,,13.4270782471,-33.7579917908,-51.1893081665,0.00128199998289,1.0,0.0,0.0,0.0,1.0,0.0,0.0,0.0,1.0,0.914634168148,1.64634156227,-0.548780500889,1.0,0.0,0.0,0.0,1.0,0.0,0.0,0.0,1.0,-1.1875240965,-4.17069899973,9.08360109863,1.0,0.0,0.0,0.0,1.0,0.0,0.0,0.0,1.0
1463993292632504618,354,1463993292382108657,,13.4212255478,-33.7327079773,-51.2657661438,0.00116099999286,1.0,0.0,0.0,0.0,1.0,0.0,0.0,0.0,1.0,1.58536589146,1.58536589146,-0.0609756112099,1.0,0.0,0.0,0.0,1.0,0.0,0.0,0.0,1.0,-1.13006318359,-4.13239206543,9.28471345356,1.0,0.0,0.0,0.0,1.0,0.0,0.0,0.0,1.0
1463993292632727533,355,1463993292403255077,,13.4147949219,-33.6920471191,-51.3382720947,0.00119099998847,1.0,0.0,0.0,0.0,1.0,0.0,0.0,0.0,1.0,1.64634156227,1.46341466904,-0.18292683363,1.0,0.0,0.0,0.0,1.0,0.0,0.0,0.0,1.0,-1.19710090314,-4.07971962891,9.00219824219,1.0,0.0,0.0,0.0,1.0,0.0,0.0,0.0,1.0
1463993292633564040,356,1463993292424313685,,13.4016370773,-33.6456985474,-51.4077033997,0.00127200002316,1.0,0.0,0.0,0.0,1.0,0.0,0.0,0.0,1.0,1.76829278469,0.792682945728,-0.18292683363,1.0,0.0,0.0,0.0,1.0,0.0,0.0,0.0,1.0,-1.21625444336,-4.0557776123,9.22725319824,1.0,0.0,0.0,0.0,1.0,0.0,0.0,0.0,1.0
1463993292633614248,357,1463993292445139690,,13.382692337,-33.5883750916,-51.4659118652,0.00123499997426,1.0,0.0,0.0,0.0,1.0,0.0,0.0,0.0,1.0,2.07317066193,0.731707334518,0.243902444839,1.0,0.0,0.0,0.0,1.0,0.0,0.0,0.0,1.0,-1.13006318359,-4.01268198242,9.18415756836,1.0,0.0,0.0,0.0,1.0,0.0,0.0,0.0,1.0
1463993292633652009,358,1463993292466411317,,13.3699703217,-33.5258293152,-51.516456604,0.00135399994906,1.0,0.0,0.0,0.0,1.0,0.0,0.0,0.0,1.0,1.52439022064,0.975609779358,0.853658556938,1.0,0.0,0.0,0.0,1.0,0.0,0.0,0.0,1.0,-1.00077629395,-3.96958635254,9.23683000488,1.0,0.0,0.0,0.0,1.0,0.0,0.0,0.0,1.0
1463993292644734513,359,1463993292487494508,,13.3590145111,-33.4649963379,-51.5668067932,0.0011930000037,1.0,0.0,0.0,0.0,1.0,0.0,0.0,0.0,1.0,1.34146344662,1.15853655338,0.792682945728,1.0,0.0,0.0,0.0,1.0,0.0,0.0,0.0,1.0,-1.01992990723,-3.95522114258,9.18894597168,1.0,0.0,0.0,0.0,1.0,0.0,0.0,0.0,1.0
1463993292646797317,360,1463993292508762751,,13.3488874435,-33.4228820801,-51.6278038025,0.0012300000526,1.0,0.0,0.0,0.0,1.0,0.0,0.0,0.0,1.0,0.609756112099,1.64634156227,0.18292683363,1.0,0.0,0.0,0.0,1.0,0.0,0.0,0.0,1.0,-1.10133276367,-3.92649072266,9.33259748677,1.0,0.0,0.0,0.0,1.0,0.0,0.0,0.0,1.0
1463993292649394233,361,1463993292529554016,,13.3439807892,-33.3975944519,-51.6912231445,0.00119099998847,1.0,0.0,0.0,0.0,1.0,0.0,0.0,0.0,1.0,-0.0609756112099,1.76829278469,0.365853667259,1.0,0.0,0.0,0.0,1.0,0.0,0.0,0.0,1.0,-1.16358193377,-3.9360675293,9.23683000488,1.0,0.0,0.0,0.0,1.0,0.0,0.0,0.0,1.0
1463993292650270948,362,1463993292550055439,,13.3541927338,-33.3815803528,-51.756275177,0.00114499998745,1.0,0.0,0.0,0.0,1.0,0.0,0.0,0.0,1.0,-0.365853667259,2.19512200356,0.18292683363,1.0,0.0,0.0,0.0,1.0,0.0,0.0,0.0,1.0,-1.13006318359,-3.95522114258,9.32302068013,1.0,0.0,0.0,0.0,1.0,0.0,0.0,0.0,1.0
1463993292650331416,363,1463993292571275973,,13.3559513092,-33.3748397827,-51.8324012756,0.00115799997002,1.0,0.0,0.0,0.0,1.0,0.0,0.0,0.0,1.0,-0.975609779358,2.37804889679,-0.12195122242,1.0,0.0,0.0,0.0,1.0,0.0,0.0,0.0,1.0,-1.09654436035,-4.0078935791,9.22246479492,1.0,0.0,0.0,0.0,1.0,0.0,0.0,0.0,1.0
1463993292650595009,364,1463993292592804110,,13.356127739,-33.3832626343,-51.9191589355,0.00114499998745,1.0,0.0,0.0,0.0,1.0,0.0,0.0,0.0,1.0,-1.15853655338,2.80487799644,0.0,1.0,0.0,0.0,0.0,1.0,0.0,0.0,0.0,1.0,-1.17794714373,-3.96958635254,9.2942902602,1.0,0.0,0.0,0.0,1.0,0.0,0.0,0.0,1.0
1463993292696226793,365,1463993292613913968,,13.3757305145,-33.3952941895,-52.0010757446,0.00121400004718,1.0,0.0,0.0,0.0,1.0,0.0,0.0,0.0,1.0,-1.2804877758,2.68292689323,0.0609756112099,1.0,0.0,0.0,0.0,1.0,0.0,0.0,0.0,1.0,-1.21625444336,-3.9360675293,9.30386706685,1.0,0.0,0.0,0.0,1.0,0.0,0.0,0.0,1.0
1463993292697607360,366,1463993292635560073,,13.3820047379,-33.4287071228,-52.0905609131,0.00113600003533,1.0,0.0,0.0,0.0,1.0,0.0,0.0,0.0,1.0,-1.64634156227,2.62195134163,-0.731707334518,1.0,0.0,0.0,0.0,1.0,0.0,0.0,0.0,1.0,-1.09175595703,-4.10366164551,9.21288798828,1.0,0.0,0.0,0.0,1.0,0.0,0.0,0.0,1.0
1463993292701459635,367,1463993292656630296,,13.3934106827,-33.4675827026,-52.1873512268,0.00132599996869,1.0,0.0,0.0,0.0,1.0,0.0,0.0,0.0,1.0,-1.58536589146,2.74390244484,-0.365853667259,1.0,0.0,0.0,0.0,1.0,0.0,0.0,0.0,1.0,-1.20188930646,-4.09887324219,9.20809958496,1.0,0.0,0.0,0.0,1.0,0.0,0.0,0.0,1.0
1463993292976322991,368,1463993292677737862,,13.4162788391,-33.495552063,-52.2789459229,0.00116200000048,1.0,0.0,0.0,0.0,1.0,0.0,0.0,0.0,1.0,-1.15853655338,3.04878044128,-0.12195122242,1.0,0.0,0.0,0.0,1.0,0.0,0.0,0.0,1.0,-1.17315874041,-4.09887324219,9.16021555176,1.0,0.0,0.0,0.0,1.0,0.0,0.0,0.0,1.0
1463993292976598615,369,1463993292698796313,,13.4292030334,-33.5139350891,-52.3682746887,0.00112599995919,1.0,0.0,0.0,0.0,1.0,0.0,0.0,0.0,1.0,-1.15853655338,2.68292689323,-0.487804889679,1.0,0.0,0.0,0.0,1.0,0.0,0.0,0.0,1.0,-1.12527478027,-4.01747038574,9.16021555176,1.0,0.0,0.0,0.0,1.0,0.0,0.0,0.0,1.0
1463993292976972364,370,1463993292719716172,,13.4340763092,-33.525642395,-52.4522438049,0.00109300005715,1.0,0.0,0.0,0.0,1.0,0.0,0.0,0.0,1.0,-0.853658556938,2.37804889679,-0.18292683363,1.0,0.0,0.0,0.0,1.0,0.0,0.0,0.0,1.0,-1.15879360352,-4.01747038574,9.34217429341,1.0,0.0,0.0,0.0,1.0,0.0,0.0,0.0,1.0
1463993292977243300,371,1463993292741251653,,13.4419193268,-33.5362548828,-52.5373687744,0.00121799996123,1.0,0.0,0.0,0.0,1.0,0.0,0.0,0.0,1.0,-0.914634168148,2.31707310677,-0.18292683363,1.0,0.0,0.0,0.0,1.0,0.0,0.0,0.0,1.0,-1.13485158691,-4.03662399902,9.34217429341,1.0,0.0,0.0,0.0,1.0,0.0,0.0,0.0,1.0
1463993292977516580,372,1463993292762368437,,13.4481554031,-33.5486412048,-52.6217803955,0.00110100000165,1.0,0.0,0.0,0.0,1.0,0.0,0.0,0.0,1.0,-0.548780500889,2.25609779358,-0.304878056049,1.0,0.0,0.0,0.0,1.0,0.0,0.0,0.0,1.0,-1.13006318359,-4.08450803223,9.24640681152,1.0,0.0,0.0,0.0,1.0,0.0,0.0,0.0,1.0
1463993292977776423,373,1463993292783421004,,13.4554433823,-33.5657196045,-52.708694458,0.00115899997763,1.0,0.0,0.0,0.0,1.0,0.0,0.0,0.0,1.0,-0.670731723309,2.43902444839,-0.365853667259,1.0,0.0,0.0,0.0,1.0,0.0,0.0,0.0,1.0,-1.21625444336,-4.07014282227,9.07402429199,1.0,0.0,0.0,0.0,1.0,0.0,0.0,0.0,1.0
1463993292978032151,374,1463993292803932791,,13.4670619965,-33.5721054077,-52.7856636047,0.001111999969,1.0,0.0,0.0,0.0,1.0,0.0,0.0,0.0,1.0,0.243902444839,1.76829278469,0.12195122242,1.0,0.0,0.0,0.0,1.0,0.0,0.0,0.0,1.0,-1.32638771973,-4.04141240234,9.193734375,1.0,0.0,0.0,0.0,1.0,0.0,0.0,0.0,1.0
1463993292978305639,375,1463993292824801504,,13.4736881256,-33.5701751709,-52.8563842773,0.00116999994498,1.0,0.0,0.0,0.0,1.0,0.0,0.0,0.0,1.0,-0.304878056049,1.95121955872,0.18292683363,1.0,0.0,0.0,0.0,1.0,0.0,0.0,0.0,1.0,-1.09175595703,-4.09887324219,9.30386706685,1.0,0.0,0.0,0.0,1.0,0.0,0.0,0.0,1.0
1463993292978568815,376,1463993292845787820,,13.4720010757,-33.5593452454,-52.9261360168,0.00152199994773,1.0,0.0,0.0,0.0,1.0,0.0,0.0,0.0,1.0,-0.304878056049,2.25609779358,0.0,1.0,0.0,0.0,0.0,1.0,0.0,0.0,0.0,1.0,-1.11090957031,-3.98873996582,9.18415756836,1.0,0.0,0.0,0.0,1.0,0.0,0.0,0.0,1.0
1463993292978830949,377,1463993292867220750,,13.4785299301,-33.5435295105,-53.0040283203,0.0011569999624,1.0,0.0,0.0,0.0,1.0,0.0,0.0,0.0,1.0,0.0609756112099,2.19512200356,-0.12195122242,1.0,0.0,0.0,0.0,1.0,0.0,0.0,0.0,1.0,-1.11569797363,-4.0557776123,9.15063874512,1.0,0.0,0.0,0.0,1.0,0.0,0.0,0.0,1.0
1463993292979258083,378,1463993292888007171,,13.5263843536,-33.4753799438,-53.0737380981,0.0011040000245,1.0,0.0,0.0,0.0,1.0,0.0,0.0,0.0,1.0,-4.57317066193,-0.548780500889,-7.50000047684,1.0,0.0,0.0,0.0,1.0,0.0,0.0,0.0,1.0,-2.99754047852,-3.04542451172,11.9757967041,1.0,0.0,0.0,0.0,1.0,0.0,0.0,0.0,1.0
1463993292979673810,379,1463993292908643437,,13.5896530151,-33.8412704468,-53.2514648438,0.00157199997921,1.0,0.0,0.0,0.0,1.0,0.0,0.0,0.0,1.0,-24.2073173523,19.2073173523,-5.18292713165,1.0,0.0,0.0,0.0,1.0,0.0,0.0,0.0,1.0,-1.74776721191,-9.61032604839,4.47715710449,1.0,0.0,0.0,0.0,1.0,0.0,0.0,0.0,1.0
1463993292980155944,380,1463993292929430067,,13.7104740143,-33.8970794678,-53.3514518738,0.00121100002434,1.0,0.0,0.0,0.0,1.0,0.0,0.0,0.0,1.0,9.20731735229,5.24390268326,-10.8536586761,1.0,0.0,0.0,0.0,1.0,0.0,0.0,0.0,1.0,-6.14352145996,-4.41490786133,6.70855305176,1.0,0.0,0.0,0.0,1.0,0.0,0.0,0.0,1.0
1463993292980555317,381,1463993292950979141,,13.680264473,-33.8525047302,-53.4436531067,0.00117699999828,1.0,0.0,0.0,0.0,1.0,0.0,0.0,0.0,1.0,7.07317113876,2.25609779358,2.62195134163,1.0,0.0,0.0,0.0,1.0,0.0,0.0,0.0,1.0,0.866701000977,-4.94642062988,10.3333743652,1.0,0.0,0.0,0.0,1.0,0.0,0.0,0.0,1.0
1463993293055340102,382,1463993292971598480,,13.6148271561,-33.767742157,-53.5182304382,0.00120199995581,1.0,0.0,0.0,0.0,1.0,0.0,0.0,0.0,1.0,2.68292689323,-4.57317066193,-2.01219511032,1.0,0.0,0.0,0.0,1.0,0.0,0.0,0.0,1.0,-1.36469494629,-3.54341845703,10.7834842773,1.0,0.0,0.0,0.0,1.0,0.0,0.0,0.0,1.0
1463993293055775985,383,1463993292993674271,,13.5317287445,-33.5704917908,-53.5892868042,0.00264999992214,1.0,0.0,0.0,0.0,1.0,0.0,0.0,0.0,1.0,6.15853643417,-0.18292683363,-2.80487799644,1.0,0.0,0.0,0.0,1.0,0.0,0.0,0.0,1.0,-2.54264216309,-4.34308181152,9.13627353516,1.0,0.0,0.0,0.0,1.0,0.0,0.0,0.0,1.0
1463993293056061401,384,1463993293013822519,,13.3260307312,-33.3975372314,-53.6252784729,0.00163499999326,1.0,0.0,0.0,0.0,1.0,0.0,0.0,0.0,1.0,7.25609779358,-1.70731711388,2.62195134163,1.0,0.0,0.0,0.0,1.0,0.0,0.0,0.0,1.0,-0.138863696289,-2.66714064941,9.50498117534,1.0,0.0,0.0,0.0,1.0,0.0,0.0,0.0,1.0
1463993293076251418,385,1463993293037537001,,13.331114769,-33.2263946533,-53.6738395691,0.00508200004697,1.0,0.0,0.0,0.0,1.0,0.0,0.0,0.0,1.0,6.70731735229,1.2195122242,1.95121955872,1.0,0.0,0.0,0.0,1.0,0.0,0.0,0.0,1.0,-1.74776721191,-4.3239284905,10.5967365479,1.0,0.0,0.0,0.0,1.0,0.0,0.0,0.0,1.0
1463993293076705687,386,1463993293059456542,,13.2765846252,-33.1682777405,-53.7176818848,0.0017490000464,1.0,0.0,0.0,0.0,1.0,0.0,0.0,0.0,1.0,5.79268312454,-4.08536577225,1.34146344662,1.0,0.0,0.0,0.0,1.0,0.0,0.0,0.0,1.0,2.27449157715,-3.89297189941,8.87291135254,1.0,0.0,0.0,0.0,1.0,0.0,0.0,0.0,1.0
1463993293122175597,387,1463993293081987592,,13.1409330368,-33.140335083,-53.773765564,0.0031940001063,1.0,0.0,0.0,0.0,1.0,0.0,0.0,0.0,1.0,1.76829278469,-2.31707310677,2.5,1.0,0.0,0.0,0.0,1.0,0.0,0.0,0.0,1.0,2.22181914063,-4.79798041921,8.77714328613,1.0,0.0,0.0,0.0,1.0,0.0,0.0,0.0,1.0
1463993293123566216,388,1463993293102709326,,13.1161794662,-33.1082801819,-53.8252410889,0.00124100001995,1.0,0.0,0.0,0.0,1.0,0.0,0.0,0.0,1.0,-0.12195122242,1.03658533096,0.548780500889,1.0,0.0,0.0,0.0,1.0,0.0,0.0,0.0,1.0,4.31435168386,-5.97592734375,5.53060583496,1.0,0.0,0.0,0.0,1.0,0.0,0.0,0.0,1.0
1463993293479937192,389,1463993293123715330,,13.0549526215,-33.0768356323,-53.8640975952,0.00122700002976,1.0,0.0,0.0,0.0,1.0,0.0,0.0,0.0,1.0,-2.68292689323,1.15853655338,-0.609756112099,1.0,0.0,0.0,0.0,1.0,0.0,0.0,0.0,1.0,-0.679953271484,-3.73495458984,10.3046439453,1.0,0.0,0.0,0.0,1.0,0.0,0.0,0.0,1.0
1463993293481997965,390,1463993293145424456,,12.9700489044,-33.1653060913,-53.9076423645,0.00132799998391,1.0,0.0,0.0,0.0,1.0,0.0,0.0,0.0,1.0,-1.64634156227,-5.12195110321,5.85365867615,1.0,0.0,0.0,0.0,1.0,0.0,0.0,0.0,1.0,1.78128603516,-4.45800349121,10.4866032715,1.0,0.0,0.0,0.0,1.0,0.0,0.0,0.0,1.0
1463993293485846646,391,1463993293166153378,,13.0381669998,-33.2151222229,-54.0035934448,0.0015190000413,1.0,0.0,0.0,0.0,1.0,0.0,0.0,0.0,1.0,-0.0609756112099,7.31707334518,-3.17073178291,1.0,0.0,0.0,0.0,1.0,0.0,0.0,0.0,1.0,-2.35110588414,-2.97838686523,8.25999572754,1.0,0.0,0.0,0.0,1.0,0.0,0.0,0.0,1.0
1463993293486159405,392,1463993293187087351,,13.084526062,-33.2616920471,-54.1009750366,0.00120299996343,1.0,0.0,0.0,0.0,1.0,0.0,0.0,0.0,1.0,-7.98780536652,-2.07317066193,-1.03658533096,1.0,0.0,0.0,0.0,1.0,0.0,0.0,0.0,1.0,1.1875240965,-0.579396801758,9.16021555176,1.0,0.0,0.0,0.0,1.0,0.0,0.0,0.0,1.0
1463993293487328671,393,1463993293207965543,,13.0056467056,-33.4775390625,-54.2097740173,0.00122199999169,1.0,0.0,0.0,0.0,1.0,0.0,0.0,0.0,1.0,-6.21951246262,1.64634156227,-0.914634168148,1.0,0.0,0.0,0.0,1.0,0.0,0.0,0.0,1.0,-3.1124621582,-7.76200178223,6.50265170898,1.0,0.0,0.0,0.0,1.0,0.0,0.0,0.0,1.0
1463993293489745588,394,1463993293228869828,,13.0968732834,-33.5354804993,-54.3238601685,0.00116800004616,1.0,0.0,0.0,0.0,1.0,0.0,0.0,0.0,1.0,0.731707334518,5.85365867615,-3.17073178291,1.0,0.0,0.0,0.0,1.0,0.0,0.0,0.0,1.0,-3.63439812012,-3.76847341309,8.11634362793,1.0,0.0,0.0,0.0,1.0,0.0,0.0,0.0,1.0
1463993293489803504,395,1463993293249983696,,13.0325279236,-33.7638168335,-54.4590988159,0.00113700004295,1.0,0.0,0.0,0.0,1.0,0.0,0.0,0.0,1.0,-7.43902492523,4.87804889679,3.10975623131,1.0,0.0,0.0,0.0,1.0,0.0,0.0,0.0,1.0,-0.900219824219,-3.34230551758,10.2136642822,1.0,0.0,0.0,0.0,1.0,0.0,0.0,0.0,1.0
1463993293489844077,396,1463993293271240741,,13.0920667648,-33.7683486938,-54.5534172058,0.00115200004075,1.0,0.0,0.0,0.0,1.0,0.0,0.0,0.0,1.0,1.03658533096,6.28048801422,-0.487804889679,1.0,0.0,0.0,0.0,1.0,0.0,0.0,0.0,1.0,-4.24731403738,-2.57616098633,10.0412817627,1.0,0.0,0.0,0.0,1.0,0.0,0.0,0.0,1.0
1463993293489884077,397,1463993293292267891,,13.1992769241,-33.874382019,-54.6650238037,0.00128800002858,1.0,0.0,0.0,0.0,1.0,0.0,0.0,0.0,1.0,-3.53658556938,1.76829278469,-6.40243911743,1.0,0.0,0.0,0.0,1.0,0.0,0.0,0.0,1.0,-3.55778366699,-7.77636699219,7.42202514648,1.0,0.0,0.0,0.0,1.0,0.0,0.0,0.0,1.0
1463993293489920275,398,1463993293312744991,,13.3157787323,-33.9363174438,-54.7676467896,0.00120399997104,1.0,0.0,0.0,0.0,1.0,0.0,0.0,0.0,1.0,-3.59756112099,2.62195134163,1.2804877758,1.0,0.0,0.0,0.0,1.0,0.0,0.0,0.0,1.0,-4.99909306641,-5.81791003418,7.86734665527,1.0,0.0,0.0,0.0,1.0,0.0,0.0,0.0,1.0
1463993293493221719,399,1463993293334608699,,13.3754024506,-33.9721260071,-54.8787269592,0.00120399997104,1.0,0.0,0.0,0.0,1.0,0.0,0.0,0.0,1.0,-2.5,-0.731707334518,-4.69512224197,1.0,0.0,0.0,0.0,1.0,0.0,0.0,0.0,1.0,-0.450109912109,-3.00711728516,7.81467421875,1.0,0.0,0.0,0.0,1.0,0.0,0.0,0.0,1.0
1463993293496273529,400,1463993293356111524,,13.3544235229,-34.1120872498,-55.021697998,0.00154299999122,1.0,0.0,0.0,0.0,1.0,0.0,0.0,0.0,1.0,2.31707310677,9.45121955872,-5.30487823486,1.0,0.0,0.0,0.0,1.0,0.0,0.0,0.0,1.0,-0.450109912109,-6.12915625,6.62236179199,1.0,0.0,0.0,0.0,1.0,0.0,0.0,0.0,1.0
1463993293496363737,401,1463993293377177528,,13.3254680634,-34.1875610352,-55.0835952759,0.00115999998525,1.0,0.0,0.0,0.0,1.0,0.0,0.0,0.0,1.0,5.42682933807,3.53658556938,-1.8902438879,1.0,0.0,0.0,0.0,1.0,0.0,0.0,0.0,1.0,4.92247861328,-2.48039291992,7.26879624023,1.0,0.0,0.0,0.0,1.0,0.0,0.0,0.0,1.0
1463993293497368628,402,1463993293398450405,,13.4491949081,-34.1566581726,-55.1361351013,0.00115100003313,1.0,0.0,0.0,0.0,1.0,0.0,0.0,0.0,1.0,5.97560977936,-5.91463422775,3.7804877758,1.0,0.0,0.0,0.0,1.0,0.0,0.0,0.0,1.0,1.28329208984,-4.00310517578,11.2000753662,1.0,0.0,0.0,0.0,1.0,0.0,0.0,0.0,1.0
1463993293500151064,403,1463993293419318025,,13.4757995605,-34.0742912292,-55.1655158997,0.00127300003078,1.0,0.0,0.0,0.0,1.0,0.0,0.0,0.0,1.0,-2.98780488968,4.51219558716,0.18292683363,1.0,0.0,0.0,0.0,1.0,0.0,0.0,0.0,1.0,-5.74129558105,-3.16513459473,12.5168862793,1.0,0.0,0.0,0.0,1.0,0.0,0.0,0.0,1.0
1463993293501358820,404,1463993293440777777,,13.3546037674,-34.0227890015,-55.1924705505,0.00118400005158,1.0,0.0,0.0,0.0,1.0,0.0,0.0,0.0,1.0,2.92682933807,3.41463422775,5.67073154449,1.0,0.0,0.0,0.0,1.0,0.0,0.0,0.0,1.0,-2.14520483363,-4.29519807058,9.15542714844,1.0,0.0,0.0,0.0,1.0,0.0,0.0,0.0,1.0
1463993293506300465,405,1463993293461419459,,13.3870182037,-33.9952926636,-55.2646408081,0.00144499994349,1.0,0.0,0.0,0.0,1.0,0.0,0.0,0.0,1.0,2.13414645195,-1.40243899822,1.70731711388,1.0,0.0,0.0,0.0,1.0,0.0,0.0,0.0,1.0,-4.58250197754,-3.61524450684,11.6741272949,1.0,0.0,0.0,0.0,1.0,0.0,0.0,0.0,1.0
1463993293617906238,406,1463993293482491765,,13.276175499,-34.0086975098,-55.3627471924,0.00119400001131,1.0,0.0,0.0,0.0,1.0,0.0,0.0,0.0,1.0,-0.914634168148,1.40243899822,-1.46341466904,1.0,0.0,0.0,0.0,1.0,0.0,0.0,0.0,1.0,2.66714064941,-4.3622354248,6.5074401123,1.0,0.0,0.0,0.0,1.0,0.0,0.0,0.0,1.0
1463993293618257955,407,1463993293502943709,,13.3237142563,-33.8931083679,-55.3785209656,0.00114399997983,1.0,0.0,0.0,0.0,1.0,0.0,0.0,0.0,1.0,2.25609779358,7.98780536652,8.59756088257,1.0,0.0,0.0,0.0,1.0,0.0,0.0,0.0,1.0,-5.32470449219,-3.26569106445,11.8177793945,1.0,0.0,0.0,0.0,1.0,0.0,0.0,0.0,1.0
1463993293619692428,408,1463993293523564454,,13.2719955444,-33.903175354,-55.4462776184,0.00117099995259,1.0,0.0,0.0,0.0,1.0,0.0,0.0,0.0,1.0,4.45121955872,-11.2195119858,1.8292683363,1.0,0.0,0.0,0.0,1.0,0.0,0.0,0.0,1.0,-1.85311208496,-1.89141931152,9.53849999858,1.0,0.0,0.0,0.0,1.0,0.0,0.0,0.0,1.0
1463993293620025396,409,1463993293545047539,,13.1849079132,-33.9088020325,-55.5125617981,0.00118899997324,1.0,0.0,0.0,0.0,1.0,0.0,0.0,0.0,1.0,1.8292683363,6.09756088257,5.67073154449,1.0,0.0,0.0,0.0,1.0,0.0,0.0,0.0,1.0,3.58172568359,-3.94564433594,14.3173259277,1.0,0.0,0.0,0.0,1.0,0.0,0.0,0.0,1.0
1463993293620285134,410,1463993293565598389,,13.1895875931,-34.2229194641,-55.7248954773,0.00119700003415,1.0,0.0,0.0,0.0,1.0,0.0,0.0,0.0,1.0,0.792682945728,-2.07317066193,-1.70731711388,1.0,0.0,0.0,0.0,1.0,0.0,0.0,0.0,1.0,1.5083470459,-5.92804331055,2.37983659633,1.0,0.0,0.0,0.0,1.0,0.0,0.0,0.0,1.0
1463993293620546748,411,1463993293586176738,,13.329369545,-34.1178092957,-55.7978439331,0.00140700000338,1.0,0.0,0.0,0.0,1.0,0.0,0.0,0.0,1.0,-1.8292683363,5.0,7.86585378647,1.0,0.0,0.0,0.0,1.0,0.0,0.0,0.0,1.0,-3.49074602051,-1.1540052002,11.4299187256,1.0,0.0,0.0,0.0,1.0,0.0,0.0,0.0,1.0
1463993293880355324,412,1463993293607409720,,13.1228055954,-34.1600837708,-55.8948822021,0.00120299996343,1.0,0.0,0.0,0.0,1.0,0.0,0.0,0.0,1.0,-1.2804877758,-7.37804937363,2.25609779358,1.0,0.0,0.0,0.0,1.0,0.0,0.0,0.0,1.0,-1.54186586914,-5.35343491211,14.4657664307,1.0,0.0,0.0,0.0,1.0,0.0,0.0,0.0,1.0
1463993293880413605,413,1463993293629461918,,13.2589254379,-34.2014007568,-56.0103797913,0.00155399995856,1.0,0.0,0.0,0.0,1.0,0.0,0.0,0.0,1.0,-1.15853655338,3.90243911743,-2.31707310677,1.0,0.0,0.0,0.0,1.0,0.0,0.0,0.0,1.0,-4.89374819336,-3.53384165039,12.4594254395,1.0,0.0,0.0,0.0,1.0,0.0,0.0,0.0,1.0
1463993293880452095,414,1463993293650152090,,13.2073936462,-34.2387466431,-56.1372375488,0.00145800004248,1.0,0.0,0.0,0.0,1.0,0.0,0.0,0.0,1.0,-6.64634132385,-0.12195122242,0.914634168148,1.0,0.0,0.0,0.0,1.0,0.0,0.0,0.0,1.0,1.06302561017,-7.3549875,7.31189187012,1.0,0.0,0.0,0.0,1.0,0.0,0.0,0.0,1.0
1463993293880488761,415,1463993293671014136,,13.2468194962,-34.4218406677,-56.2763252258,0.00119900004938,1.0,0.0,0.0,0.0,1.0,0.0,0.0,0.0,1.0,0.914634168148,0.731707334518,8.29268264771,1.0,0.0,0.0,0.0,1.0,0.0,0.0,0.0,1.0,-1.72861359863,-1.00556469727,10.7882726807,1.0,0.0,0.0,0.0,1.0,0.0,0.0,0.0,1.0
1463993293885252803,416,1463993293692525554,,13.3775014877,-34.3903083801,-56.3843841553,0.00136400002521,1.0,0.0,0.0,0.0,1.0,0.0,0.0,0.0,1.0,2.86585378647,-1.64634156227,-2.62195134163,1.0,0.0,0.0,0.0,1.0,0.0,0.0,0.0,1.0,1.31202250977,-4.06535441895,14.6429373535,1.0,0.0,0.0,0.0,1.0,0.0,0.0,0.0,1.0
1463993293885359626,417,1463993293713166299,,13.4399271011,-34.2073745728,-56.389251709,0.00181499996688,1.0,0.0,0.0,0.0,1.0,0.0,0.0,0.0,1.0,5.67073154449,4.57317066193,2.74390244484,1.0,0.0,0.0,0.0,1.0,0.0,0.0,0.0,1.0,-0.325611425781,2.1930887207,9.47146118306,1.0,0.0,0.0,0.0,1.0,0.0,0.0,0.0,1.0
1463993293885409938,418,1463993293734391417,,13.388792038,-34.220703125,-56.4598236084,0.00115000002552,1.0,0.0,0.0,0.0,1.0,0.0,0.0,0.0,1.0,-7.68292665482,9.5731716156,1.95121955872,1.0,0.0,0.0,0.0,1.0,0.0,0.0,0.0,1.0,2.22181914063,-4.05098920898,5.32949289551,1.0,0.0,0.0,0.0,1.0,0.0,0.0,0.0,1.0
1463993293885453167,419,1463993293755095287,,13.4107046127,-34.0905342102,-56.4861831665,0.00115499994718,1.0,0.0,0.0,0.0,1.0,0.0,0.0,0.0,1.0,11.0365858078,1.58536589146,-7.86585378647,1.0,0.0,0.0,0.0,1.0,0.0,0.0,0.0,1.0,-0.435744702148,0.742202514648,6.35899960937,1.0,0.0,0.0,0.0,1.0,0.0,0.0,0.0,1.0
1463993293896415151,420,1463993293777018735,,13.2334384918,-34.009059906,-56.4328308105,0.00187499995809,1.0,0.0,0.0,0.0,1.0,0.0,0.0,0.0,1.0,2.80487799644,0.670731723309,3.90243911743,1.0,0.0,0.0,0.0,1.0,0.0,0.0,0.0,1.0,6.04775339355,-5.80833322754,11.5639940186,1.0,0.0,0.0,0.0,1.0,0.0,0.0,0.0,1.0
1463993293896456818,421,1463993293797907760,,13.1154241562,-33.8211936951,-56.4287109375,0.00119600002654,1.0,0.0,0.0,0.0,1.0,0.0,0.0,0.0,1.0,-1.46341466904,-8.96341514587,4.81707286835,1.0,0.0,0.0,0.0,1.0,0.0,0.0,0.0,1.0,-0.143652099609,-1.18273554705,12.3349269531,1.0,0.0,0.0,0.0,1.0,0.0,0.0,0.0,1.0
1463993293896496036,422,1463993293819402147,,12.8297185898,-33.7850952148,-56.4135932922,0.00115100003313,1.0,0.0,0.0,0.0,1.0,0.0,0.0,0.0,1.0,-2.80487799644,5.79268312454,1.8902438879,1.0,0.0,0.0,0.0,1.0,0.0,0.0,0.0,1.0,1.47961662598,-3.17471140137,9.82580361328,1.0,0.0,0.0,0.0,1.0,0.0,0.0,0.0,1.0
1463993293896630151,423,1463993293841017888,,12.9070901871,-33.611038208,-56.4403533936,0.00121899996884,1.0,0.0,0.0,0.0,1.0,0.0,0.0,0.0,1.0,-7.43902492523,11.7073173523,-0.914634168148,1.0,0.0,0.0,0.0,1.0,0.0,0.0,0.0,1.0,-3.68707055664,-7.15866296387,8.06367119141,1.0,0.0,0.0,0.0,1.0,0.0,0.0,0.0,1.0
1463993293900889403,424,1463993293861746289,,12.9332971573,-33.4858894348,-56.4498214722,0.00121400004718,1.0,0.0,0.0,0.0,1.0,0.0,0.0,0.0,1.0,-4.20731735229,-2.37804889679,7.43902492523,1.0,0.0,0.0,0.0,1.0,0.0,0.0,0.0,1.0,-10.2328178955,-3.47159240723,15.4090818848,1.0,0.0,0.0,0.0,1.0,0.0,0.0,0.0,1.0
1463993293966297353,425,1463993293882854011,,12.8609886169,-33.6185302734,-56.5529975891,0.00114399997983,1.0,0.0,0.0,0.0,1.0,0.0,0.0,0.0,1.0,-9.81707286835,9.32926845551,0.853658556938,1.0,0.0,0.0,0.0,1.0,0.0,0.0,0.0,1.0,-0.852335791016,-4.78361520925,10.912771167,1.0,0.0,0.0,0.0,1.0,0.0,0.0,0.0,1.0
1463993293966351259,426,1463993293903802724,,13.0284070969,-33.8668785095,-56.7290878296,0.00124600005802,1.0,0.0,0.0,0.0,1.0,0.0,0.0,0.0,1.0,-5.24390268326,9.63414573669,-0.792682945728,1.0,0.0,0.0,0.0,1.0,0.0,0.0,0.0,1.0,-4.22337143625,-7.14429775391,3.38540114746,1.0,0.0,0.0,0.0,1.0,0.0,0.0,0.0,1.0
1463993293966387509,427,1463993293924984665,,12.9571523666,-34.0495986938,-56.8297271729,0.00126299995463,1.0,0.0,0.0,0.0,1.0,0.0,0.0,0.0,1.0,-1.8292683363,7.68292665482,-1.15853655338,1.0,0.0,0.0,0.0,1.0,0.0,0.0,0.0,1.0,-2.88261879883,-5.53060583496,6.71334145508,1.0,0.0,0.0,0.0,1.0,0.0,0.0,0.0,1.0
1463993293966425738,428,1463993293944980725,,12.9599227905,-34.1833839417,-56.9105911255,0.0012009999482,1.0,0.0,0.0,0.0,1.0,0.0,0.0,0.0,1.0,-11.0365858078,8.17073154449,-6.89024400711,1.0,0.0,0.0,0.0,1.0,0.0,0.0,0.0,1.0,-0.196324536133,-4.39096584473,4.62559760742,1.0,0.0,0.0,0.0,1.0,0.0,0.0,0.0,1.0
1463993294038287409,429,1463993293971627017,,13.1496009827,-34.5779838562,-57.1826858521,0.00698800012469,1.0,0.0,0.0,0.0,1.0,0.0,0.0,0.0,1.0,-2.62195134163,6.15853643417,-1.8292683363,1.0,0.0,0.0,0.0,1.0,0.0,0.0,0.0,1.0,-3.40455476074,-3.73495458984,7.24006582031,1.0,0.0,0.0,0.0,1.0,0.0,0.0,0.0,1.0
1463993294038349336,430,1463993293992415470,,13.2992715836,-34.7454452515,-57.3268127441,0.0011930000037,1.0,0.0,0.0,0.0,1.0,0.0,0.0,0.0,1.0,-0.0609756112099,-4.81707286835,-1.15853655338,1.0,0.0,0.0,0.0,1.0,0.0,0.0,0.0,1.0,-6.04296499023,-4.55855996094,14.1928274414,1.0,0.0,0.0,0.0,1.0,0.0,0.0,0.0,1.0
1463993294038388138,431,1463993294013510172,,13.3296871185,-34.8333740234,-57.3971557617,0.00113099999726,1.0,0.0,0.0,0.0,1.0,0.0,0.0,0.0,1.0,-4.20731735229,-10.9756097794,2.25609779358,1.0,0.0,0.0,0.0,1.0,0.0,0.0,0.0,1.0,0.383072265625,-5.20020600586,18.0570700899,1.0,0.0,0.0,0.0,1.0,0.0,0.0,0.0,1.0
1463993294047993253,432,1463993294038971938,,13.2464666367,-35.0191421509,-57.527923584,0.00116800004616,1.0,0.0,0.0,0.0,1.0,0.0,0.0,0.0,1.0,-8.41463470459,0.914634168148,1.76829278469,1.0,0.0,0.0,0.0,1.0,0.0,0.0,0.0,1.0,1.58496149902,-0.440533105469,11.5352635986,1.0,0.0,0.0,0.0,1.0,0.0,0.0,0.0,1.0
1463993294057343474,433,1463993294055736710,,13.6902341843,-34.9439582825,-57.640083313,0.00184100004844,1.0,0.0,0.0,0.0,1.0,0.0,0.0,0.0,1.0,0.365853667259,0.975609779358,-1.34146344662,1.0,0.0,0.0,0.0,1.0,0.0,0.0,0.0,1.0,-1.21625444336,-6.77080229492,5.21457121582,1.0,0.0,0.0,0.0,1.0,0.0,0.0,0.0,1.0
1463993294086239236,434,1463993294076079748,,13.8020515442,-35.0610427856,-57.7379722595,0.00146900000982,1.0,0.0,0.0,0.0,1.0,0.0,0.0,0.0,1.0,1.09756100178,10.8536586761,-2.07317066193,1.0,0.0,0.0,0.0,1.0,0.0,0.0,0.0,1.0,0.134075302102,-2.54743056641,5.14753356934,1.0,0.0,0.0,0.0,1.0,0.0,0.0,0.0,1.0
1463993294134103406,435,1463993294096934867,,13.8598098755,-35.1355056763,-57.8542442322,0.00164300005417,1.0,0.0,0.0,0.0,1.0,0.0,0.0,0.0,1.0,8.23170757294,5.0,-3.10975623131,1.0,0.0,0.0,0.0,1.0,0.0,0.0,0.0,1.0,-5.35343491211,-1.84353527832,6.50265170898,1.0,0.0,0.0,0.0,1.0,0.0,0.0,0.0,1.0
1463993294134706112,436,1463993294118300244,,13.7073287964,-35.2237014771,-57.9786491394,0.00279200007208,1.0,0.0,0.0,0.0,1.0,0.0,0.0,0.0,1.0,3.23170733452,-12.3780488968,2.92682933807,1.0,0.0,0.0,0.0,1.0,0.0,0.0,0.0,1.0,3.30878669434,1.34554133301,18.2007221896,1.0,0.0,0.0,0.0,1.0,0.0,0.0,0.0,1.0
1463993294161752871,437,1463993294139032083,,13.8038196564,-35.2584991455,-58.083404541,0.00118400005158,1.0,0.0,0.0,0.0,1.0,0.0,0.0,0.0,1.0,-3.41463422775,2.07317066193,2.37804889679,1.0,0.0,0.0,0.0,1.0,0.0,0.0,0.0,1.0,-7.51779321289,-6.11479104004,14.5806881104,1.0,0.0,0.0,0.0,1.0,0.0,0.0,0.0,1.0
1463993294169840649,438,1463993294162508180,,13.7563018799,-35.2367019653,-58.2152709961,0.0040779998526,1.0,0.0,0.0,0.0,1.0,0.0,0.0,0.0,1.0,1.76829278469,2.68292689323,-1.40243899822,1.0,0.0,0.0,0.0,1.0,0.0,0.0,0.0,1.0,-0.962469067383,-4.78840361257,7.69017573242,1.0,0.0,0.0,0.0,1.0,0.0,0.0,0.0,1.0
1463993294208543921,439,1463993294182974551,,13.8237581253,-35.4497261047,-58.4143218994,0.00111299997661,1.0,0.0,0.0,0.0,1.0,0.0,0.0,0.0,1.0,6.28048801422,-8.84146404266,-3.47560977936,1.0,0.0,0.0,0.0,1.0,0.0,0.0,0.0,1.0,2.01112939453,-6.57447775879,12.7227876221,1.0,0.0,0.0,0.0,1.0,0.0,0.0,0.0,1.0
1463993294209173137,440,1463993294203923368,,13.7229375839,-35.397441864,-58.4657020569,0.00124300003517,1.0,0.0,0.0,0.0,1.0,0.0,0.0,0.0,1.0,-0.975609779358,7.56097555161,7.74390268326,1.0,0.0,0.0,0.0,1.0,0.0,0.0,0.0,1.0,1.95845695801,-1.65199914551,7.72848295898,1.0,0.0,0.0,0.0,1.0,0.0,0.0,0.0,1.0
1463993294231123043,441,1463993294224542394,,13.6658182144,-35.4846115112,-58.59948349,0.00119099998847,1.0,0.0,0.0,0.0,1.0,0.0,0.0,0.0,1.0,4.32926845551,20.3658542633,-9.63414573669,1.0,0.0,0.0,0.0,1.0,0.0,0.0,0.0,1.0,0.497993945312,-7.82903942871,-3.03105930176,1.0,0.0,0.0,0.0,1.0,0.0,0.0,0.0,1.0
1463993294272975260,442,1463993294245334597,,13.6218261719,-35.5722923279,-58.7094841003,0.00112999998964,1.0,0.0,0.0,0.0,1.0,0.0,0.0,0.0,1.0,5.24390268326,-9.45121955872,-2.5,1.0,0.0,0.0,0.0,1.0,0.0,0.0,0.0,1.0,-4.57771357422,-2.25054956055,13.737929126,1.0,0.0,0.0,0.0,1.0,0.0,0.0,0.0,1.0
1463993294276716390,443,1463993294266605912,,13.730594635,-35.6142959595,-58.8547210693,0.00141699996311,1.0,0.0,0.0,0.0,1.0,0.0,0.0,0.0,1.0,-2.5,1.03658533096,3.10975623131,1.0,0.0,0.0,0.0,1.0,0.0,0.0,0.0,1.0,1.56580788574,-3.9839515625,12.2583125,1.0,0.0,0.0,0.0,1.0,0.0,0.0,0.0,1.0
1463993294374552795,444,1463993294287747853,,13.7295465469,-35.5156936646,-58.9237632751,0.00153200002387,1.0,0.0,0.0,0.0,1.0,0.0,0.0,0.0,1.0,-3.41463422775,2.86585378647,-4.2682929039,1.0,0.0,0.0,0.0,1.0,0.0,0.0,0.0,1.0,1.82438166504,-0.948103857422,9.63426806499,1.0,0.0,0.0,0.0,1.0,0.0,0.0,0.0,1.0
1463993294374834929,445,1463993294308739222,,13.7345590591,-35.5729522705,-59.0843734741,0.00146699999459,1.0,0.0,0.0,0.0,1.0,0.0,0.0,0.0,1.0,-0.243902444839,-8.5365858078,-2.31707310677,1.0,0.0,0.0,0.0,1.0,0.0,0.0,0.0,1.0,1.62326872559,-4.5729251709,10.9510783936,1.0,0.0,0.0,0.0,1.0,0.0,0.0,0.0,1.0
1463993294375120344,446,1463993294330083245,,13.8014173508,-35.5830459595,-59.1373710632,0.00135399994906,1.0,0.0,0.0,0.0,1.0,0.0,0.0,0.0,1.0,-3.17073178291,12.3170728683,2.01219511032,1.0,0.0,0.0,0.0,1.0,0.0,0.0,0.0,1.0,2.10689731481,-7.3549875,0.138863696289,1.0,0.0,0.0,0.0,1.0,0.0,0.0,0.0,1.0
1463993294377896947,447,1463993294351363727,,13.6766080856,-35.7449531555,-59.21459198,0.00120499997865,1.0,0.0,0.0,0.0,1.0,0.0,0.0,0.0,1.0,-3.17073178291,-12.0731716156,-2.98780488968,1.0,0.0,0.0,0.0,1.0,0.0,0.0,0.0,1.0,9.43794235981,-0.737414111328,14.9685487793,1.0,0.0,0.0,0.0,1.0,0.0,0.0,0.0,1.0
1463993294443158387,448,1463993294372597074,,13.6689338684,-35.8332252502,-59.3353691101,0.00115000002552,1.0,0.0,0.0,0.0,1.0,0.0,0.0,0.0,1.0,3.17073178291,14.5731706619,-2.37804889679,1.0,0.0,0.0,0.0,1.0,0.0,0.0,0.0,1.0,-2.7341782959,-5.76523759766,-0.00478840332031,1.0,0.0,0.0,0.0,1.0,0.0,0.0,0.0,1.0
1463993294443416042,449,1463993294398138058,,13.4487905502,-35.8249130249,-59.4045906067,0.0049149999395,1.0,0.0,0.0,0.0,1.0,0.0,0.0,0.0,1.0,4.2682929039,-3.96341490746,2.25609779358,1.0,0.0,0.0,0.0,1.0,0.0,0.0,0.0,1.0,6.34942280273,-0.866701000977,8.98783303223,1.0,0.0,0.0,0.0,1.0,0.0,0.0,0.0,1.0
1463993294447139724,450,1463993294417863860,,13.1027078629,-35.9256515503,-59.4155921936,0.00157600000966,1.0,0.0,0.0,0.0,1.0,0.0,0.0,0.0,1.0,-9.02439117432,9.02439117432,-4.2682929039,1.0,0.0,0.0,0.0,1.0,0.0,0.0,0.0,1.0,-10.793061084,-6.92403120117,11.5496288086,1.0,0.0,0.0,0.0,1.0,0.0,0.0,0.0,1.0
1463993294448717061,451,1463993294438785853,,13.0567598343,-35.8953208923,-59.4944152832,0.00161799998023,1.0,0.0,0.0,0.0,1.0,0.0,0.0,0.0,1.0,0.853658556938,-4.14634132385,3.84146332741,1.0,0.0,0.0,0.0,1.0,0.0,0.0,0.0,1.0,-1.19710090314,-0.732625708008,13.0675526611,1.0,0.0,0.0,0.0,1.0,0.0,0.0,0.0,1.0
1463993294493858847,452,1463993294460165137,,13.2904376984,-35.8386650085,-59.551700592,0.00143399997614,1.0,0.0,0.0,0.0,1.0,0.0,0.0,0.0,1.0,-3.35365867615,6.58536624908,6.21951246262,1.0,0.0,0.0,0.0,1.0,0.0,0.0,0.0,1.0,2.52827695312,-1.03908344744,7.22091220703,1.0,0.0,0.0,0.0,1.0,0.0,0.0,0.0,1.0
1463993294494111606,453,1463993294481240776,,13.3596448898,-36.2206764221,-59.8017311096,0.00145600002725,1.0,0.0,0.0,0.0,1.0,0.0,0.0,0.0,1.0,-3.65853667259,-6.52439069748,-4.02439022064,1.0,0.0,0.0,0.0,1.0,0.0,0.0,0.0,1.0,3.38061274414,-1.54186586914,12.0859299805,1.0,0.0,0.0,0.0,1.0,0.0,0.0,0.0,1.0
1463993294529370362,454,1463993294501880323,,13.4461603165,-36.1445884705,-59.897064209,0.00135999999475,1.0,0.0,0.0,0.0,1.0,0.0,0.0,0.0,1.0,1.2195122242,16.6463413239,-4.39024400711,1.0,0.0,0.0,0.0,1.0,0.0,0.0,0.0,1.0,2.64798703613,-6.74686027832,4.55855996094,1.0,0.0,0.0,0.0,1.0,0.0,0.0,0.0,1.0
1463993294529658954,455,1463993294522572526,,13.3188476562,-36.1451873779,-59.9315795898,0.00136200000998,1.0,0.0,0.0,0.0,1.0,0.0,0.0,0.0,1.0,-10.4878053665,7.62195110321,3.7804877758,1.0,0.0,0.0,0.0,1.0,0.0,0.0,0.0,1.0,4.69263496165,-6.65109221191,8.31745598286,1.0,0.0,0.0,0.0,1.0,0.0,0.0,0.0,1.0
1463993294577549531,456,1463993294544165507,,13.0695724487,-36.2063980103,-60.0731506348,0.00123699998949,1.0,0.0,0.0,0.0,1.0,0.0,0.0,0.0,1.0,-5.0,-2.37804889679,-0.914634168148,1.0,0.0,0.0,0.0,1.0,0.0,0.0,0.0,1.0,3.9600095459,-3.94085593262,14.0156565186,1.0,0.0,0.0,0.0,1.0,0.0,0.0,0.0,1.0
1463993294578338903,457,1463993294569799929,,13.239235878,-36.1650733948,-60.2322006226,0.00112499995157,1.0,0.0,0.0,0.0,1.0,0.0,0.0,0.0,1.0,-1.15853655338,4.32926845551,3.23170733452,1.0,0.0,0.0,0.0,1.0,0.0,0.0,0.0,1.0,-0.316034619141,-4.55377155762,7.70454094238,1.0,0.0,0.0,0.0,1.0,0.0,0.0,0.0,1.0
1463993294600274955,458,1463993294585777829,,12.9803028107,-36.0510101318,-60.2356033325,0.00113800005056,1.0,0.0,0.0,0.0,1.0,0.0,0.0,0.0,1.0,-3.29268312454,-4.69512224197,2.68292689323,1.0,0.0,0.0,0.0,1.0,0.0,0.0,0.0,1.0,-4.16591059641,-3.89776030273,18.1288949707,1.0,0.0,0.0,0.0,1.0,0.0,0.0,0.0,1.0
1463993294716678467,459,1463993294607047530,,13.1648283005,-36.3335533142,-60.530292511,0.0011340000201,1.0,0.0,0.0,0.0,1.0,0.0,0.0,0.0,1.0,5.79268312454,-0.243902444839,0.426829278469,1.0,0.0,0.0,0.0,1.0,0.0,0.0,0.0,1.0,1.99676418457,-6.21534750977,3.85945307617,1.0,0.0,0.0,0.0,1.0,0.0,0.0,0.0,1.0
1463993294717038205,460,1463993294627718171,,13.2061929703,-36.3511924744,-60.6461524963,0.00115899997763,1.0,0.0,0.0,0.0,1.0,0.0,0.0,0.0,1.0,3.29268312454,10.548781395,4.69512224197,1.0,0.0,0.0,0.0,1.0,0.0,0.0,0.0,1.0,-0.344765039063,-7.64229169922,3.20344182129,1.0,0.0,0.0,0.0,1.0,0.0,0.0,0.0,1.0
1463993294717307996,461,1463993294648619748,,13.1786727905,-36.6591415405,-60.8009986877,0.00129899999592,1.0,0.0,0.0,0.0,1.0,0.0,0.0,0.0,1.0,1.64634156227,0.975609779358,-1.34146344662,1.0,0.0,0.0,0.0,1.0,0.0,0.0,0.0,1.0,-4.58729038086,-6.22492431641,9.40442353657,1.0,0.0,0.0,0.0,1.0,0.0,0.0,0.0,1.0
1463993294717583203,462,1463993294670062625,,13.1950063705,-36.8507347107,-60.9942054749,0.00115999998525,1.0,0.0,0.0,0.0,1.0,0.0,0.0,0.0,1.0,2.56097555161,6.82926845551,-0.914634168148,1.0,0.0,0.0,0.0,1.0,0.0,0.0,0.0,1.0,0.521935925381,-6.6941878418,-0.191536132812,1.0,0.0,0.0,0.0,1.0,0.0,0.0,0.0,1.0
1463993294767131481,463,1463993294691272743,,13.1141910553,-36.8875732422,-61.0361709595,0.00114499998745,1.0,0.0,0.0,0.0,1.0,0.0,0.0,0.0,1.0,-3.23170733452,-5.06097555161,-2.37804889679,1.0,0.0,0.0,0.0,1.0,0.0,0.0,0.0,1.0,-4.93684382324,-4.51067592773,18.4592947998,1.0,0.0,0.0,0.0,1.0,0.0,0.0,0.0,1.0
1463993294767304761,464,1463993294712042758,,13.0156583786,-37.0251808167,-61.2229499817,0.00114499998745,1.0,0.0,0.0,0.0,1.0,0.0,0.0,0.0,1.0,2.01219511032,-1.2804877758,-2.62195134163,1.0,0.0,0.0,0.0,1.0,0.0,0.0,0.0,1.0,-3.51468803711,-2.39899020961,11.3389390625,1.0,0.0,0.0,0.0,1.0,0.0,0.0,0.0,1.0
1463993294767404969,465,1463993294733103241,,13.0804748535,-37.09167099,-61.3286437988,0.00104100001045,1.0,0.0,0.0,0.0,1.0,0.0,0.0,0.0,1.0,3.04878044128,-4.20731735229,2.74390244484,1.0,0.0,0.0,0.0,1.0,0.0,0.0,0.0,1.0,-1.95845695801,-7.14429775391,9.46188437642,1.0,0.0,0.0,0.0,1.0,0.0,0.0,0.0,1.0
1463993294767540594,466,1463993294754681638,,13.0842533112,-37.1064033508,-61.4183807373,0.00110100000165,1.0,0.0,0.0,0.0,1.0,0.0,0.0,0.0,1.0,-8.71951198578,0.914634168148,-1.03658533096,1.0,0.0,0.0,0.0,1.0,0.0,0.0,0.0,1.0,5.24809003906,-6.51701691895,5.5880666748,1.0,0.0,0.0,0.0,1.0,0.0,0.0,0.0,1.0
1463993294887678518,467,1463993294775486237,,13.1944141388,-37.1224555969,-61.5472106934,0.00112399994396,1.0,0.0,0.0,0.0,1.0,0.0,0.0,0.0,1.0,-4.93902444839,-1.46341466904,2.68292689323,1.0,0.0,0.0,0.0,1.0,0.0,0.0,0.0,1.0,-6.33505759277,-1.32159931641,8.57124252788,1.0,0.0,0.0,0.0,1.0,0.0,0.0,0.0,1.0
1463993294887716851,468,1463993294796250158,,13.2443819046,-36.987613678,-61.5376319885,0.00168999994639,1.0,0.0,0.0,0.0,1.0,0.0,0.0,0.0,1.0,-5.24390268326,-3.10975623131,1.2804877758,1.0,0.0,0.0,0.0,1.0,0.0,0.0,0.0,1.0,5.61200869141,-4.9272670166,9.38526992329,1.0,0.0,0.0,0.0,1.0,0.0,0.0,0.0,1.0
1463993294893524743,469,1463993294816968403,,13.2508163452,-37.2151260376,-61.6977500916,0.00119600002654,1.0,0.0,0.0,0.0,1.0,0.0,0.0,0.0,1.0,-8.17073154449,-4.69512224197,-0.792682945728,1.0,0.0,0.0,0.0,1.0,0.0,0.0,0.0,1.0,-1.35990654297,-4.34308181152,9.35653950337,1.0,0.0,0.0,0.0,1.0,0.0,0.0,0.0,1.0
1463993294893603753,470,1463993294837410191,,13.2204046249,-37.1620330811,-61.7732925415,0.00118899997324,1.0,0.0,0.0,0.0,1.0,0.0,0.0,0.0,1.0,-5.30487823486,-10.2439022064,7.50000047684,1.0,0.0,0.0,0.0,1.0,0.0,0.0,0.0,1.0,7.7093293457,-5.31033928223,9.15542714844,1.0,0.0,0.0,0.0,1.0,0.0,0.0,0.0,1.0
1463993294893643284,471,1463993294858621454,,13.2496185303,-37.1323204041,-61.798084259,0.00115899997763,1.0,0.0,0.0,0.0,1.0,0.0,0.0,0.0,1.0,-5.73170757294,6.70731735229,-1.03658533096,1.0,0.0,0.0,0.0,1.0,0.0,0.0,0.0,1.0,-1.05823706072,-5.65031591797,9.35175110005,1.0,0.0,0.0,0.0,1.0,0.0,0.0,0.0,1.0
1463993294893961303,472,1463993294879266418,,13.3990039825,-37.2348365784,-61.9143829346,0.00116700003855,1.0,0.0,0.0,0.0,1.0,0.0,0.0,0.0,1.0,-3.41463422775,-2.98780488968,1.95121955872,1.0,0.0,0.0,0.0,1.0,0.0,0.0,0.0,1.0,-2.64798703613,-9.33259748677,8.48505126812,1.0,0.0,0.0,0.0,1.0,0.0,0.0,0.0,1.0
1463993294989194073,473,1463993294899981798,,13.4304771423,-37.1014900208,-61.9390411377,0.00115599995479,1.0,0.0,0.0,0.0,1.0,0.0,0.0,0.0,1.0,-5.06097555161,-4.2682929039,8.04878044128,1.0,0.0,0.0,0.0,1.0,0.0,0.0,0.0,1.0,0.995987890625,-7.92480749512,9.96945571289,1.0,0.0,0.0,0.0,1.0,0.0,0.0,0.0,1.0
1463993294989240896,474,1463993294921035198,,13.3758945465,-37.004737854,-61.9825744629,0.00107899995055,1.0,0.0,0.0,0.0,1.0,0.0,0.0,0.0,1.0,-3.35365867615,4.39024400711,-3.41463422775,1.0,0.0,0.0,0.0,1.0,0.0,0.0,0.0,1.0,-5.93762011719,-6.37815322266,4.42448466797,1.0,0.0,0.0,0.0,1.0,0.0,0.0,0.0,1.0
1463993294989552405,475,1463993294942038650,,13.3375740051,-36.9850921631,-62.0918006897,0.00117599999066,1.0,0.0,0.0,0.0,1.0,0.0,0.0,0.0,1.0,4.87804889679,3.59756112099,-2.80487799644,1.0,0.0,0.0,0.0,1.0,0.0,0.0,0.0,1.0,4.61123239746,-4.55855996094,-1.19231249982,1.0,0.0,0.0,0.0,1.0,0.0,0.0,0.0,1.0
1463993294989620634,476,1463993294963745588,,13.2141532898,-37.0266876221,-62.1531867981,0.00119099998847,1.0,0.0,0.0,0.0,1.0,0.0,0.0,0.0,1.0,6.21951246262,10.0609760284,-2.80487799644,1.0,0.0,0.0,0.0,1.0,0.0,0.0,0.0,1.0,-3.55778366699,-0.962469067383,6.13394465332,1.0,0.0,0.0,0.0,1.0,0.0,0.0,0.0,1.0
1463993294989661467,477,1463993294984694301,,13.3889513016,-37.189125061,-62.3076858521,0.00116300000809,1.0,0.0,0.0,0.0,1.0,0.0,0.0,0.0,1.0,5.42682933807,7.13414621353,0.365853667259,1.0,0.0,0.0,0.0,1.0,0.0,0.0,0.0,1.0,-3.78762702637,-4.13239206543,5.55933625488,1.0,0.0,0.0,0.0,1.0,0.0,0.0,0.0,1.0
1463993295055528373,478,1463993295006635405,,13.5091943741,-36.9962692261,-62.3473243713,0.00147000001743,1.0,0.0,0.0,0.0,1.0,0.0,0.0,0.0,1.0,4.81707286835,-9.14634132385,2.5,1.0,0.0,0.0,0.0,1.0,0.0,0.0,0.0,1.0,-0.335188232422,-5.1858407959,17.5542865723,1.0,0.0,0.0,0.0,1.0,0.0,0.0,0.0,1.0
1463993295056108891,479,1463993295027513232,,13.3660087585,-36.9285049438,-62.4686317444,0.00116999994498,1.0,0.0,0.0,0.0,1.0,0.0,0.0,0.0,1.0,0.0,-14.2682924271,-4.14634132385,1.0,0.0,0.0,0.0,1.0,0.0,0.0,0.0,1.0,8.48983967144,-4.52025273438,12.2343704834,1.0,0.0,0.0,0.0,1.0,0.0,0.0,0.0,1.0
1463993295057400344,480,1463993295048224081,,13.4791259766,-36.8453865051,-62.5759925842,0.00113999994937,1.0,0.0,0.0,0.0,1.0,0.0,0.0,0.0,1.0,1.46341466904,-13.7195129395,3.47560977936,1.0,0.0,0.0,0.0,1.0,0.0,0.0,0.0,1.0,-4.16112219309,-4.88895979004,17.6309010254,1.0,0.0,0.0,0.0,1.0,0.0,0.0,0.0,1.0
1463993295121154915,481,1463993295068515505,,13.4672498703,-36.775806427,-62.6336746216,0.00109899998643,1.0,0.0,0.0,0.0,1.0,0.0,0.0,0.0,1.0,1.52439022064,-12.8658542633,1.8902438879,1.0,0.0,0.0,0.0,1.0,0.0,0.0,0.0,1.0,-3.66312854004,-4.82192243582,20.5949226807,1.0,0.0,0.0,0.0,1.0,0.0,0.0,0.0,1.0
1463993295121188665,482,1463993295089247135,,13.4850406647,-36.9494285583,-62.8159866333,0.00120699999388,1.0,0.0,0.0,0.0,1.0,0.0,0.0,0.0,1.0,3.35365867615,-9.32926845551,0.304878056049,1.0,0.0,0.0,0.0,1.0,0.0,0.0,0.0,1.0,4.34787021484,-3.26090266113,8.83460412598,1.0,0.0,0.0,0.0,1.0,0.0,0.0,0.0,1.0
1463993295123032772,483,1463993295109758506,,13.6305093765,-36.7051315308,-62.8186569214,0.00117599999066,1.0,0.0,0.0,0.0,1.0,0.0,0.0,0.0,1.0,2.01219511032,-7.98780536652,5.0,1.0,0.0,0.0,0.0,1.0,0.0,0.0,0.0,1.0,1.26892687988,-3.31357509766,13.4937205566,1.0,0.0,0.0,0.0,1.0,0.0,0.0,0.0,1.0
1463993295174130210,484,1463993295130713416,,13.5613365173,-36.6761741638,-62.8994178772,0.00116900005378,1.0,0.0,0.0,0.0,1.0,0.0,0.0,0.0,1.0,-0.18292683363,0.792682945728,-2.86585378647,1.0,0.0,0.0,0.0,1.0,0.0,0.0,0.0,1.0,-3.87381828613,-6.97191523437,8.69574042969,1.0,0.0,0.0,0.0,1.0,0.0,0.0,0.0,1.0
1463993295175756921,485,1463993295151087496,,13.3586750031,-36.5869178772,-62.9344329834,0.00110100000165,1.0,0.0,0.0,0.0,1.0,0.0,0.0,0.0,1.0,4.20731735229,-2.25609779358,-2.56097555161,1.0,0.0,0.0,0.0,1.0,0.0,0.0,0.0,1.0,0.809240161133,-2.09732050817,8.8154505127,1.0,0.0,0.0,0.0,1.0,0.0,0.0,0.0,1.0
1463993295176608636,486,1463993295172182562,,13.2606172562,-36.4840431213,-62.9466133118,0.00168700003996,1.0,0.0,0.0,0.0,1.0,0.0,0.0,0.0,1.0,-5.36585378647,7.07317113876,5.06097555161,1.0,0.0,0.0,0.0,1.0,0.0,0.0,0.0,1.0,4.15154538645,-10.8744639404,1.41736738281,1.0,0.0,0.0,0.0,1.0,0.0,0.0,0.0,1.0
1463993295791822100,487,1463993295193145024,,13.1274414062,-36.7922286987,-63.1328849792,0.00110300001688,1.0,0.0,0.0,0.0,1.0,0.0,0.0,0.0,1.0,-1.64634156227,7.25609779358,2.74390244484,1.0,0.0,0.0,0.0,1.0,0.0,0.0,0.0,1.0,-1.75255561523,-5.31033928223,1.08696755371,1.0,0.0,0.0,0.0,1.0,0.0,0.0,0.0,1.0
1463993295791921787,488,1463993295213929623,,13.0611619949,-36.9840126038,-63.2318687439,0.00116400001571,1.0,0.0,0.0,0.0,1.0,0.0,0.0,0.0,1.0,7.07317113876,7.68292665482,4.81707286835,1.0,0.0,0.0,0.0,1.0,0.0,0.0,0.0,1.0,-5.67904633789,-2.97359846191,12.9382657715,1.0,0.0,0.0,0.0,1.0,0.0,0.0,0.0,1.0
1463993295792181005,489,1463993295235975414,,12.9534511566,-37.1998176575,-63.3348121643,0.00177299999632,1.0,0.0,0.0,0.0,1.0,0.0,0.0,0.0,1.0,0.365853667259,-9.39024448395,-2.62195134163,1.0,0.0,0.0,0.0,1.0,0.0,0.0,0.0,1.0,5.80833322754,-5.67904633789,8.25999572754,1.0,0.0,0.0,0.0,1.0,0.0,0.0,0.0,1.0
1463993295792240536,490,1463993295256373191,,13.0194597244,-37.2021179199,-63.4669456482,0.00158699997701,1.0,0.0,0.0,0.0,1.0,0.0,0.0,0.0,1.0,1.58536589146,-5.91463422775,-0.12195122242,1.0,0.0,0.0,0.0,1.0,0.0,0.0,0.0,1.0,-5.11880314941,-6.04296499023,11.2431709961,1.0,0.0,0.0,0.0,1.0,0.0,0.0,0.0,1.0
1463993295792280275,491,1463993295277034405,,13.061047554,-37.1119651794,-63.4773406982,0.00201399996877,1.0,0.0,0.0,0.0,1.0,0.0,0.0,0.0,1.0,-5.60975599289,5.54878091812,2.86585378647,1.0,0.0,0.0,0.0,1.0,0.0,0.0,0.0,1.0,-3.45722719727,-8.45631967915,5.89931289062,1.0,0.0,0.0,0.0,1.0,0.0,0.0,0.0,1.0
1463993295792577305,492,1463993295298214992,,13.1090631485,-37.1556777954,-63.6291503906,0.00114299997222,1.0,0.0,0.0,0.0,1.0,0.0,0.0,0.0,1.0,9.69512176514,8.10975551605,-4.2682929039,1.0,0.0,0.0,0.0,1.0,0.0,0.0,0.0,1.0,-5.4683565918,-4.10845004883,1.7908628418,1.0,0.0,0.0,0.0,1.0,0.0,0.0,0.0,1.0
1463993295795034534,493,1463993295319750004,,12.954826355,-37.0723152161,-63.633190155,0.00120900000911,1.0,0.0,0.0,0.0,1.0,0.0,0.0,0.0,1.0,4.08536577225,-0.304878056049,4.57317066193,1.0,0.0,0.0,0.0,1.0,0.0,0.0,0.0,1.0,3.94564433594,-1.59453830566,13.1728975342,1.0,0.0,0.0,0.0,1.0,0.0,0.0,0.0,1.0
1463993295795091357,494,1463993295340934653,,12.9312772751,-37.1057395935,-63.7654571533,0.00119500001892,1.0,0.0,0.0,0.0,1.0,0.0,0.0,0.0,1.0,1.03658533096,-0.365853667259,-2.56097555161,1.0,0.0,0.0,0.0,1.0,0.0,0.0,0.0,1.0,-1.04866025408,-8.66701059429,3.73974299316,1.0,0.0,0.0,0.0,1.0,0.0,0.0,0.0,1.0
1463993295795395210,495,1463993295361959979,,12.9267311096,-37.0657501221,-63.8771438599,0.00119400001131,1.0,0.0,0.0,0.0,1.0,0.0,0.0,0.0,1.0,19.3902435303,15.6707315445,-1.2804877758,1.0,0.0,0.0,0.0,1.0,0.0,0.0,0.0,1.0,-7.04374128418,-6.16267507324,1.92014973145,1.0,0.0,0.0,0.0,1.0,0.0,0.0,0.0,1.0
1463993295798327645,496,1463993295382624266,,12.9260454178,-37.0298843384,-63.8863296509,0.00117800000589,1.0,0.0,0.0,0.0,1.0,0.0,0.0,0.0,1.0,11.5853662491,4.81707286835,-5.06097555161,1.0,0.0,0.0,0.0,1.0,0.0,0.0,0.0,1.0,-2.11168571813,1.08217922346,14.709975,1.0,0.0,0.0,0.0,1.0,0.0,0.0,0.0,1.0
1463993295798387749,497,1463993295404375319,,12.8648433685,-37.1212730408,-64.0558319092,0.00139400002081,1.0,0.0,0.0,0.0,1.0,0.0,0.0,0.0,1.0,4.87804889679,-10.3658542633,0.670731723309,1.0,0.0,0.0,0.0,1.0,0.0,0.0,0.0,1.0,1.82917006836,-5.79396801758,6.78037910156,1.0,0.0,0.0,0.0,1.0,0.0,0.0,0.0,1.0
1463993295798434155,498,1463993295426255017,,12.7803506851,-36.9551124573,-64.0661849976,0.0011930000037,1.0,0.0,0.0,0.0,1.0,0.0,0.0,0.0,1.0,5.36585378647,0.243902444839,-0.914634168148,1.0,0.0,0.0,0.0,1.0,0.0,0.0,0.0,1.0,1.72382519531,-3.19865341797,14.7626474365,1.0,0.0,0.0,0.0,1.0,0.0,0.0,0.0,1.0
1463993295798504050,499,1463993295445939933,,12.7387552261,-37.1375732422,-64.2579650879,0.0014969999902,1.0,0.0,0.0,0.0,1.0,0.0,0.0,0.0,1.0,5.73170757294,-8.65853691101,-6.40243911743,1.0,0.0,0.0,0.0,1.0,0.0,0.0,0.0,1.0,-4.97036264648,-5.96635053711,16.2901480957,1.0,0.0,0.0,0.0,1.0,0.0,0.0,0.0,1.0
1463993295800010711,500,1463993295466357554,,12.8319673538,-36.9805221558,-64.3140640259,0.00153600005433,1.0,0.0,0.0,0.0,1.0,0.0,0.0,0.0,1.0,-0.0609756112099,-5.06097555161,3.71951246262,1.0,0.0,0.0,0.0,1.0,0.0,0.0,0.0,1.0,-1.37906015625,-2.57137258301,12.3397153564,1.0,0.0,0.0,0.0,1.0,0.0,0.0,0.0,1.0
1463993295800062794,501,1463993295487740067,,12.7416381836,-37.1972045898,-64.5045318604,0.00114599999506,1.0,0.0,0.0,0.0,1.0,0.0,0.0,0.0,1.0,-2.25609779358,8.90243911743,-4.08536577225,1.0,0.0,0.0,0.0,1.0,0.0,0.0,0.0,1.0,-5.05655390625,-4.34787021484,13.9869260986,1.0,0.0,0.0,0.0,1.0,0.0,0.0,0.0,1.0
1463993295800109981,502,1463993295509606484,,12.8958053589,-37.2990989685,-64.6598510742,0.00168400001712,1.0,0.0,0.0,0.0,1.0,0.0,0.0,0.0,1.0,-6.7682929039,-6.21951246262,0.365853667259,1.0,0.0,0.0,0.0,1.0,0.0,0.0,0.0,1.0,-6.35899960937,-4.52025273438,10.0029745361,1.0,0.0,0.0,0.0,1.0,0.0,0.0,0.0,1.0
1463993295800539615,503,1463993295530894153,,13.0487833023,-37.245880127,-64.7526550293,0.00120399997104,1.0,0.0,0.0,0.0,1.0,0.0,0.0,0.0,1.0,4.32926845551,10.2439022064,-9.20731735229,1.0,0.0,0.0,0.0,1.0,0.0,0.0,0.0,1.0,-8.26957253418,-0.105344873047,6.5074401123,1.0,0.0,0.0,0.0,1.0,0.0,0.0,0.0,1.0
1463993295800587271,504,1463993295552019271,,13.1204977036,-37.422000885,-64.9528427124,0.00118200003635,1.0,0.0,0.0,0.0,1.0,0.0,0.0,0.0,1.0,-3.35365867615,-4.69512224197,-5.48780488968,1.0,0.0,0.0,0.0,1.0,0.0,0.0,0.0,1.0,-1.18273554705,-7.46512077637,16.7067391846,1.0,0.0,0.0,0.0,1.0,0.0,0.0,0.0,1.0
1463993295801878671,505,1463993295572761318,,13.1191883087,-37.3086776733,-65.0305709839,0.00118699995801,1.0,0.0,0.0,0.0,1.0,0.0,0.0,0.0,1.0,-8.04878044128,12.1951217651,3.7804877758,1.0,0.0,0.0,0.0,1.0,0.0,0.0,0.0,1.0,4.99430466309,-1.24498486328,7.88171186523,1.0,0.0,0.0,0.0,1.0,0.0,0.0,0.0,1.0
1463993295802169504,506,1463993295594874088,,13.1606197357,-37.5416526794,-65.2853164673,0.0011569999624,1.0,0.0,0.0,0.0,1.0,0.0,0.0,0.0,1.0,-7.80487823486,-5.79268312454,-6.89024400711,1.0,0.0,0.0,0.0,1.0,0.0,0.0,0.0,1.0,1.95366855469,-5.06134230957,8.45631967915,1.0,0.0,0.0,0.0,1.0,0.0,0.0,0.0,1.0
1463993295802529502,507,1463993295615361709,,13.2627639771,-37.4171867371,-65.368888855,0.00118999998085,1.0,0.0,0.0,0.0,1.0,0.0,0.0,0.0,1.0,6.15853643417,16.6463413239,-0.12195122242,1.0,0.0,0.0,0.0,1.0,0.0,0.0,0.0,1.0,-4.55855996094,-3.01190568848,8.58560773784,1.0,0.0,0.0,0.0,1.0,0.0,0.0,0.0,1.0
1463993295802574398,508,1463993295636073860,,13.2606096268,-37.6529312134,-65.5385818481,0.00158999999985,1.0,0.0,0.0,0.0,1.0,0.0,0.0,0.0,1.0,-1.40243899822,-2.25609779358,-1.58536589146,1.0,0.0,0.0,0.0,1.0,0.0,0.0,0.0,1.0,3.56736047363,-4.6208092041,11.540052002,1.0,0.0,0.0,0.0,1.0,0.0,0.0,0.0,1.0
1463993295808170728,509,1463993295656976322,,13.2328586578,-37.7643814087,-65.7538070679,0.00115999998525,1.0,0.0,0.0,0.0,1.0,0.0,0.0,0.0,1.0,2.13414645195,4.14634132385,2.07317066193,1.0,0.0,0.0,0.0,1.0,0.0,0.0,0.0,1.0,-1.48919343262,-3.52905324707,7.38850632324,1.0,0.0,0.0,0.0,1.0,0.0,0.0,0.0,1.0
1463993295808611872,510,1463993295678111649,,13.2704811096,-37.7812576294,-65.830657959,0.00113300001249,1.0,0.0,0.0,0.0,1.0,0.0,0.0,0.0,1.0,-0.487804889679,2.68292689323,-1.52439022064,1.0,0.0,0.0,0.0,1.0,0.0,0.0,0.0,1.0,2.8299463623,-4.18985261301,7.52737001953,1.0,0.0,0.0,0.0,1.0,0.0,0.0,0.0,1.0
1463993295808659059,511,1463993295699440099,,13.1645793915,-37.8401374817,-65.9937820435,0.00116900005378,1.0,0.0,0.0,0.0,1.0,0.0,0.0,0.0,1.0,4.32926845551,4.69512224197,1.03658533096,1.0,0.0,0.0,0.0,1.0,0.0,0.0,0.0,1.0,-1.35990654297,-1.50355864258,7.04374128418,1.0,0.0,0.0,0.0,1.0,0.0,0.0,0.0,1.0
1463993295808957860,512,1463993295719944126,,13.0756015778,-37.9105644226,-66.0388259888,0.00118999998085,1.0,0.0,0.0,0.0,1.0,0.0,0.0,0.0,1.0,-4.32926845551,3.35365867615,3.04878044128,1.0,0.0,0.0,0.0,1.0,0.0,0.0,0.0,1.0,0.986411083984,-8.40364724263,16.5535102783,1.0,0.0,0.0,0.0,1.0,0.0,0.0,0.0,1.0
1463993295809009318,513,1463993295741506273,,12.9791030884,-38.2962608337,-66.2901229858,0.00118200003635,1.0,0.0,0.0,0.0,1.0,0.0,0.0,0.0,1.0,-1.64634156227,5.12195110321,-0.609756112099,1.0,0.0,0.0,0.0,1.0,0.0,0.0,0.0,1.0,0.234631762695,-7.25921943359,0.9193734375,1.0,0.0,0.0,0.0,1.0,0.0,0.0,0.0,1.0
1463993295809049005,514,1463993295762115300,,12.8468036652,-38.1853752136,-66.2932739258,0.00126299995463,1.0,0.0,0.0,0.0,1.0,0.0,0.0,0.0,1.0,1.8902438879,5.91463422775,8.65853691101,1.0,0.0,0.0,0.0,1.0,0.0,0.0,0.0,1.0,1.90099611816,-0.785298144531,13.230358374,1.0,0.0,0.0,0.0,1.0,0.0,0.0,0.0,1.0
1463993295809284525,515,1463993295783040419,,12.6465892792,-38.2944641113,-66.3747329712,0.00133300002199,1.0,0.0,0.0,0.0,1.0,0.0,0.0,0.0,1.0,-11.5243911743,-0.670731723309,-8.90243911743,1.0,0.0,0.0,0.0,1.0,0.0,0.0,0.0,1.0,-0.292092584273,-10.4961800781,3.0166940918,1.0,0.0,0.0,0.0,1.0,0.0,0.0,0.0,1.0
1463993296500265738,516,1463993295804412150,,12.5389595032,-38.1208343506,-66.414276123,0.0011930000037,1.0,0.0,0.0,0.0,1.0,0.0,0.0,0.0,1.0,1.03658533096,1.76829278469,0.0,1.0,0.0,0.0,0.0,1.0,0.0,0.0,0.0,1.0,0.378283862305,-1.49877023926,14.0108681152,1.0,0.0,0.0,0.0,1.0,0.0,0.0,0.0,1.0
1463993296500387248,517,1463993295824691959,,12.539721489,-38.0882797241,-66.4560775757,0.00191099999938,1.0,0.0,0.0,0.0,1.0,0.0,0.0,0.0,1.0,-5.48780488968,-9.32926845551,-4.93902444839,1.0,0.0,0.0,0.0,1.0,0.0,0.0,0.0,1.0,1.53707746582,-6.57926616211,8.68137521973,1.0,0.0,0.0,0.0,1.0,0.0,0.0,0.0,1.0
1463993296500437872,518,1463993295846036816,,12.3929691315,-38.2568626404,-66.5961990356,0.00126299995463,1.0,0.0,0.0,0.0,1.0,0.0,0.0,0.0,1.0,6.89024400711,7.92682981491,1.8292683363,1.0,0.0,0.0,0.0,1.0,0.0,0.0,0.0,1.0,-5.51145222168,1.21625444336,15.3133138184,1.0,0.0,0.0,0.0,1.0,0.0,0.0,0.0,1.0
1463993296500477143,519,1463993295866402979,,12.7487506866,-37.8946990967,-66.5476837158,0.00203300011344,1.0,0.0,0.0,0.0,1.0,0.0,0.0,0.0,1.0,-4.75609779358,5.36585378647,1.8292683363,1.0,0.0,0.0,0.0,1.0,0.0,0.0,0.0,1.0,-9.79228479004,-8.29830236958,14.9158763428,1.0,0.0,0.0,0.0,1.0,0.0,0.0,0.0,1.0
1463993296500514955,520,1463993295887500441,,12.8275718689,-37.9081573486,-66.6862335205,0.00111399998423,1.0,0.0,0.0,0.0,1.0,0.0,0.0,0.0,1.0,4.63414621353,-4.69512224197,-0.243902444839,1.0,0.0,0.0,0.0,1.0,0.0,0.0,0.0,1.0,-7.82903942871,-2.58573779297,15.9262294434,1.0,0.0,0.0,0.0,1.0,0.0,0.0,0.0,1.0
1463993296500551153,521,1463993295908586288,,13.0174465179,-37.7770423889,-66.7052536011,0.001200000057,1.0,0.0,0.0,0.0,1.0,0.0,0.0,0.0,1.0,-0.609756112099,2.92682933807,5.97560977936,1.0,0.0,0.0,0.0,1.0,0.0,0.0,0.0,1.0,-4.50109912109,-1.33117612305,11.540052002,1.0,0.0,0.0,0.0,1.0,0.0,0.0,0.0,1.0
1463993296500598340,522,1463993295930205362,,12.9931154251,-37.8222694397,-66.8344268799,0.00115799997002,1.0,0.0,0.0,0.0,1.0,0.0,0.0,0.0,1.0,-0.18292683363,-0.12195122242,-4.02439022064,1.0,0.0,0.0,0.0,1.0,0.0,0.0,0.0,1.0,-4.27125605398,-0.622492431641,11.286266626,1.0,0.0,0.0,0.0,1.0,0.0,0.0,0.0,1.0
1463993296500634069,523,1463993295950983086,,12.799612999,-37.5995979309,-66.8494415283,0.00115400005598,1.0,0.0,0.0,0.0,1.0,0.0,0.0,0.0,1.0,6.34146356583,1.34146344662,4.14634132385,1.0,0.0,0.0,0.0,1.0,0.0,0.0,0.0,1.0,4.58729038086,-1.43652099609,16.0986119629,1.0,0.0,0.0,0.0,1.0,0.0,0.0,0.0,1.0
1463993296500669851,524,1463993295972364661,,12.8857755661,-37.6085243225,-66.9404754639,0.00119199999608,1.0,0.0,0.0,0.0,1.0,0.0,0.0,0.0,1.0,-1.34146344662,-2.5,-8.10975551605,1.0,0.0,0.0,0.0,1.0,0.0,0.0,0.0,1.0,-2.06380183105,-0.885854614258,9.05008227539,1.0,0.0,0.0,0.0,1.0,0.0,0.0,0.0,1.0
1463993296500710527,525,1463993295993968163,,13.0223054886,-37.4692687988,-66.9886474609,0.00122400000691,1.0,0.0,0.0,0.0,1.0,0.0,0.0,0.0,1.0,1.52439022064,2.13414645195,2.92682933807,1.0,0.0,0.0,0.0,1.0,0.0,0.0,0.0,1.0,-2.04464821777,-1.03429511719,12.7706716553,1.0,0.0,0.0,0.0,1.0,0.0,0.0,0.0,1.0
1463993296504473011,526,1463993296014949323,,13.0057916641,-37.4891738892,-67.0882415771,0.00119700003415,1.0,0.0,0.0,0.0,1.0,0.0,0.0,0.0,1.0,-1.95121955872,10.0,-3.47560977936,1.0,0.0,0.0,0.0,1.0,0.0,0.0,0.0,1.0,4.30477487722,-6.54095893555,5.61200869141,1.0,0.0,0.0,0.0,1.0,0.0,0.0,0.0,1.0
1463993296504862645,527,1463993296036163295,,12.9278736115,-37.6304397583,-67.2291488647,0.00144000002183,1.0,0.0,0.0,0.0,1.0,0.0,0.0,0.0,1.0,4.02439022064,3.84146332741,3.47560977936,1.0,0.0,0.0,0.0,1.0,0.0,0.0,0.0,1.0,-5.35822331543,-4.37660063477,2.46123930664,1.0,0.0,0.0,0.0,1.0,0.0,0.0,0.0,1.0
1463993296505830089,528,1463993296057162476,,12.863825798,-37.7100715637,-67.2784423828,0.00127200002316,1.0,0.0,0.0,0.0,1.0,0.0,0.0,0.0,1.0,-1.64634156227,-1.70731711388,-2.37804889679,1.0,0.0,0.0,0.0,1.0,0.0,0.0,0.0,1.0,2.7820623291,-5.01824667969,7.69017573242,1.0,0.0,0.0,0.0,1.0,0.0,0.0,0.0,1.0
1463993296505890193,529,1463993296078945247,,12.8658103943,-37.8326416016,-67.4374084473,0.00127000000793,1.0,0.0,0.0,0.0,1.0,0.0,0.0,0.0,1.0,1.8292683363,4.20731735229,5.97560977936,1.0,0.0,0.0,0.0,1.0,0.0,0.0,0.0,1.0,2.54743056641,-5.17626398926,5.1618987793,1.0,0.0,0.0,0.0,1.0,0.0,0.0,0.0,1.0
1463993296508016434,530,1463993296099457868,,12.9010696411,-37.8061218262,-67.4397888184,0.00138599995989,1.0,0.0,0.0,0.0,1.0,0.0,0.0,0.0,1.0,-7.25609779358,3.71951246262,-1.40243899822,1.0,0.0,0.0,0.0,1.0,0.0,0.0,0.0,1.0,-3.17471140137,-9.01656345215,11.0037508301,1.0,0.0,0.0,0.0,1.0,0.0,0.0,0.0,1.0
1463993296508072475,531,1463993296120590798,,12.9101047516,-37.9771881104,-67.6561813354,0.00116099999286,1.0,0.0,0.0,0.0,1.0,0.0,0.0,0.0,1.0,-2.13414645195,-4.20731735229,-1.15853655338,1.0,0.0,0.0,0.0,1.0,0.0,0.0,0.0,1.0,-4.06056601562,-5.38216533203,10.7116582275,1.0,0.0,0.0,0.0,1.0,0.0,0.0,0.0,1.0
1463993296508259558,532,1463993296141179929,,12.8250703812,-37.8234825134,-67.6694030762,0.00128299999051,1.0,0.0,0.0,0.0,1.0,0.0,0.0,0.0,1.0,-7.98780536652,2.01219511032,8.47560977936,1.0,0.0,0.0,0.0,1.0,0.0,0.0,0.0,1.0,5.23851323242,-6.9767036377,9.8545340332,1.0,0.0,0.0,0.0,1.0,0.0,0.0,0.0,1.0
1463993296508328568,533,1463993296161979319,,12.992650032,-37.4079627991,-67.8450469971,0.00109799997881,1.0,0.0,0.0,0.0,1.0,0.0,0.0,0.0,1.0,4.51219558716,-4.2682929039,-3.29268312454,1.0,0.0,0.0,0.0,1.0,0.0,0.0,0.0,1.0,-2.33674067418,-3.34230551758,11.1234609131,1.0,0.0,0.0,0.0,1.0,0.0,0.0,0.0,1.0
1463993296509917103,534,1463993296182663502,,12.9690904617,-37.3813209534,-67.8560791016,0.00116600003093,1.0,0.0,0.0,0.0,1.0,0.0,0.0,0.0,1.0,-5.54878091812,7.31707334518,2.19512200356,1.0,0.0,0.0,0.0,1.0,0.0,0.0,0.0,1.0,-1.34075292969,-10.5632177246,9.94551369629,1.0,0.0,0.0,0.0,1.0,0.0,0.0,0.0,1.0
1463993296509977936,535,1463993296203693985,,13.0451412201,-37.4449272156,-68.0350570679,0.00115499994718,1.0,0.0,0.0,0.0,1.0,0.0,0.0,0.0,1.0,18.5365848541,-3.10975623131,-8.71951198578,1.0,0.0,0.0,0.0,1.0,0.0,0.0,0.0,1.0,-1.23540805664,-3.38540114746,7.29273825684,1.0,0.0,0.0,0.0,1.0,0.0,0.0,0.0,1.0
1463993296510018144,536,1463993296225181810,,13.117767334,-37.0655784607,-67.9322814941,0.00114499998745,1.0,0.0,0.0,0.0,1.0,0.0,0.0,0.0,1.0,6.82926845551,8.78048801422,8.35365867615,1.0,0.0,0.0,0.0,1.0,0.0,0.0,0.0,1.0,-9.39963513325,-7.17302817383,14.9589719727,1.0,0.0,0.0,0.0,1.0,0.0,0.0,0.0,1.0
1463993296510054810,537,1463993296245848857,,13.1836414337,-37.0036277771,-68.1062774658,0.00117399997544,1.0,0.0,0.0,0.0,1.0,0.0,0.0,0.0,1.0,1.8292683363,4.2682929039,0.426829278469,1.0,0.0,0.0,0.0,1.0,0.0,0.0,0.0,1.0,-2.56179577637,-3.36145913086,4.01268198242,1.0,0.0,0.0,0.0,1.0,0.0,0.0,0.0,1.0
1463993296511860896,538,1463993296266839340,,13.0740699768,-36.7458076477,-67.9812393188,0.0015640000347,1.0,0.0,0.0,0.0,1.0,0.0,0.0,0.0,1.0,-0.426829278469,4.08536577225,0.670731723309,1.0,0.0,0.0,0.0,1.0,0.0,0.0,0.0,1.0,-2.3415290775,-3.48595761719,13.0196686279,1.0,0.0,0.0,0.0,1.0,0.0,0.0,0.0,1.0
1463993296511918657,539,1463993296287698574,,13.0155267715,-36.7288818359,-68.1503295898,0.0010890000267,1.0,0.0,0.0,0.0,1.0,0.0,0.0,0.0,1.0,11.1585359573,15.8536596298,3.84146332741,1.0,0.0,0.0,0.0,1.0,0.0,0.0,0.0,1.0,-4.37660063477,2.03985981445,5.31033928223,1.0,0.0,0.0,0.0,1.0,0.0,0.0,0.0,1.0
1463993296511957927,540,1463993296309112388,,12.6756258011,-36.9098320007,-68.1366348267,0.00122500001453,1.0,0.0,0.0,0.0,1.0,0.0,0.0,0.0,1.0,-8.84146404266,7.80487823486,-3.47560977936,1.0,0.0,0.0,0.0,1.0,0.0,0.0,0.0,1.0,-1.10612116699,-9.30386706685,2.56658417969,1.0,0.0,0.0,0.0,1.0,0.0,0.0,0.0,1.0
1463993296512189801,541,1463993296329701884,,12.797832489,-36.772693634,-68.2388076782,0.00124400004279,1.0,0.0,0.0,0.0,1.0,0.0,0.0,0.0,1.0,-3.59756112099,-1.76829278469,9.69512176514,1.0,0.0,0.0,0.0,1.0,0.0,0.0,0.0,1.0,6.57926616211,4.12760366211,11.3293622559,1.0,0.0,0.0,0.0,1.0,0.0,0.0,0.0,1.0
1463993296512458290,542,1463993296350729867,,12.8680515289,-36.9571075439,-68.3295516968,0.0012969999807,1.0,0.0,0.0,0.0,1.0,0.0,0.0,0.0,1.0,-12.8658542633,6.58536624908,-8.17073154449,1.0,0.0,0.0,0.0,1.0,0.0,0.0,0.0,1.0,-14.3460563477,-4.50109912109,12.1098719971,1.0,0.0,0.0,0.0,1.0,0.0,0.0,0.0,1.0
1463993296513983492,543,1463993296372213368,,12.7611808777,-36.7349777222,-68.2795333862,0.00124000001233,1.0,0.0,0.0,0.0,1.0,0.0,0.0,0.0,1.0,-10.2439022064,-6.15853643417,7.19512224197,1.0,0.0,0.0,0.0,1.0,0.0,0.0,0.0,1.0,11.01811604,-1.26413847656,9.96466730957,1.0,0.0,0.0,0.0,1.0,0.0,0.0,0.0,1.0
1463993296514044377,544,1463993296393796505,,12.8990850449,-36.9587173462,-68.444152832,0.00130300002638,1.0,0.0,0.0,0.0,1.0,0.0,0.0,0.0,1.0,4.51219558716,20.0,-10.3658542633,1.0,0.0,0.0,0.0,1.0,0.0,0.0,0.0,1.0,-4.61602080078,-2.97359846191,3.59609089355,1.0,0.0,0.0,0.0,1.0,0.0,0.0,0.0,1.0
1463993296514082710,545,1463993296416659585,,12.7674379349,-36.8241729736,-68.4063186646,0.00323099992238,1.0,0.0,0.0,0.0,1.0,0.0,0.0,0.0,1.0,-5.79268312454,4.02439022064,7.98780536652,1.0,0.0,0.0,0.0,1.0,0.0,0.0,0.0,1.0,3.64876333008,-3.06936652832,9.71088193359,1.0,0.0,0.0,0.0,1.0,0.0,0.0,0.0,1.0
1463993296516018431,546,1463993296437807776,,12.7766494751,-37.0048751831,-68.6640167236,0.00125700002536,1.0,0.0,0.0,0.0,1.0,0.0,0.0,0.0,1.0,-5.85365867615,-5.18292713165,-6.64634132385,1.0,0.0,0.0,0.0,1.0,0.0,0.0,0.0,1.0,-4.11802685547,-7.00543405762,0.895431420898,1.0,0.0,0.0,0.0,1.0,0.0,0.0,0.0,1.0
1463993296523295379,547,1463993296459250132,,12.7321243286,-37.0491333008,-68.6522598267,0.0013119999785,1.0,0.0,0.0,0.0,1.0,0.0,0.0,0.0,1.0,-3.53658556938,11.341463089,3.04878044128,1.0,0.0,0.0,0.0,1.0,0.0,0.0,0.0,1.0,-0.718260498047,-3.84987626953,11.3628810791,1.0,0.0,0.0,0.0,1.0,0.0,0.0,0.0,1.0
1463993296524710946,548,1463993296480725821,,12.8711605072,-37.227722168,-68.8516235352,0.00121100002434,1.0,0.0,0.0,0.0,1.0,0.0,0.0,0.0,1.0,4.87804889679,-4.2682929039,2.01219511032,1.0,0.0,0.0,0.0,1.0,0.0,0.0,0.0,1.0,-2.4756045166,0.689530078125,12.3301385498,1.0,0.0,0.0,0.0,1.0,0.0,0.0,0.0,1.0
1463993296524768810,549,1463993296501700523,,12.7918672562,-37.3451347351,-68.8723526001,0.00119700003415,1.0,0.0,0.0,0.0,1.0,0.0,0.0,0.0,1.0,-6.52439069748,2.31707310677,-2.13414645195,1.0,0.0,0.0,0.0,1.0,0.0,0.0,0.0,1.0,-0.512359155273,-9.20809958496,10.6302553711,1.0,0.0,0.0,0.0,1.0,0.0,0.0,0.0,1.0
1463993297316571831,550,1463993296523221577,,12.5874080658,-37.4293251038,-69.0522689819,0.00118200003635,1.0,0.0,0.0,0.0,1.0,0.0,0.0,0.0,1.0,7.68292665482,-1.2195122242,5.67073154449,1.0,0.0,0.0,0.0,1.0,0.0,0.0,0.0,1.0,-9.19852277832,-2.63841022949,17.8032835449,1.0,0.0,0.0,0.0,1.0,0.0,0.0,0.0,1.0
1463993297316765893,551,1463993296544129977,,12.6148414612,-37.4754524231,-69.0928192139,0.00119099998847,1.0,0.0,0.0,0.0,1.0,0.0,0.0,0.0,1.0,2.01219511032,3.17073178291,-4.69512224197,1.0,0.0,0.0,0.0,1.0,0.0,0.0,0.0,1.0,3.62003291016,-4.95599743652,1.04387185076,1.0,0.0,0.0,0.0,1.0,0.0,0.0,0.0,1.0
1463993297316809486,552,1463993296565598688,,12.5316305161,-37.2630119324,-69.158531189,0.00126100005582,1.0,0.0,0.0,0.0,1.0,0.0,0.0,0.0,1.0,6.09756088257,-8.35365867615,5.85365867615,1.0,0.0,0.0,0.0,1.0,0.0,0.0,0.0,1.0,-5.70777675781,-8.77235488281,9.03571706543,1.0,0.0,0.0,0.0,1.0,0.0,0.0,0.0,1.0
1463993297318951248,553,1463993296586243756,,12.5129642487,-37.2633171082,-69.2216339111,0.00147999997716,1.0,0.0,0.0,0.0,1.0,0.0,0.0,0.0,1.0,14.1463422775,13.048781395,-9.02439117432,1.0,0.0,0.0,0.0,1.0,0.0,0.0,0.0,1.0,-5.81312163086,-0.900219824219,7.86255825195,1.0,0.0,0.0,0.0,1.0,0.0,0.0,0.0,1.0
1463993297320181451,554,1463993296607322467,,12.2991819382,-36.9372673035,-69.1870117188,0.00118699995801,1.0,0.0,0.0,0.0,1.0,0.0,0.0,0.0,1.0,1.2195122242,-9.14634132385,8.10975551605,1.0,0.0,0.0,0.0,1.0,0.0,0.0,0.0,1.0,-3.50511123047,-10.6494089844,12.0380459473,1.0,0.0,0.0,0.0,1.0,0.0,0.0,0.0,1.0
1463993297321605664,555,1463993296628378732,,12.1705999374,-36.8228912354,-69.2806625366,0.00123399996664,1.0,0.0,0.0,0.0,1.0,0.0,0.0,0.0,1.0,15.548781395,-3.7804877758,-4.93902444839,1.0,0.0,0.0,0.0,1.0,0.0,0.0,0.0,1.0,2.98317526855,1.98718737793,9.73961235352,1.0,0.0,0.0,0.0,1.0,0.0,0.0,0.0,1.0
1463993297323549874,556,1463993296649746401,,12.0106601715,-36.4576873779,-69.2103271484,0.00120699999388,1.0,0.0,0.0,0.0,1.0,0.0,0.0,0.0,1.0,7.86585378647,-1.09756100178,11.8292684555,1.0,0.0,0.0,0.0,1.0,0.0,0.0,0.0,1.0,-6.52180532227,3.58651408691,18.6747717802,1.0,0.0,0.0,0.0,1.0,0.0,0.0,0.0,1.0
1463993297325107367,557,1463993296670626207,,11.9317035675,-36.5532493591,-69.3575057983,0.0012229999993,1.0,0.0,0.0,0.0,1.0,0.0,0.0,0.0,1.0,7.74390268326,-14.1463422775,-6.15853643417,1.0,0.0,0.0,0.0,1.0,0.0,0.0,0.0,1.0,-0.981622680664,-7.59440766602,5.28639726562,1.0,0.0,0.0,0.0,1.0,0.0,0.0,0.0,1.0
1463993297329623650,558,1463993296691316848,,11.7764167786,-36.2234039307,-69.2360839844,0.00116099999286,1.0,0.0,0.0,0.0,1.0,0.0,0.0,0.0,1.0,6.15853643417,6.58536624908,12.0121955872,1.0,0.0,0.0,0.0,1.0,0.0,0.0,0.0,1.0,-5.516240625,-2.09253210485,22.0984813232,1.0,0.0,0.0,0.0,1.0,0.0,0.0,0.0,1.0
1463993297330906666,559,1463993296711883843,,11.7707929611,-36.1675262451,-69.4179992676,0.00122099998407,1.0,0.0,0.0,0.0,1.0,0.0,0.0,0.0,1.0,7.68292665482,-6.95121955872,-4.93902444839,1.0,0.0,0.0,0.0,1.0,0.0,0.0,0.0,1.0,-1.33596452637,-6.86178195801,6.34942280273,1.0,0.0,0.0,0.0,1.0,0.0,0.0,0.0,1.0
1463993297333273218,560,1463993296733182711,,11.7910394669,-36.1024246216,-69.3549041748,0.00122099998407,1.0,0.0,0.0,0.0,1.0,0.0,0.0,0.0,1.0,-3.96341490746,0.304878056049,-0.792682945728,1.0,0.0,0.0,0.0,1.0,0.0,0.0,0.0,1.0,0.105344873047,-3.99831677246,12.1673328369,1.0,0.0,0.0,0.0,1.0,0.0,0.0,0.0,1.0
1463993297335134095,561,1463993296753899757,,11.6716413498,-35.92993927,-69.4664230347,0.00117099995259,1.0,0.0,0.0,0.0,1.0,0.0,0.0,0.0,1.0,-0.853658556938,0.426829278469,3.29268312454,1.0,0.0,0.0,0.0,1.0,0.0,0.0,0.0,1.0,-2.62883342285,2.10689731481,11.8177793945,1.0,0.0,0.0,0.0,1.0,0.0,0.0,0.0,1.0
1463993297337050702,562,1463993296775267166,,11.5875110626,-36.0398864746,-69.4598083496,0.00116999994498,1.0,0.0,0.0,0.0,1.0,0.0,0.0,0.0,1.0,-5.48780488968,7.19512224197,-6.0365858078,1.0,0.0,0.0,0.0,1.0,0.0,0.0,0.0,1.0,4.89374819336,-5.61200869141,-7.25443103027,1.0,0.0,0.0,0.0,1.0,0.0,0.0,0.0,1.0
1463993297337595231,563,1463993296797065406,,11.337020874,-36.1641311646,-69.5560150146,0.00184399995487,1.0,0.0,0.0,0.0,1.0,0.0,0.0,0.0,1.0,-7.56097555161,-7.07317113876,9.14634132385,1.0,0.0,0.0,0.0,1.0,0.0,0.0,0.0,1.0,6.78037910156,-9.69172832031,5.31512768555,1.0,0.0,0.0,0.0,1.0,0.0,0.0,0.0,1.0
1463993297338427623,564,1463993296817621933,,11.5833778381,-36.4363670349,-69.6568832397,0.00140299997292,1.0,0.0,0.0,0.0,1.0,0.0,0.0,0.0,1.0,-6.21951246262,5.30487823486,-7.31707334518,1.0,0.0,0.0,0.0,1.0,0.0,0.0,0.0,1.0,-7.60877287598,-3.75889660645,10.7020814209,1.0,0.0,0.0,0.0,1.0,0.0,0.0,0.0,1.0
1463993297338484237,565,1463993296838410646,,11.5472755432,-36.4461517334,-69.6764602661,0.00115100003313,1.0,0.0,0.0,0.0,1.0,0.0,0.0,0.0,1.0,-12.3780488968,7.25609779358,10.1219511032,1.0,0.0,0.0,0.0,1.0,0.0,0.0,0.0,1.0,-5.33906970215,-5.93283171387,7.3549875,1.0,0.0,0.0,0.0,1.0,0.0,0.0,0.0,1.0
1463993297339538243,566,1463993296859651389,,11.6828527451,-36.7897834778,-69.8516769409,0.00125199998729,1.0,0.0,0.0,0.0,1.0,0.0,0.0,0.0,1.0,-3.17073178291,-0.487804889679,-4.02439022064,1.0,0.0,0.0,0.0,1.0,0.0,0.0,0.0,1.0,2.30801040039,-5.53060583496,8.38928203267,1.0,0.0,0.0,0.0,1.0,0.0,0.0,0.0,1.0
1463993297340976310,567,1463993296880934735,,11.569644928,-36.8218345642,-69.8040084839,0.00120699999388,1.0,0.0,0.0,0.0,1.0,0.0,0.0,0.0,1.0,-3.04878044128,4.75609779358,4.75609779358,1.0,0.0,0.0,0.0,1.0,0.0,0.0,0.0,1.0,9.19852277832,-3.50989963379,8.29830236958,1.0,0.0,0.0,0.0,1.0,0.0,0.0,0.0,1.0
1463993297342994322,568,1463993296901582824,,11.5872154236,-37.2231025696,-70.0708770752,0.00135799997952,1.0,0.0,0.0,0.0,1.0,0.0,0.0,0.0,1.0,-9.32926845551,-1.95121955872,-7.56097555161,1.0,0.0,0.0,0.0,1.0,0.0,0.0,0.0,1.0,-0.258573779297,-7.15387456055,10.3573163818,1.0,0.0,0.0,0.0,1.0,0.0,0.0,0.0,1.0
1463993297345604363,569,1463993296922499974,,11.6871290207,-37.2402267456,-70.0257873535,0.00108700001147,1.0,0.0,0.0,0.0,1.0,0.0,0.0,0.0,1.0,-9.14634132385,12.1341466904,10.1219511032,1.0,0.0,0.0,0.0,1.0,0.0,0.0,0.0,1.0,0.177170922852,-11.1952869629,8.36534001606,1.0,0.0,0.0,0.0,1.0,0.0,0.0,0.0,1.0
1463993297349270650,570,1463993296944187069,,11.6818332672,-37.372253418,-70.2320556641,0.0011419999646,1.0,0.0,0.0,0.0,1.0,0.0,0.0,0.0,1.0,-1.46341466904,-4.51219558716,2.98780488968,1.0,0.0,0.0,0.0,1.0,0.0,0.0,0.0,1.0,5.88494768066,-2.93050283203,11.5879360352,1.0,0.0,0.0,0.0,1.0,0.0,0.0,0.0,1.0
1463993297349587002,571,1463993296964613023,,11.5492925644,-37.5430793762,-70.2711257935,0.00112399994396,1.0,0.0,0.0,0.0,1.0,0.0,0.0,0.0,1.0,-4.32926845551,2.56097555161,-6.7682929039,1.0,0.0,0.0,0.0,1.0,0.0,0.0,0.0,1.0,4.71657697825,-8.79150849609,-1.06781401349,1.0,0.0,0.0,0.0,1.0,0.0,0.0,0.0,1.0
1463993297350821424,572,1463993296986218348,,11.6884250641,-37.5567779541,-70.3638687134,0.00146900000982,1.0,0.0,0.0,0.0,1.0,0.0,0.0,0.0,1.0,-3.84146332741,-0.792682945728,1.09756100178,1.0,0.0,0.0,0.0,1.0,0.0,0.0,0.0,1.0,-8.31266757954,-4.11802685547,12.1769096436,1.0,0.0,0.0,0.0,1.0,0.0,0.0,0.0,1.0
1463993297352457823,573,1463993297007416642,,11.7531690598,-37.6278839111,-70.4294128418,0.00116900005378,1.0,0.0,0.0,0.0,1.0,0.0,0.0,0.0,1.0,0.365853667259,5.12195110321,-7.31707334518,1.0,0.0,0.0,0.0,1.0,0.0,0.0,0.0,1.0,2.46602770996,0.210689746094,6.88572397461,1.0,0.0,0.0,0.0,1.0,0.0,0.0,0.0,1.0
1463993297352964019,574,1463993297028970196,,11.8255405426,-37.4521751404,-70.4927215576,0.00122400000691,1.0,0.0,0.0,0.0,1.0,0.0,0.0,0.0,1.0,-1.2804877758,2.31707310677,8.59756088257,1.0,0.0,0.0,0.0,1.0,0.0,0.0,0.0,1.0,7.74763657227,-3.82114584961,9.7587659668,1.0,0.0,0.0,0.0,1.0,0.0,0.0,0.0,1.0
1463993297353016831,575,1463993297049732347,,12.0800132751,-37.6042938232,-70.5882034302,0.00125400000252,1.0,0.0,0.0,0.0,1.0,0.0,0.0,0.0,1.0,1.03658533096,-2.01219511032,-7.74390268326,1.0,0.0,0.0,0.0,1.0,0.0,0.0,0.0,1.0,-7.24006582031,-5.09486113281,11.2431709961,1.0,0.0,0.0,0.0,1.0,0.0,0.0,0.0,1.0
1463993297354670470,576,1463993297071089078,,11.8482074738,-37.4064712524,-70.5560760498,0.00142600003164,1.0,0.0,0.0,0.0,1.0,0.0,0.0,0.0,1.0,3.7804877758,5.18292713165,5.12195110321,1.0,0.0,0.0,0.0,1.0,0.0,0.0,0.0,1.0,4.22815983957,-2.12605122035,14.9062995361,1.0,0.0,0.0,0.0,1.0,0.0,0.0,0.0,1.0
1463993297356786763,577,1463993297092457737,,11.8257780075,-37.5276412964,-70.6875915527,0.00123399996664,1.0,0.0,0.0,0.0,1.0,0.0,0.0,0.0,1.0,7.86585378647,2.86585378647,-3.35365867615,1.0,0.0,0.0,0.0,1.0,0.0,0.0,0.0,1.0,-3.4189199707,-2.95444484863,10.1322614258,1.0,0.0,0.0,0.0,1.0,0.0,0.0,0.0,1.0
1463993297358308059,578,1463993297113840302,,11.9040632248,-37.1734695435,-70.5774459839,0.0012309999438,1.0,0.0,0.0,0.0,1.0,0.0,0.0,0.0,1.0,-1.2804877758,3.47560977936,8.35365867615,1.0,0.0,0.0,0.0,1.0,0.0,0.0,0.0,1.0,-8.21211169434,-9.34217429341,12.6461731689,1.0,0.0,0.0,0.0,1.0,0.0,0.0,0.0,1.0
1463993297360410394,579,1463993297136110623,,11.9561796188,-37.2624511719,-70.7447128296,0.00147500005551,1.0,0.0,0.0,0.0,1.0,0.0,0.0,0.0,1.0,1.8902438879,-6.28048801422,-2.37804889679,1.0,0.0,0.0,0.0,1.0,0.0,0.0,0.0,1.0,-0.239420166016,-5.87537087402,3.84029946289,1.0,0.0,0.0,0.0,1.0,0.0,0.0,0.0,1.0
1463993297361818460,580,1463993297157258345,,12.0412015915,-37.1298484802,-70.6819763184,0.00155299995095,1.0,0.0,0.0,0.0,1.0,0.0,0.0,0.0,1.0,3.35365867615,5.67073154449,-1.34146344662,1.0,0.0,0.0,0.0,1.0,0.0,0.0,0.0,1.0,-4.56813676758,-6.28238515625,14.1401550049,1.0,0.0,0.0,0.0,1.0,0.0,0.0,0.0,1.0
1463993297363044549,581,1463993297178045288,,12.0379066467,-37.1396331787,-70.8440628052,0.00113200000487,1.0,0.0,0.0,0.0,1.0,0.0,0.0,0.0,1.0,-0.18292683363,1.76829278469,-0.365853667259,1.0,0.0,0.0,0.0,1.0,0.0,0.0,0.0,1.0,3.25611425781,-1.81959326172,-1.35032973633,1.0,0.0,0.0,0.0,1.0,0.0,0.0,0.0,1.0
1463993297365102978,582,1463993297199600925,,11.8093481064,-37.2085113525,-70.8719329834,0.00117800000589,1.0,0.0,0.0,0.0,1.0,0.0,0.0,0.0,1.0,7.86585378647,11.8902444839,-7.01219511032,1.0,0.0,0.0,0.0,1.0,0.0,0.0,0.0,1.0,2.43729729004,-8.49462807476,6.94318481445,1.0,0.0,0.0,0.0,1.0,0.0,0.0,0.0,1.0
1463993297366517920,583,1463993297220305472,,11.8642644882,-37.0875816345,-70.9515457153,0.00122600002214,1.0,0.0,0.0,0.0,1.0,0.0,0.0,0.0,1.0,3.41463422775,-3.17073178291,5.67073154449,1.0,0.0,0.0,0.0,1.0,0.0,0.0,0.0,1.0,-1.56580788574,-2.44208569336,18.8998279053,1.0,0.0,0.0,0.0,1.0,0.0,0.0,0.0,1.0
1463993297366605627,584,1463993297241826317,,11.7812604904,-37.0996131897,-71.0758361816,0.00117199996021,1.0,0.0,0.0,0.0,1.0,0.0,0.0,0.0,1.0,3.41463422775,7.74390268326,-12.9878053665,1.0,0.0,0.0,0.0,1.0,0.0,0.0,0.0,1.0,-12.2152168701,-7.38850632324,9.63905646831,1.0,0.0,0.0,0.0,1.0,0.0,0.0,0.0,1.0
1463993297366646096,585,1463993297263037268,,11.5866279602,-37.0744018555,-71.1413650513,0.00118100002874,1.0,0.0,0.0,0.0,1.0,0.0,0.0,0.0,1.0,-1.2195122242,-0.609756112099,11.4024391174,1.0,0.0,0.0,0.0,1.0,0.0,0.0,0.0,1.0,6.56490095215,-8.02057556152,10.9606552002,1.0,0.0,0.0,0.0,1.0,0.0,0.0,0.0,1.0
1463993297370971182,586,1463993297284168532,,11.6101398468,-37.2839622498,-71.3725128174,0.00114099995699,1.0,0.0,0.0,0.0,1.0,0.0,0.0,0.0,1.0,4.87804889679,-4.08536577225,-8.5365858078,1.0,0.0,0.0,0.0,1.0,0.0,0.0,0.0,1.0,2.37983659633,-5.48272180176,8.98783303223,1.0,0.0,0.0,0.0,1.0,0.0,0.0,0.0,1.0
1463993297371338420,587,1463993297305117505,,11.4924497604,-37.1493682861,-71.3759002686,0.00117499998305,1.0,0.0,0.0,0.0,1.0,0.0,0.0,0.0,1.0,-8.41463470459,-2.68292689323,5.97560977936,1.0,0.0,0.0,0.0,1.0,0.0,0.0,0.0,1.0,6.85220515137,-8.82502731934,1.25456166992,1.0,0.0,0.0,0.0,1.0,0.0,0.0,0.0,1.0
1463993297373396484,588,1463993297325496741,,11.453001976,-37.2963409424,-71.5958480835,0.00117800000589,1.0,0.0,0.0,0.0,1.0,0.0,0.0,0.0,1.0,7.25609779358,1.70731711388,-7.13414621353,1.0,0.0,0.0,0.0,1.0,0.0,0.0,0.0,1.0,7.6375032959,-3.64876333008,8.39407043599,1.0,0.0,0.0,0.0,1.0,0.0,0.0,0.0,1.0
1463993297375200174,589,1463993297346036653,,11.6732110977,-37.130027771,-71.5318145752,0.00138499995228,1.0,0.0,0.0,0.0,1.0,0.0,0.0,0.0,1.0,0.548780500889,7.01219511032,8.10975551605,1.0,0.0,0.0,0.0,1.0,0.0,0.0,0.0,1.0,-6.93839641113,-2.26970317383,10.0939541992,1.0,0.0,0.0,0.0,1.0,0.0,0.0,0.0,1.0
1463993297976255781,590,1463993297366677242,,11.6711893082,-37.2696113586,-71.7566757202,0.00115799997002,1.0,0.0,0.0,0.0,1.0,0.0,0.0,0.0,1.0,0.792682945728,-6.58536624908,-4.57317066193,1.0,0.0,0.0,0.0,1.0,0.0,0.0,0.0,1.0,-2.60010300293,-2.43250888672,5.69819995117,1.0,0.0,0.0,0.0,1.0,0.0,0.0,0.0,1.0
1463993297976534947,591,1463993297387821787,,11.3152551651,-37.3166351318,-71.7108612061,0.00112999998964,1.0,0.0,0.0,0.0,1.0,0.0,0.0,0.0,1.0,1.95121955872,12.1951217651,2.62195134163,1.0,0.0,0.0,0.0,1.0,0.0,0.0,0.0,1.0,-5.31033928223,-0.0718260498047,11.3293622559,1.0,0.0,0.0,0.0,1.0,0.0,0.0,0.0,1.0
1463993297976800623,592,1463993297408994665,,11.4527168274,-37.0998573303,-71.8307418823,0.00116600003093,1.0,0.0,0.0,0.0,1.0,0.0,0.0,0.0,1.0,0.792682945728,0.487804889679,4.75609779358,1.0,0.0,0.0,0.0,1.0,0.0,0.0,0.0,1.0,-10.314220752,0.713472094727,11.2048637695,1.0,0.0,0.0,0.0,1.0,0.0,0.0,0.0,1.0
1463993297979109571,593,1463993297430224470,,11.415222168,-37.3674621582,-71.835395813,0.00120399997104,1.0,0.0,0.0,0.0,1.0,0.0,0.0,0.0,1.0,1.64634156227,0.365853667259,-3.35365867615,1.0,0.0,0.0,0.0,1.0,0.0,0.0,0.0,1.0,2.08774370153,-9.86411083984,6.08606062012,1.0,0.0,0.0,0.0,1.0,0.0,0.0,0.0,1.0
1463993297979440351,594,1463993297451082037,,11.2726678848,-37.2487182617,-71.9205169678,0.0011930000037,1.0,0.0,0.0,0.0,1.0,0.0,0.0,0.0,1.0,4.69512224197,1.8292683363,5.36585378647,1.0,0.0,0.0,0.0,1.0,0.0,0.0,0.0,1.0,-1.06781401349,-1.00077629395,10.5919481445,1.0,0.0,0.0,0.0,1.0,0.0,0.0,0.0,1.0
1463993297979712069,595,1463993297472344915,,11.3954725266,-37.3006973267,-71.9145812988,0.00135999999475,1.0,0.0,0.0,0.0,1.0,0.0,0.0,0.0,1.0,-1.52439022064,4.45121955872,-5.06097555161,1.0,0.0,0.0,0.0,1.0,0.0,0.0,0.0,1.0,-7.14908615723,-5.02782348633,11.1952869629,1.0,0.0,0.0,0.0,1.0,0.0,0.0,0.0,1.0
1463993297980001078,596,1463993297493664720,,11.2092189789,-37.2493972778,-71.9145126343,0.00109499995597,1.0,0.0,0.0,0.0,1.0,0.0,0.0,0.0,1.0,-4.2682929039,1.64634156227,13.7195129395,1.0,0.0,0.0,0.0,1.0,0.0,0.0,0.0,1.0,2.39899020961,-3.94085593262,9.52892319194,1.0,0.0,0.0,0.0,1.0,0.0,0.0,0.0,1.0
1463993297980305816,597,1463993297514799786,,11.1580982208,-37.1506271362,-71.9730072021,0.00124200002756,1.0,0.0,0.0,0.0,1.0,0.0,0.0,0.0,1.0,7.31707334518,-5.48780488968,-7.80487823486,1.0,0.0,0.0,0.0,1.0,0.0,0.0,0.0,1.0,-5.67904633789,-1.52750065918,11.9183358643,1.0,0.0,0.0,0.0,1.0,0.0,0.0,0.0,1.0
1463993297980574825,598,1463993297536334225,,11.0561971664,-36.8505210876,-71.8801727295,0.00153300003149,1.0,0.0,0.0,0.0,1.0,0.0,0.0,0.0,1.0,2.43902444839,4.87804889679,7.13414621353,1.0,0.0,0.0,0.0,1.0,0.0,0.0,0.0,1.0,5.94719692383,2.84909997559,11.0564232666,1.0,0.0,0.0,0.0,1.0,0.0,0.0,0.0,1.0
1463993297980852897,599,1463993297557884914,,11.1501121521,-36.9489479065,-72.0223922729,0.00124699994922,1.0,0.0,0.0,0.0,1.0,0.0,0.0,0.0,1.0,2.86585378647,-3.23170733452,-0.12195122242,1.0,0.0,0.0,0.0,1.0,0.0,0.0,0.0,1.0,-4.02225878906,1.47482822266,9.99818613281,1.0,0.0,0.0,0.0,1.0,0.0,0.0,0.0,1.0
1463993297981154406,600,1463993297579007740,,11.1670942307,-36.9261131287,-71.9655380249,0.00119700003415,1.0,0.0,0.0,0.0,1.0,0.0,0.0,0.0,1.0,-7.86585378647,0.914634168148,2.37804889679,1.0,0.0,0.0,0.0,1.0,0.0,0.0,0.0,1.0,1.30723410645,-10.5057568848,1.11090957031,1.0,0.0,0.0,0.0,1.0,0.0,0.0,0.0,1.0
1463993297983513980,601,1463993297599983276,,11.0947141647,-36.8854217529,-72.113319397,0.00125500001013,1.0,0.0,0.0,0.0,1.0,0.0,0.0,0.0,1.0,9.32926845551,-4.08536577225,0.243902444839,1.0,0.0,0.0,0.0,1.0,0.0,0.0,0.0,1.0,6.86657036133,3.35667072754,11.3963999023,1.0,0.0,0.0,0.0,1.0,0.0,0.0,0.0,1.0
1463993297983876009,602,1463993297621309539,,10.8989706039,-37.2121009827,-72.1557693481,0.00182000000495,1.0,0.0,0.0,0.0,1.0,0.0,0.0,0.0,1.0,-2.86585378647,6.34146356583,-2.62195134163,1.0,0.0,0.0,0.0,1.0,0.0,0.0,0.0,1.0,0.651222851562,-4.89374819336,4.71178857493,1.0,0.0,0.0,0.0,1.0,0.0,0.0,0.0,1.0
1463993297984167414,603,1463993297642014033,,10.9353923798,-37.0549583435,-72.2833862305,0.00129100005142,1.0,0.0,0.0,0.0,1.0,0.0,0.0,0.0,1.0,-6.15853643417,-10.6707315445,3.10975623131,1.0,0.0,0.0,0.0,1.0,0.0,0.0,0.0,1.0,3.92649072266,-5.1858407959,8.41322404927,1.0,0.0,0.0,0.0,1.0,0.0,0.0,0.0,1.0
1463993297984621423,604,1463993297663431911,,10.9448604584,-37.1560401917,-72.3416061401,0.00130300002638,1.0,0.0,0.0,0.0,1.0,0.0,0.0,0.0,1.0,1.64634156227,7.50000047684,-1.64634156227,1.0,0.0,0.0,0.0,1.0,0.0,0.0,0.0,1.0,-2.10689731481,-4.40533105469,14.9781255859,1.0,0.0,0.0,0.0,1.0,0.0,0.0,0.0,1.0
1463993297984908765,605,1463993297684794423,,10.6024684906,-37.1584014893,-72.4897460938,0.00123699998949,1.0,0.0,0.0,0.0,1.0,0.0,0.0,0.0,1.0,-6.58536624908,-2.98780488968,7.98780536652,1.0,0.0,0.0,0.0,1.0,0.0,0.0,0.0,1.0,0.579396801758,-5.50187541504,12.0955067871,1.0,0.0,0.0,0.0,1.0,0.0,0.0,0.0,1.0
1463993297985185535,606,1463993297706030322,,10.6434602737,-37.441204071,-72.7295227051,0.00158299994655,1.0,0.0,0.0,0.0,1.0,0.0,0.0,0.0,1.0,-1.03658533096,-0.792682945728,-12.9878053665,1.0,0.0,0.0,0.0,1.0,0.0,0.0,0.0,1.0,-0.541089611728,-3.76847341309,5.41089575195,1.0,0.0,0.0,0.0,1.0,0.0,0.0,0.0,1.0
1463993297985462096,607,1463993297726502839,,10.784321785,-37.3208847046,-72.78565979,0.00127699994482,1.0,0.0,0.0,0.0,1.0,0.0,0.0,0.0,1.0,4.32926845551,5.18292713165,6.28048801422,1.0,0.0,0.0,0.0,1.0,0.0,0.0,0.0,1.0,-2.57616098633,-1.92014973145,21.6244293945,1.0,0.0,0.0,0.0,1.0,0.0,0.0,0.0,1.0
1463993297985749803,608,1463993297747388166,,10.9625034332,-37.549331665,-73.0255966187,0.0012080000015,1.0,0.0,0.0,0.0,1.0,0.0,0.0,0.0,1.0,6.28048801422,-5.85365867615,-7.68292665482,1.0,0.0,0.0,0.0,1.0,0.0,0.0,0.0,1.0,-2.2170307373,1.4844050293,12.7323644287,1.0,0.0,0.0,0.0,1.0,0.0,0.0,0.0,1.0
1463993297986031365,609,1463993297768806668,,11.0622501373,-37.4187049866,-73.0137481689,0.00126199994702,1.0,0.0,0.0,0.0,1.0,0.0,0.0,0.0,1.0,-2.5,1.46341466904,11.2804880142,1.0,0.0,0.0,0.0,1.0,0.0,0.0,0.0,1.0,9.93593688965,-10.3429511719,-2.59531459961,1.0,0.0,0.0,0.0,1.0,0.0,0.0,0.0,1.0
1463993297986318603,610,1463993297789522882,,11.0723142624,-37.5387878418,-73.2843322754,0.00124400004279,1.0,0.0,0.0,0.0,1.0,0.0,0.0,0.0,1.0,5.24390268326,-3.41463422775,-6.40243911743,1.0,0.0,0.0,0.0,1.0,0.0,0.0,0.0,1.0,-0.00957680664062,-2.83473476562,4.86501777344,1.0,0.0,0.0,0.0,1.0,0.0,0.0,0.0,1.0
1463993297986584539,611,1463993297811301070,,11.0361766815,-37.3935699463,-73.2054595947,0.00120399997104,1.0,0.0,0.0,0.0,1.0,0.0,0.0,0.0,1.0,-5.06097555161,5.06097555161,-4.75609779358,1.0,0.0,0.0,0.0,1.0,0.0,0.0,0.0,1.0,-2.43729729004,-9.02135185547,7.44117875977,1.0,0.0,0.0,0.0,1.0,0.0,0.0,0.0,1.0
1463993297986874434,612,1463993297832687958,,11.133928299,-37.3871231079,-73.3348693848,0.00131800002418,1.0,0.0,0.0,0.0,1.0,0.0,0.0,0.0,1.0,-1.64634156227,-3.59756112099,6.46341466904,1.0,0.0,0.0,0.0,1.0,0.0,0.0,0.0,1.0,-4.61602080078,-4.28083286062,12.1721212402,1.0,0.0,0.0,0.0,1.0,0.0,0.0,0.0,1.0
1463993297988397605,613,1463993297853659274,,11.1540489197,-37.7045059204,-73.3862228394,0.00127699994482,1.0,0.0,0.0,0.0,1.0,0.0,0.0,0.0,1.0,1.8292683363,-6.15853643417,-6.58536624908,1.0,0.0,0.0,0.0,1.0,0.0,0.0,0.0,1.0,-3.14119257812,-5.37258852539,10.6398321777,1.0,0.0,0.0,0.0,1.0,0.0,0.0,0.0,1.0
1463993297988774061,614,1463993297874997516,,11.0079278946,-37.4591255188,-73.3452758789,0.00136500003282,1.0,0.0,0.0,0.0,1.0,0.0,0.0,0.0,1.0,-1.58536589146,-1.8292683363,17.5000019073,1.0,0.0,0.0,0.0,1.0,0.0,0.0,0.0,1.0,6.52180532227,-2.03028300781,15.1648733154,1.0,0.0,0.0,0.0,1.0,0.0,0.0,0.0,1.0
1463993297989069268,615,1463993297895863417,,11.1138916016,-37.4921226501,-73.4055175781,0.00141899997834,1.0,0.0,0.0,0.0,1.0,0.0,0.0,0.0,1.0,7.13414621353,-8.84146404266,-8.5365858078,1.0,0.0,0.0,0.0,1.0,0.0,0.0,0.0,1.0,0.785298144531,-0.780509741211,14.575899707,1.0,0.0,0.0,0.0,1.0,0.0,0.0,0.0,1.0
1463993297989346403,616,1463993297917452960,,10.7383136749,-37.3871879578,-73.3089599609,0.00129899999592,1.0,0.0,0.0,0.0,1.0,0.0,0.0,0.0,1.0,-2.43902444839,3.71951246262,17.2560977936,1.0,0.0,0.0,0.0,1.0,0.0,0.0,0.0,1.0,-0.0718260498047,-5.78439121094,11.9614314941,1.0,0.0,0.0,0.0,1.0,0.0,0.0,0.0,1.0
1463993297989655360,617,1463993297938808181,,10.6217765808,-37.4326515198,-73.4454345703,0.00121899996884,1.0,0.0,0.0,0.0,1.0,0.0,0.0,0.0,1.0,-2.37804889679,-17.8658542633,0.0,1.0,0.0,0.0,0.0,1.0,0.0,0.0,0.0,1.0,9.50019277202,-1.78607443848,4.6208092041,1.0,0.0,0.0,0.0,1.0,0.0,0.0,0.0,1.0
1463993298186019885,618,1463993297960196892,,10.5400419235,-37.5516090393,-73.3960342407,0.00127300003078,1.0,0.0,0.0,0.0,1.0,0.0,0.0,0.0,1.0,0.18292683363,4.51219558716,-0.0609756112099,1.0,0.0,0.0,0.0,1.0,0.0,0.0,0.0,1.0,-3.68228215332,-6.12436784668,11.0420580566,1.0,0.0,0.0,0.0,1.0,0.0,0.0,0.0,1.0
1463993298186392487,619,1463993297981101646,,10.3989086151,-37.5416259766,-73.4870300293,0.00122500001453,1.0,0.0,0.0,0.0,1.0,0.0,0.0,0.0,1.0,-10.7317075729,-0.914634168148,8.59756088257,1.0,0.0,0.0,0.0,1.0,0.0,0.0,0.0,1.0,3.74453139648,-9.03571706543,6.81868632812,1.0,0.0,0.0,0.0,1.0,0.0,0.0,0.0,1.0
1463993298186717069,620,1463993298002774053,,10.3363265991,-37.6797561646,-73.5679702759,0.00141300004907,1.0,0.0,0.0,0.0,1.0,0.0,0.0,0.0,1.0,1.40243899822,-4.45121955872,-10.3048782349,1.0,0.0,0.0,0.0,1.0,0.0,0.0,0.0,1.0,-2.71502468262,-4.6208092041,10.6302553711,1.0,0.0,0.0,0.0,1.0,0.0,0.0,0.0,1.0
1463993298188288417,621,1463993298023770995,,10.1833724976,-37.6370620728,-73.572303772,0.00176000001375,1.0,0.0,0.0,0.0,1.0,0.0,0.0,0.0,1.0,-7.25609779358,3.17073178291,9.20731735229,1.0,0.0,0.0,0.0,1.0,0.0,0.0,0.0,1.0,0.0,-6.1530982666,8.52335849468,1.0,0.0,0.0,0.0,1.0,0.0,0.0,0.0,1.0
1463993298188605342,622,1463993298045652672,,10.3185005188,-37.8209495544,-73.7624664307,0.00124899996445,1.0,0.0,0.0,0.0,1.0,0.0,0.0,0.0,1.0,-1.40243899822,-2.43902444839,-4.75609779358,1.0,0.0,0.0,0.0,1.0,0.0,0.0,0.0,1.0,1.12048637695,-3.05500131836,-0.555454785156,1.0,0.0,0.0,0.0,1.0,0.0,0.0,0.0,1.0
1463993298188880758,623,1463993298066770447,,10.3221855164,-37.8324546814,-73.7361526489,0.00148900004569,1.0,0.0,0.0,0.0,1.0,0.0,0.0,0.0,1.0,-2.01219511032,10.3048782349,5.97560977936,1.0,0.0,0.0,0.0,1.0,0.0,0.0,0.0,1.0,-0.225054956055,-5.12359155273,2.65756384277,1.0,0.0,0.0,0.0,1.0,0.0,0.0,0.0,1.0
1463993298189142527,624,1463993298087288119,,10.3857212067,-37.7397117615,-73.886428833,0.0012450000504,1.0,0.0,0.0,0.0,1.0,0.0,0.0,0.0,1.0,-6.95121955872,-6.40243911743,2.92682933807,1.0,0.0,0.0,0.0,1.0,0.0,0.0,0.0,1.0,-7.01022246094,-7.09162531738,8.45631967915,1.0,0.0,0.0,0.0,1.0,0.0,0.0,0.0,1.0
1463993298189426172,625,1463993298108798288,,10.5830516815,-37.7985877991,-73.9385223389,0.0013340000296,1.0,0.0,0.0,0.0,1.0,0.0,0.0,0.0,1.0,6.34146356583,10.3658542633,-5.73170757294,1.0,0.0,0.0,0.0,1.0,0.0,0.0,0.0,1.0,-6.17225187988,-2.69108266602,8.65264538433,1.0,0.0,0.0,0.0,1.0,0.0,0.0,0.0,1.0
1463993298191473559,626,1463993298129233044,,10.6379804611,-37.7522544861,-74.0137329102,0.0012450000504,1.0,0.0,0.0,0.0,1.0,0.0,0.0,0.0,1.0,-4.32926845551,-0.243902444839,13.5365858078,1.0,0.0,0.0,0.0,1.0,0.0,0.0,0.0,1.0,6.06690700684,-8.95431420898,4.62559760742,1.0,0.0,0.0,0.0,1.0,0.0,0.0,0.0,1.0
1463993298191829079,627,1463993298150228111,,10.8388843536,-37.8183364868,-74.1826858521,0.00123599998187,1.0,0.0,0.0,0.0,1.0,0.0,0.0,0.0,1.0,6.70731735229,-1.8292683363,-5.18292713165,1.0,0.0,0.0,0.0,1.0,0.0,0.0,0.0,1.0,-8.08282480469,-1.22583125,13.4506249268,1.0,0.0,0.0,0.0,1.0,0.0,0.0,0.0,1.0
1463993298276320071,628,1463993298170870626,,11.068072319,-37.691947937,-74.1619567871,0.0012379999971,1.0,0.0,0.0,0.0,1.0,0.0,0.0,0.0,1.0,3.23170733452,3.10975623131,6.28048801422,1.0,0.0,0.0,0.0,1.0,0.0,0.0,0.0,1.0,1.69988317871,-5.68862314453,7.42202514648,1.0,0.0,0.0,0.0,1.0,0.0,0.0,0.0,1.0
1463993298276680278,629,1463993298191881005,,10.8952856064,-37.6936607361,-74.3910522461,0.00126599997748,1.0,0.0,0.0,0.0,1.0,0.0,0.0,0.0,1.0,4.45121955872,-7.62195110321,-0.670731723309,1.0,0.0,0.0,0.0,1.0,0.0,0.0,0.0,1.0,-4.47715710449,3.86424147949,16.8312376709,1.0,0.0,0.0,0.0,1.0,0.0,0.0,0.0,1.0
1463993298278085533,630,1463993298212489511,,10.8864870071,-37.7444419861,-74.4108810425,0.00142800004687,1.0,0.0,0.0,0.0,1.0,0.0,0.0,0.0,1.0,9.63414573669,8.04878044128,-3.35365867615,1.0,0.0,0.0,0.0,1.0,0.0,0.0,0.0,1.0,-8.05409438477,-3.2992098877,12.3588689697,1.0,0.0,0.0,0.0,1.0,0.0,0.0,0.0,1.0
1463993298278405479,631,1463993298233940878,,10.7808713913,-37.7533416748,-74.5160293579,0.00123199995141,1.0,0.0,0.0,0.0,1.0,0.0,0.0,0.0,1.0,-5.18292713165,-4.69512224197,10.6707315445,1.0,0.0,0.0,0.0,1.0,0.0,0.0,0.0,1.0,1.4604630127,-7.41723674316,3.96479794922,1.0,0.0,0.0,0.0,1.0,0.0,0.0,0.0,1.0
1463993298281488226,632,1463993298255091464,,11.0038328171,-37.7662162781,-74.6495666504,0.00126900000032,1.0,0.0,0.0,0.0,1.0,0.0,0.0,0.0,1.0,11.6463422775,-3.96341490746,-14.7560987473,1.0,0.0,0.0,0.0,1.0,0.0,0.0,0.0,1.0,-8.99740983887,1.69030637207,11.6262432617,1.0,0.0,0.0,0.0,1.0,0.0,0.0,0.0,1.0
1463993298336815386,633,1463993298276357780,,10.9759263992,-37.6640396118,-74.6134567261,0.00151299999561,1.0,0.0,0.0,0.0,1.0,0.0,0.0,0.0,1.0,-0.487804889679,9.81707286835,11.5243911743,1.0,0.0,0.0,0.0,1.0,0.0,0.0,0.0,1.0,8.26957253418,-7.94874951172,5.516240625,1.0,0.0,0.0,0.0,1.0,0.0,0.0,0.0,1.0
1463993298339165949,634,1463993298297132430,,10.9264087677,-37.7038421631,-74.8266525269,0.00124100001995,1.0,0.0,0.0,0.0,1.0,0.0,0.0,0.0,1.0,-8.17073154449,-15.1219511032,2.13414645195,1.0,0.0,0.0,0.0,1.0,0.0,0.0,0.0,1.0,-5.53539423828,-5.14274516602,14.0252333252,1.0,0.0,0.0,0.0,1.0,0.0,0.0,0.0,1.0
1463993298362720744,635,1463993298318429579,,10.7833271027,-38.1154022217,-74.9229736328,0.0012450000504,1.0,0.0,0.0,0.0,1.0,0.0,0.0,0.0,1.0,5.97560977936,6.89024400711,-5.06097555161,1.0,0.0,0.0,0.0,1.0,0.0,0.0,0.0,1.0,-10.658985791,-1.01514150391,22.0553856934,1.0,0.0,0.0,0.0,1.0,0.0,0.0,0.0,1.0
1463993298363048190,636,1463993298339873966,,10.8483753204,-37.9528045654,-74.9734268188,0.00127200002316,1.0,0.0,0.0,0.0,1.0,0.0,0.0,0.0,1.0,-16.6463413239,2.80487799644,12.9268293381,1.0,0.0,0.0,0.0,1.0,0.0,0.0,0.0,1.0,-8.06367119141,-9.66299848491,3.69185895996,1.0,0.0,0.0,0.0,1.0,0.0,0.0,0.0,1.0
1463993298428329317,637,1463993298361223771,,11.0895013809,-38.1010360718,-75.1893615723,0.00124799995683,1.0,0.0,0.0,0.0,1.0,0.0,0.0,0.0,1.0,6.15853643417,1.8902438879,-5.12195110321,1.0,0.0,0.0,0.0,1.0,0.0,0.0,0.0,1.0,-10.9079827637,3.07415493164,21.2700875488,1.0,0.0,0.0,0.0,1.0,0.0,0.0,0.0,1.0
1463993298428625566,638,1463993298382156598,,11.1315965652,-38.2888679504,-75.2324523926,0.00127999996766,1.0,0.0,0.0,0.0,1.0,0.0,0.0,0.0,1.0,-3.17073178291,13.2317075729,-4.51219558716,1.0,0.0,0.0,0.0,1.0,0.0,0.0,0.0,1.0,-3.62482131348,-7.0724717041,4.84586416016,1.0,0.0,0.0,0.0,1.0,0.0,0.0,0.0,1.0
1463993298457105444,639,1463993298403504580,,11.14453125,-38.140953064,-75.3813858032,0.00143299996853,1.0,0.0,0.0,0.0,1.0,0.0,0.0,0.0,1.0,-3.96341490746,7.43902492523,8.59756088257,1.0,0.0,0.0,0.0,1.0,0.0,0.0,0.0,1.0,-3.17471140137,3.9360675293,17.1185418701,1.0,0.0,0.0,0.0,1.0,0.0,0.0,0.0,1.0
1463993298457399922,640,1463993298425253081,,11.27693367,-38.3063697815,-75.5931091309,0.00180900003761,1.0,0.0,0.0,0.0,1.0,0.0,0.0,0.0,1.0,1.15853655338,-4.51219558716,-9.08536529541,1.0,0.0,0.0,0.0,1.0,0.0,0.0,0.0,1.0,1.2976572998,2.17393510742,8.17859287109,1.0,0.0,0.0,0.0,1.0,0.0,0.0,0.0,1.0
1463993298486217195,641,1463993298446716843,,11.3713502884,-38.4293670654,-75.6625976562,0.00188100000378,1.0,0.0,0.0,0.0,1.0,0.0,0.0,0.0,1.0,-5.54878091812,10.1829271317,3.04878044128,1.0,0.0,0.0,0.0,1.0,0.0,0.0,0.0,1.0,0.742202514648,-9.48103915874,13.1968395508,1.0,0.0,0.0,0.0,1.0,0.0,0.0,0.0,1.0
